// General information: 
//  MT Manager version: 2022.0.0 
//  XDA version: 2022.0.0 build 7085 rev 119802 built on 2022-11-08
// Device information: 
//  DeviceId: 00B492A5
//  ProductCode: MTW2-3A7G6
//  Firmware Version: 4.6.0
//  Hardware Version: 2.0.0
// Device settings: 
//  Filter Profile: human(46.1)
//  Option Flags: Orientation Smoother Disabled, Position/Velocity Smoother Disabled, Continuous Zero Rotation Update Disabled, AHS Disabled, ICC Disabled
// Coordinate system: ENU
PacketCounter	Acc_X	Acc_Y	Acc_Z	FreeAcc_E	FreeAcc_N	FreeAcc_U	Roll	Pitch	Yaw	Vel_E	Vel_N	Vel_U
40738	9.411205	-0.955914	-2.159622	-0.187381	0.019987	-0.111502	-152.001787	-76.467162	-68.508850			
40739	9.425978	-1.047703	-2.134441	-0.113085	0.069386	-0.092350	-151.854923	-76.481875	-68.680484			
40740	9.362772	-1.066075	-1.976282	0.005014	-0.000934	-0.184413	-151.676327	-76.514029	-68.903202			
40741	9.063212	-0.965003	-2.207492	-0.268324	0.136506	-0.439565	-151.496488	-76.546611	-69.123349			
40742	9.112768	-0.913222	-2.313233	-0.384610	0.154416	-0.375750	-151.336521	-76.553470	-69.306463			
40743	9.321168	-0.854538	-2.293677	-0.397828	0.051187	-0.183852	-151.144563	-76.552005	-69.524001			
40744	9.375242	-0.993735	-2.311435	-0.322736	0.151704	-0.112263	-150.925599	-76.551016	-69.801527			
40745	9.378162	-1.165477	-2.287586	-0.199300	0.260628	-0.094989	-150.710900	-76.542219	-70.083148			
40746	9.457861	-1.138258	-2.274732	-0.208742	0.210628	-0.023243	-150.480699	-76.533446	-70.360365			
40747	9.447705	-1.106808	-2.153395	-0.147961	0.109171	-0.061408	-150.235119	-76.533794	-70.656140			
40748	9.318609	-1.205928	-2.047399	-0.022623	0.141663	-0.196972	-149.981605	-76.541543	-70.962894			
40749	9.368686	-1.244776	-1.976181	0.050520	0.112544	-0.158061	-149.740029	-76.550036	-71.224807			
40750	9.580171	-1.097467	-1.765354	0.116961	-0.177966	-0.011911	-149.491866	-76.566048	-71.455091			
40751	9.827669	-1.009623	-1.623189	0.170311	-0.385857	0.190274	-149.138029	-76.618063	-71.780939			
40752	9.641104	-1.105294	-1.635324	0.194855	-0.261159	0.022995	-148.803271	-76.678063	-72.069210			
40753	9.781651	-0.983301	-1.680555	0.074060	-0.347581	0.154534	-148.429806	-76.747240	-72.343574			
40754	9.779390	-0.730628	-1.572786	-0.028985	-0.594608	0.101419	-148.036200	-76.836930	-72.587542			
40755	9.672243	-0.491955	-1.520219	-0.170736	-0.772506	-0.041330	-147.647068	-76.926950	-72.827613			
40756	9.706256	-0.437607	-1.534257	-0.230928	-0.801965	-0.011650	-147.292491	-77.013359	-73.054230			
40757	9.597991	-0.548499	-1.448512	-0.116569	-0.739519	-0.119392	-146.949975	-77.099997	-73.289307			
40758	9.502325	-0.746622	-1.341068	0.072352	-0.627837	-0.207968	-146.613275	-77.181406	-73.514554			
40759	9.425483	-0.829934	-1.196567	0.216982	-0.629867	-0.298674	-146.291856	-77.255193	-73.711293			
40760	9.400398	-0.912161	-1.002485	0.403576	-0.675214	-0.347716	-145.997247	-77.318455	-73.872544			
40761	9.421675	-0.852045	-0.789642	0.517240	-0.849831	-0.371940	-145.712195	-77.373046	-74.009463			
40762	9.538294	-0.708686	-0.398850	0.721767	-1.217951	-0.345058	-145.467577	-77.420041	-74.093366			
40763	9.862262	-0.492183	-0.013673	0.890583	-1.680591	-0.123047	-145.227417	-77.466025	-74.169537			
40764	10.202075	-0.329885	0.379216	1.102539	-2.108045	0.120867	-144.979376	-77.524286	-74.262686			
40765	10.338510	-0.017205	0.749191	1.186162	-2.586388	0.154756	-144.658421	-77.654486	-74.488836			
40766	10.609528	0.283329	0.946704	1.146225	-2.967505	0.356805	-144.286545	-77.844513	-74.805080			
40767	11.012959	0.685770	1.113875	1.016985	-3.420986	0.687721	-143.818340	-78.132969	-75.256438			
40768	11.330002	1.390457	1.322688	0.708873	-4.091040	0.902349	-143.227372	-78.571844	-75.925509			
40769	11.358497	2.059078	1.603216	0.441675	-4.693157	0.845797	-142.488670	-79.175486	-76.907549			
40770	11.470207	2.549272	2.052067	0.390871	-5.250468	0.890234	-141.640126	-79.942592	-78.235889			
40771	11.891868	3.115951	2.794989	0.486105	-6.079169	1.220934	-140.613526	-80.805379	-79.993868			
40772	12.147124	2.559064	3.228806	1.028558	-5.824799	1.568662	-138.681540	-81.733796	-82.738036			
40773	12.268752	2.329517	3.322221	1.082926	-5.561514	1.800963	-135.958391	-82.750730	-86.213950			
40774	12.790111	2.285561	3.589907	1.138730	-5.568144	2.409789	-131.246973	-83.886088	-91.529416			
40775	13.614783	2.883845	4.815315	1.413994	-6.659147	3.245169	-122.111108	-85.172429	-101.343148			
40776	12.699840	2.962339	5.135611	1.345274	-6.566008	2.495730	-104.839237	-86.270738	-119.442674			
40777	11.749806	2.116960	3.810424	0.765035	-4.728245	1.767827	-84.583566	-86.738137	-140.802049			
40778	11.995650	0.028314	-0.219931	-0.776681	-0.180473	2.158230	-63.498174	-86.615165	-163.092521			
40779	12.309692	-0.713981	0.424128	0.032239	0.075616	2.524477	-46.792243	-85.995857	179.169220			
40780	12.822403	-1.156744	0.863917	0.448541	0.270588	3.079825	-34.608232	-85.054187	166.301226			
40781	13.110957	1.136292	3.078782	0.002696	-2.652971	3.439489	-25.570973	-84.010517	156.930908			
40782	13.091830	2.894151	3.146694	-1.452883	-3.605859	3.399121	-19.685461	-83.021865	150.225343			
40783	12.595058	0.756087	-0.801208	-2.461865	0.993886	2.548339	-16.230263	-82.131368	145.484309			
40784	11.312381	-1.372495	-2.464371	-1.764972	3.736067	1.089161	-13.478052	-81.309108	141.744336			
40785	10.746443	-1.654387	-1.881137	-1.133777	3.579682	0.563227	-11.188294	-80.486517	138.496056			
40786	9.499447	-3.120699	-1.835735	0.214273	4.440579	-0.670365	-9.482018	-79.671965	135.780684			
40787	8.935279	-3.724440	-1.126389	1.194482	4.278381	-1.138191	-7.768653	-78.835588	133.313436			
40788	8.170970	-3.472363	-0.891819	1.221967	3.941025	-1.901213	-6.151866	-78.027926	131.263555			
40789	8.159894	-2.532981	-0.461482	0.682608	3.155353	-1.888700	-4.722353	-77.279907	129.606546			
40790	8.354266	-2.239663	-0.802506	0.203274	3.392790	-1.818903	-3.474372	-76.620512	128.332246			
40791	8.650663	-2.006498	-0.854961	-0.086028	3.448997	-1.585470	-2.158987	-76.050243	127.292100			
40792	8.625976	-1.479672	-0.772786	-0.493145	3.162733	-1.630554	-0.843817	-75.539745	126.310864			
40793	8.118918	-1.319833	-0.347328	-0.328750	2.713746	-2.046972	0.367327	-75.030452	125.328257			
40794	7.894649	-1.068171	-0.311763	-0.495059	2.573087	-2.282938	1.449221	-74.449245	124.340979			
40795	7.245580	-0.545404	-0.055177	-0.689675	2.004390	-2.862496	2.690293	-73.883151	123.340992			
40796	6.930064	0.407155	0.356910	-1.187177	1.127182	-3.057054	3.824473	-73.343456	122.356860			
40797	6.841446	0.761407	0.631743	-1.306089	0.754682	-3.066693	4.980769	-72.847964	121.411140			
40798	6.901432	1.581974	1.297944	-1.594803	-0.159455	-2.795004	6.052816	-72.386473	120.504357			
40799	7.231593	2.070985	1.659222	-1.825733	-0.575011	-2.351208	7.044950	-71.993016	119.662129			
40800	7.259132	1.796093	1.465181	-1.712546	-0.199073	-2.390087	7.838338	-71.637472	118.906843			
40801	7.685462	1.751669	1.589299	-1.663653	-0.094590	-1.946073	8.590485	-71.324345	118.207233			
40802	8.090281	1.806294	1.934755	-1.564120	-0.220419	-1.448279	9.185746	-71.029139	117.567625			
40803	8.308569	1.340407	1.990313	-1.190632	0.129090	-1.247884	9.523824	-70.724206	117.009612			
40804	8.397767	1.062041	2.154518	-0.891202	0.246611	-1.127234	9.825419	-70.426970	116.496115			
40805	8.119286	1.037128	1.955043	-0.939969	0.376446	-1.458335	10.431653	-70.178724	115.927241			
40806	8.025347	2.090997	2.638101	-1.393034	-0.734542	-1.253614	10.624506	-69.926172	115.355888			
40807	7.703835	1.381873	1.820657	-1.236473	0.237356	-1.876184	10.779497	-69.699029	114.748379			
40808	7.609553	1.128512	1.969020	-0.937793	0.279681	-1.932454	10.896896	-69.476520	114.124741			
40809	7.459783	0.710086	1.957506	-0.582319	0.511753	-2.106629	10.960708	-69.266838	113.521502			
40810	7.392226	0.392980	2.426699	-0.059871	0.333984	-2.029813	11.014220	-69.095883	112.955596			
40811	7.338903	-0.059438	2.756504	0.496279	0.327439	-1.995538	10.980353	-68.964559	112.485845			
40812	7.281865	-0.453684	3.194191	1.058990	0.186505	-1.921046	10.859105	-68.905781	112.122545			
40813	7.115059	-0.972354	3.360081	1.599609	0.267432	-2.051928	10.688110	-68.933277	111.872414			
40814	6.998395	-1.209193	3.744387	2.010650	0.029310	-2.039884	10.531564	-69.050507	111.701621			
40815	7.048626	-1.441140	3.964959	2.316024	-0.038296	-1.931357	10.445078	-69.247241	111.558347			
40816	7.418850	-1.499113	4.314532	2.503162	-0.197195	-1.470203	10.455318	-69.467150	111.434381			
40817	7.431932	-1.188023	4.621918	2.405993	-0.632799	-1.338152	10.528197	-69.733628	111.323406			
40818	7.711046	-0.973270	4.618742	2.208847	-0.691601	-1.072967	10.717313	-70.072615	111.180192			
40819	7.829725	-0.603483	4.892475	2.052207	-1.105509	-0.858857	11.053985	-70.447478	111.029111			
40820	7.747281	-0.739206	4.516038	2.031196	-0.805253	-1.084182	11.545831	-70.888840	110.819736			
40821	8.208849	-0.387166	4.757481	1.861602	-1.088344	-0.565090	12.192460	-71.377182	110.545725			
40822	9.543204	0.573928	5.433005	1.323998	-1.795787	0.954900	12.826437	-71.883105	110.185769			
40823	10.260503	0.273142	5.044755	1.365257	-1.191628	1.479668	13.368618	-72.367262	109.703095			
40824	10.420487	0.371972	5.237450	1.432536	-1.430384	1.678907	13.977839	-72.840938	109.080491			
40825	9.973216	-0.027941	5.064983	1.790248	-1.271732	1.155302	14.862354	-73.263753	108.316313			
40826	9.887616	0.448076	5.720958	1.820868	-2.123412	1.271990	15.744261	-73.582817	107.597973			
40827	9.532329	0.409398	5.776328	1.975208	-2.281694	0.924672	16.431009	-73.875909	107.012431			
40828	9.767489	1.005051	6.175606	1.733276	-2.900768	1.283836	17.158849	-74.201267	106.546149			
40829	10.710186	1.797589	6.571203	1.272236	-3.446117	2.337432	17.594511	-74.486596	106.276179			
40830	11.572039	1.529224	6.480580	1.426661	-3.047212	3.107352	17.898567	-74.689848	106.160351			
40831	12.430820	2.597622	8.281513	1.489513	-4.874327	4.465921	17.961239	-74.751954	106.072687			
40832	12.946595	1.228377	6.337523	1.514396	-2.446492	4.365066	17.873694	-74.684097	105.947598			
40833	11.719801	1.297745	4.760320	0.678233	-1.519300	2.794064	18.165674	-74.586667	105.688588			
40834	11.156269	0.796626	3.060070	0.221041	-0.015630	1.780924	18.592045	-74.560748	105.276405			
40835	10.851786	-0.228099	2.420221	0.769025	0.986151	1.237507	19.176356	-74.568637	104.876378			
40836	10.681204	-1.227807	3.616894	2.295652	0.550839	1.282539	19.652480	-74.560887	104.640132			
40837	7.141706	-0.947487	4.705104	2.919814	-1.367733	-1.834988	19.819348	-74.569797	104.569474			
40838	5.784602	0.398947	4.330031	1.690902	-2.179400	-3.122329	19.821153	-74.820343	104.363931			
40839	7.144868	1.571031	3.708941	0.288057	-2.022290	-1.869090	19.866472	-75.112794	104.149466			
40840	8.971685	3.499981	3.368139	-1.605482	-2.391906	-0.025634	20.114161	-75.354209	103.926444			
40841	9.364543	1.937357	0.990215	-1.620902	0.421850	-0.345742	20.531002	-75.612168	103.745674			
40842	8.794162	-1.832561	-0.132976	0.936982	3.219842	-1.477958	21.307854	-75.995706	103.309870			
40843	7.197937	-4.235072	-0.175999	3.013960	4.172024	-3.233399	22.263975	-76.502818	102.411980			
40844	6.944308	-5.891123	-0.958894	3.993833	5.608020	-3.775548	23.710548	-77.165582	100.995943			
40845	8.171154	-4.645997	-0.919593	2.975955	5.090816	-2.435314	25.854039	-77.877085	99.440154			
40846	9.839966	-1.693457	0.854850	1.567598	2.274709	-0.179887	28.163361	-78.642552	98.096136			
40847	11.913092	0.375713	2.117341	0.664395	0.359831	2.269220	30.363913	-79.456087	97.031133			
40848	13.592880	1.677656	2.198403	-0.231916	-0.342560	4.052305	33.281016	-80.249930	95.497610			
40849	13.346625	2.700814	1.901690	-1.052251	-0.963840	3.862191	36.779512	-80.910503	93.163461			
40850	11.757328	1.808256	0.441739	-1.155820	0.310396	2.030676	39.895613	-81.506953	90.315690			
40851	9.931040	-1.220755	0.240394	1.108043	2.007184	-0.070223	41.571970	-82.122526	88.136516			
40852	8.959730	-3.305879	-0.693832	2.179243	3.785187	-1.291636	43.688773	-82.775960	85.368046			
40853	8.893901	-4.398162	-2.832806	1.749476	5.999382	-1.601991	47.969432	-83.362704	81.111044			
40854	9.232570	-2.518866	-3.531582	-0.105850	5.322694	-1.111290	55.047323	-83.623579	75.170744			
40855	9.814254	2.062584	-2.263401	-2.707793	1.390300	0.007163	62.777650	-83.612182	69.200700			
40856	9.482268	5.078481	-1.986153	-4.653003	-0.998662	0.036030	68.980898	-83.598283	64.588667			
40857	8.740601	4.959423	-2.307670	-4.718511	-0.909224	-0.689839	73.796825	-83.775861	60.597379			
40858	8.482793	3.408668	-2.630509	-3.796502	0.258782	-1.094032	78.939025	-84.125731	55.666123			
40859	8.883485	2.015435	-3.400836	-3.281501	1.704723	-0.820014	85.895953	-84.455425	48.891609			
40860	9.258407	1.757905	-2.954505	-2.709469	1.477020	-0.431161	93.546447	-84.653399	41.594916			
40861	9.986551	2.549905	-2.125144	-2.566436	0.256651	0.390026	101.075303	-84.700905	34.491423			
40862	10.611422	2.917552	-0.532565	-1.568835	-1.213304	1.025340	109.021646	-84.731795	26.863118			
40863	10.397915	1.867249	-0.985549	-1.118878	-0.283028	0.734394	117.273684	-84.709494	18.678334			
40864	9.659060	0.746677	-1.797994	-0.938799	0.942723	-0.049678	125.118144	-84.627627	10.824288			
40865	8.764288	-0.090878	-1.519925	-0.197690	1.220777	-1.003570	133.109345	-84.436173	2.826719			
40866	8.775132	-0.369899	-0.672095	0.652730	0.709053	-1.057064	141.681783	-84.046785	-5.654477			
40867	9.081072	-0.475577	-0.852242	0.692110	0.767514	-0.738107	149.486405	-83.428116	-13.244995			
40868	9.262101	-0.005805	-1.920305	-0.301847	1.016514	-0.413351	155.092819	-82.707647	-18.483705			
40869	9.117686	0.876841	-2.288239	-1.115034	0.494292	-0.450661	159.333196	-82.027754	-22.188360			
40870	9.567173	1.698832	-2.290060	-1.549444	-0.261625	0.045829	162.479108	-81.444734	-24.787109			
40871	9.294002	2.740582	-1.257205	-1.467242	-1.832254	-0.328057	165.664841	-80.858422	-27.559265			
40872	8.972414	2.633693	-1.442370	-1.521849	-1.727667	-0.635609	168.723137	-80.219031	-30.677127			
40873	8.689881	1.456556	-1.758018	-0.966048	-0.733973	-0.910273	171.635239	-79.545261	-33.965122			
40874	8.897608	0.233577	-2.070922	-0.298380	0.234621	-0.682243	174.459085	-78.840194	-37.161475			
40875	9.078516	-0.792864	-2.154317	0.405049	0.902217	-0.500872	176.516753	-78.257206	-39.485786			
40876	8.988158	-0.890800	-1.261307	1.132698	0.284385	-0.767984	178.021601	-77.712076	-41.075621			
40877	9.598654	-0.424064	-1.097489	1.068502	-0.353859	-0.207981	179.462981	-77.078080	-42.415089			
40878	10.138793	0.126421	-1.485502	0.548512	-0.685536	0.397406	-179.344757	-76.527977	-43.434556			
40879	9.237258	0.248475	-0.601823	0.977617	-1.305685	-0.697334	-178.192004	-76.050068	-44.452277			
40880	9.030975	-0.030813	-0.834423	0.996228	-0.996184	-0.853326	-177.198519	-75.512293	-45.292503			
40881	9.452204	0.596389	-1.258168	0.376913	-1.339911	-0.360455	-176.250221	-75.027857	-45.965852			
40882	9.424884	1.330521	-0.885294	0.181463	-2.204355	-0.512711	-175.320649	-74.508421	-46.600584			
40883	9.409553	1.925877	-1.293322	-0.469664	-2.476637	-0.455021	-174.384988	-73.895671	-47.252946			
40884	9.554776	2.018468	-2.660079	-1.441924	-1.819905	0.038775	-173.352576	-73.218855	-48.094961			
40885	9.392033	1.084273	-2.546967	-0.730709	-1.280631	-0.132928	-172.270240	-72.560920	-49.122464			
40886	8.821804	0.411850	-1.737848	0.222538	-1.271007	-0.904946	-171.337810	-71.885932	-49.925129			
40887	8.635980	0.878296	-1.386265	0.172550	-1.900887	-1.231958	-170.581887	-71.150017	-50.384758			
40888	8.448677	0.862561	-1.980371	-0.234982	-1.585882	-1.240957	-169.820538	-70.408675	-50.909939			
40889	8.817550	0.199626	-1.771080	0.475582	-1.420096	-0.942412	-169.187645	-69.703282	-51.493136			
40890	9.439600	-0.471085	-1.770582	1.092344	-1.196772	-0.334490	-168.454287	-69.022535	-52.122792			
40891	9.367794	-0.747974	-1.561621	1.441611	-1.198572	-0.472558	-167.726661	-68.448362	-52.586515			
40892	8.944222	-0.222882	-0.900485	1.507828	-1.946554	-1.164193	-167.073894	-67.930552	-52.864773			
40893	9.131959	0.135690	-0.694574	1.497854	-2.466668	-1.119879	-166.554909	-67.428249	-53.040396			
40894	9.472710	0.130644	-1.105061	1.318291	-2.403883	-0.677412	-166.057356	-66.917758	-53.180787			
40895	9.906296	-0.141615	-1.689006	1.209389	-2.082916	-0.055358	-165.489686	-66.366487	-53.288550			
40896	9.917228	-0.566240	-2.307151	1.071000	-1.509832	0.215641	-164.882207	-65.785149	-53.375485			
40897	9.239502	-0.789042	-2.784975	0.727322	-0.951217	-0.204754	-164.181391	-65.217585	-53.506229			
40898	8.778701	-0.874621	-3.335881	0.279022	-0.539136	-0.400513	-163.277260	-64.614842	-53.722809			
40899	8.713943	-0.225098	-3.210598	-0.030033	-1.201573	-0.601522	-162.352080	-64.021665	-53.902756			
40900	9.112947	0.857083	-3.205963	-0.561644	-2.307774	-0.409706	-161.427948	-63.481506	-54.064691			
40901	10.051297	1.827947	-2.045736	0.010407	-4.102072	-0.235284	-160.575999	-62.985287	-54.221478			
40902	11.037995	2.232752	-0.911064	0.934523	-5.432390	0.049741	-159.851506	-62.586098	-54.417233			
40903	12.043412	2.211308	-0.981424	1.189929	-5.831977	0.932936	-159.219303	-62.315287	-54.646660			
40904	12.532696	2.553079	-1.744428	0.538304	-5.982823	1.612969	-158.723985	-62.247069	-54.949315			
40905	12.888010	1.693196	-3.173127	0.004334	-4.796883	2.678355	-158.222969	-62.255228	-55.299886			
40906	13.257316	1.865805	-2.526169	0.461976	-5.392835	2.690229	-157.625558	-62.412176	-55.589783			
40907	13.552345	2.835304	-1.865833	0.449818	-6.588680	2.498815	-157.176619	-62.546159	-55.949198			
40908	13.715601	1.375962	-1.650475	1.432012	-5.585704	2.816004	-156.682517	-62.677416	-56.550891			
40909	15.131576	0.521980	-0.685830	2.950834	-5.899235	3.832765	-156.116267	-62.838809	-57.197115			
40910	16.040020	-0.173146	0.542210	4.425882	-6.266784	4.284961	-155.461061	-63.134261	-58.026437			
40911	16.347520	-1.039358	1.923950	5.946178	-6.328706	4.209144	-154.913157	-63.544679	-58.813418			
40912	16.159782	-0.463196	3.250585	6.472776	-7.306667	3.477639	-154.268492	-64.049701	-59.527024			
40913	16.496404	1.848313	6.493390	7.605503	-10.760937	2.190047	-153.808541	-64.728109	-60.257121			
40914	15.103780	3.035501	8.288574	7.807137	-12.013946	0.224277	-153.577480	-65.729749	-61.334267			
40915	13.040614	0.311262	4.797918	6.017912	-7.317882	0.355837	-153.153396	-66.962521	-62.613488			
40916	11.028990	-0.666952	0.571136	2.745005	-3.538812	0.303955	-152.135956	-68.148834	-63.821102			
40917	11.308484	0.663838	0.352506	1.648422	-4.399368	0.500882	-150.830152	-69.373638	-64.992598			
40918	11.172996	0.804401	-2.530852	-0.902729	-2.744224	1.301994	-149.472570	-70.715294	-66.202474			
40919	11.992615	-0.293802	-4.647824	-2.014652	-0.765308	2.870313	-148.169866	-72.100573	-67.387199			
40920	13.000326	-1.397933	-5.416287	-2.066855	0.492547	4.179253	-146.797943	-73.464743	-68.521716			
40921	13.534542	-1.698287	-5.153369	-1.842729	0.714968	4.634053	-145.342517	-74.808268	-69.607753			
40922	13.237363	-1.731811	-4.923035	-1.875088	0.968505	4.258510	-143.885174	-76.219048	-70.849616			
40923	12.467532	-1.774138	-3.894132	-1.268049	0.906351	3.275917	-142.230337	-77.695888	-72.606518			
40924	12.170847	-1.738747	-3.466016	-1.132062	0.990493	2.871726	-140.272801	-79.106794	-74.948585			
40925	12.156989	-0.950810	-3.225246	-1.555444	0.503482	2.694001	-137.724428	-80.446057	-78.034379			
40926	11.989560	0.482113	-3.353859	-2.662226	-0.268105	2.355406	-134.479851	-81.689521	-82.044164			
40927	12.159446	0.951803	-4.027666	-3.636290	0.028811	2.505840	-129.793179	-82.934127	-87.693213			
40928	11.614559	1.240543	-4.038101	-3.972259	0.193468	1.888443	-123.217820	-84.135070	-95.269550			
40929	11.623542	0.849563	-3.833488	-3.705409	0.693915	1.862161	-113.114802	-85.284844	-106.266787			
40930	10.596855	-0.258456	-4.045613	-3.264031	2.055517	0.856931	-97.794722	-86.207682	-121.903339			
40931	11.166150	2.088451	-3.267220	-4.293374	0.015241	1.199870	-74.754889	-86.820552	-145.557022			
40932	10.709677	0.782070	-4.000282	-4.081649	1.824404	0.737781	-48.472155	-86.713021	-173.035945			
40933	10.181585	-0.392217	-4.766122	-3.899096	3.543049	0.125543	-27.882982	-85.991822	165.142477			
40934	10.125279	-0.597046	-5.015149	-3.972800	4.176311	-0.076428	-14.738500	-84.831701	151.005843			
40935	9.344402	-0.216129	-3.684361	-3.257382	3.231174	-0.875031	-6.650052	-83.638780	142.168432			
40936	9.815481	-0.022823	-4.122241	-3.778374	3.690033	-0.569450	-1.328300	-82.393121	136.020945			
40937	9.224608	-0.295517	-4.999655	-4.156775	4.711806	-1.404968	2.569193	-81.039966	131.295382			
40938	8.311826	-0.270200	-3.658250	-3.167114	3.869629	-2.227643	5.506316	-79.786844	127.634212			
40939	7.752654	0.037256	-3.671891	-3.338437	3.787966	-2.877958	7.798822	-78.657312	124.679550			
40940	7.434724	0.042578	-3.787152	-3.370946	3.989437	-3.305956	9.595629	-77.591324	122.222355			
40941	6.757801	-0.046933	-3.488213	-3.011833	3.860322	-3.993551	11.066805	-76.606406	120.130819			
40942	6.430925	0.038229	-3.422974	-2.970848	3.823303	-4.369381	12.096352	-75.696362	118.366068			
40943	5.857511	-0.392583	-3.355438	-2.497022	4.041589	-5.000976	12.862725	-74.876856	116.812503			
40944	5.602886	-0.805189	-3.727894	-2.334850	4.612727	-5.430002	13.624600	-74.179402	115.332306			
40945	5.531071	-1.183887	-3.449715	-1.811317	4.699834	-5.508649	14.582364	-73.570516	113.830915			
40946	5.782489	-1.141515	-3.353869	-1.769457	4.733226	-5.290126	15.661146	-73.025825	112.321927			
40947	5.721811	-1.806998	-3.235263	-1.123247	5.087672	-5.416703	17.019464	-72.540696	110.779409			
40948	5.935723	-1.826709	-2.623290	-0.734453	4.750244	-5.085459	18.632814	-72.100167	109.262141			
40949	5.463485	-1.601555	-1.521472	-0.181673	3.701645	-5.230760	20.145443	-71.696592	107.854066			
40950	4.860179	-2.303406	-2.161695	0.069881	4.453192	-6.102710	21.496097	-71.352091	106.577877			
40951	4.321519	-1.713106	-2.108983	-0.300567	3.921674	-6.558753	22.764393	-71.064129	105.437135			
40952	4.031447	-0.761437	-1.275645	-0.509042	2.666515	-6.482503	23.688854	-70.840396	104.489782			
40953	3.768960	-0.669408	-1.706576	-0.800151	2.862205	-6.857517	24.166189	-70.688660	103.654063			
40954	3.744947	-0.677632	-1.404245	-0.584513	2.647421	-6.795212	24.521335	-70.632606	102.876634			
40955	4.027365	-0.421668	-0.829613	-0.442111	2.167994	-6.321268	24.737822	-70.650137	102.122499			
40956	4.852584	-0.243151	-0.320765	-0.318747	1.951463	-5.362999	24.846634	-70.734866	101.429740			
40957	6.045744	-0.164701	0.884718	0.263179	1.368371	-3.861294	24.883524	-70.930870	100.748162			
40958	7.746819	-0.927750	2.496353	1.728835	1.066423	-1.876746	24.926834	-71.256170	100.002678			
40959	9.871795	-1.677199	5.616849	4.011899	-0.345578	0.938988	25.205047	-71.622134	99.123099			
40960	13.456099	-1.370460	9.747795	5.897435	-2.725566	5.541623	25.642511	-71.804304	98.115511			
40961	16.733559	-1.109779	12.532900	7.057560	-4.083843	9.470210	25.841555	-71.542266	97.366335			
40962	16.486651	-0.028141	12.240903	6.033117	-4.366966	9.323027	26.748719	-70.938827	96.803878			
40963	13.744470	5.467822	13.554842	2.400443	-8.967215	7.973867	27.969648	-70.396192	96.149259			
40964	10.482537	5.561879	10.798483	1.064165	-7.829267	4.151325	29.122779	-70.179318	95.347155			
40965	9.351210	6.609606	11.451630	0.724504	-9.232926	3.472595	30.210842	-70.120612	94.556390			
40966	9.251060	5.880768	11.523071	1.433249	-8.901794	3.288857	30.629161	-69.987640	94.023552			
40967	9.147068	3.978819	9.122894	1.645348	-6.038230	2.168948	30.804699	-69.853815	93.617607			
40968	9.291351	2.463126	6.330308	1.307830	-3.018096	1.216801	30.786666	-69.873680	93.234065			
40969	9.023559	0.644120	1.609914	0.194817	1.491128	-0.747934	30.833988	-70.101163	92.664151			
40970	10.985674	-0.444749	-1.619356	-0.659796	5.187216	-0.006502	31.189270	-70.687336	91.885604			
40971	12.941211	-3.287142	-4.895858	-0.016077	9.774298	0.517325	31.684360	-71.456478	91.242744			
40972	12.700891	-5.072671	-4.512417	1.709989	10.185537	0.223979	32.168408	-72.201726	91.112149			
40973	10.710498	-3.015344	1.395587	3.212458	3.719418	0.267021	32.254950	-72.585814	91.460800			
40974	10.742693	2.014592	9.893629	3.704293	-5.715360	3.262503	31.742048	-72.695669	91.919034			
40975	15.857277	10.153597	12.758986	-1.644847	-10.772528	10.151907	31.093839	-72.568836	92.021205			
40976	18.433399	11.130268	4.894956	-6.935647	-4.161668	10.735020	30.243181	-72.599478	91.978587			
40977	15.420054	2.321105	-0.025279	-2.223158	3.428929	5.236024	26.448047	-72.961852	93.597351			
40978	11.093678	-7.738352	-0.533452	6.296810	7.196309	-0.232579	21.268552	-73.539308	95.744880			
40979	7.267410	-13.866436	-4.826171	10.245734	11.988505	-5.381901	17.913400	-74.258530	96.277095			
40980	3.664956	-14.896954	-12.838795	8.398973	18.126599	-10.844428	19.995072	-74.563459	93.538717			
40981	-0.442121	-9.178669	-10.925875	3.863448	13.156990	-13.783378	24.997256	-75.212471	90.283957			
40982	0.723268	-2.860110	-6.095840	-0.188091	6.702739	-10.755440	33.353961	-76.398020	84.820807			
40983	7.813885	1.141114	-7.253863	-4.342946	7.301698	-3.273144	46.996763	-77.720351	74.945074			
40984	20.075712	15.364584	-6.484669	-14.941274	0.931907	11.560087	58.462680	-77.818113	67.961752			
40985	11.066294	18.416076	5.823342	-10.342373	-13.034738	4.974352	58.325994	-77.700661	67.934506			
40986	8.153658	4.144983	-1.335053	-3.463611	0.242150	-1.245937	60.383558	-79.047957	64.193121			
40987	13.061824	-1.208601	-5.467876	-1.027380	7.190225	2.402106	61.691058	-80.880312	61.363284			
40988	9.235226	-5.570948	-5.550440	2.362010	8.837442	-1.847147	57.877077	-81.545238	63.562540			
40989	7.785587	-4.293876	-1.893998	3.188968	4.788324	-2.774130	57.411792	-81.943906	63.048809			
40990	7.281010	-3.223718	-1.348319	2.547027	3.626079	-3.060903	62.153215	-82.657248	58.586234			
40991	8.178749	-1.294469	-2.498614	0.392421	3.606167	-1.960964	73.607471	-83.117362	48.393293			
40992	11.378321	3.064876	-3.565454	-3.502092	2.264294	1.770431	86.386636	-83.092600	37.447968			
40993	11.294444	7.363150	-0.382803	-5.159607	-2.989860	2.285407	90.179644	-83.048496	34.343054			
40994	7.455727	5.049634	3.134713	-1.612897	-4.962955	-1.832736	96.580269	-83.289031	27.579748			
40995	8.320819	2.896028	0.300847	-1.344312	-1.514896	-1.233173	108.994467	-83.635580	14.485139			
40996	9.747660	0.628364	-2.186786	-0.654077	1.632428	0.041054	122.082461	-83.751417	0.365643			
40997	9.339018	-2.405977	-4.753114	0.532744	5.236169	-0.437498	129.810842	-83.771732	-8.178433			
40998	7.619851	-2.440706	-2.022228	1.846394	2.841495	-2.287757	135.072701	-83.494598	-13.542014			
40999	8.547193	-1.268364	-0.465842	1.807028	0.779861	-1.386217	140.738301	-82.805094	-18.703232			
41000	9.862901	0.080834	-0.186164	1.051899	-0.357439	-0.010593	146.131547	-81.962717	-23.255103			
41001	10.771605	1.412791	-0.170460	0.158928	-1.306532	0.972353	150.561364	-81.209575	-26.952810			
41002	10.701528	1.737476	-0.114479	-0.020926	-1.681076	0.898355	154.063596	-80.695122	-30.131617			
41003	9.486659	0.719739	-0.353419	0.544392	-0.942778	-0.354717	157.548659	-80.254834	-33.650497			
41004	8.688010	-0.358514	-2.028332	0.418721	0.995943	-0.949518	160.827242	-79.755731	-37.023262			
41005	8.312742	-0.686274	-3.253633	-0.019440	2.108246	-1.111398	163.819429	-79.182791	-39.726798			
41006	8.729579	0.385259	-2.639356	-0.490041	0.820256	-0.734946	166.489624	-78.444397	-41.619907			
41007	9.595662	2.120457	-2.044282	-1.396811	-0.932693	0.083177	168.519161	-77.598961	-42.671782			
41008	9.939352	3.858373	-1.548602	-2.381723	-2.571193	0.375014	170.099917	-76.837822	-43.497832			
41009	9.497614	3.683393	-0.599981	-1.696615	-3.298081	-0.306159	171.918626	-76.063009	-45.102380			
41010	9.961464	1.521214	-1.354679	-0.284674	-1.649569	0.216021	174.054668	-75.131617	-47.430806			
41011	10.305457	-1.590313	-2.840619	1.442924	1.132132	0.837877	175.940247	-74.417029	-49.490213			
41012	9.382032	-2.339919	-1.258209	2.809941	0.411623	-0.484508	176.753317	-73.928289	-50.348155			
41013	9.104849	-2.323353	-0.430525	3.244818	-0.273208	-0.987880	177.904692	-73.244683	-51.177499			
41014	8.983365	-2.340905	-0.955613	2.958908	0.072083	-0.962106	179.499346	-72.485968	-51.877417			
41015	8.631236	-0.869099	-0.756903	1.864865	-0.993587	-1.365172	-178.612900	-71.677114	-52.408111			
41016	8.904028	0.791117	-0.626485	0.747926	-2.318420	-1.189247	-176.909458	-70.863274	-52.721309			
41017	9.227432	2.225747	-0.116417	0.100657	-3.822729	-1.124333	-175.487719	-70.168182	-52.958298			
41018	9.302424	2.710842	0.073545	-0.056030	-4.415643	-1.187932	-174.265654	-69.547850	-53.318381			
41019	9.554969	1.890644	-0.830888	0.076672	-3.425983	-0.657475	-173.126723	-68.996201	-53.904693			
41020	9.250789	0.518433	-2.506284	-0.038910	-1.370938	-0.312911	-172.226433	-68.609313	-54.457645			
41021	8.134850	0.021462	-3.980427	-0.867730	0.209009	-0.800311	-171.430011	-68.271250	-54.897254			
41022	7.868652	0.180969	-4.728390	-1.533555	0.595737	-0.779487	-170.641688	-67.858028	-55.195103			
41023	8.678899	0.801330	-3.390342	-0.925812	-1.052773	-0.566411	-169.978841	-67.394997	-55.352772			
41024	8.866477	1.247821	-2.021456	-0.279999	-2.395503	-0.956035	-169.382639	-66.940480	-55.505482			
41025	8.614835	0.906457	-1.741080	0.119702	-2.336104	-1.292355	-168.685993	-66.471721	-55.686606			
41026	8.751933	0.540029	-1.698948	0.463512	-2.234069	-1.177425	-167.903279	-65.957196	-55.847009			
41027	9.137041	0.272980	-1.811397	0.688589	-2.193906	-0.782017	-167.103545	-65.429047	-56.016210			
41028	9.679950	-0.188008	-2.641951	0.590349	-1.642120	0.070161	-166.276973	-64.910726	-56.216957			
41029	10.255562	-0.244093	-3.196157	0.396469	-1.575293	0.808607	-165.445871	-64.448351	-56.388578			
41030	10.281082	0.628747	-2.850872	0.058172	-2.515076	0.574505	-164.704117	-64.088596	-56.493006			
41031	10.522424	1.014657	-2.594774	0.045490	-3.112000	0.617878	-164.002210	-63.811823	-56.628797			
41032	11.118783	0.628588	-2.926254	0.210842	-2.921520	1.323085	-163.326187	-63.682257	-56.837277			
41033	11.229439	0.277383	-1.901304	1.178705	-3.316204	1.022696	-162.742554	-63.665017	-57.080158			
41034	12.114911	-0.382127	-2.128124	1.641215	-3.059683	1.993693	-162.122233	-63.586372	-57.315652			
41035	13.274431	0.136696	-2.013808	1.642602	-3.985015	2.903676	-161.337830	-63.479466	-57.541191			
41036	14.998374	0.515451	-0.687049	2.748407	-5.675415	3.822735	-160.656578	-63.482881	-57.831312			
41037	14.706560	0.547479	0.312589	3.351603	-6.134824	3.141496	-159.934280	-63.621136	-58.148324			
41038	14.754442	1.268426	1.112335	3.453837	-7.111572	2.758554	-159.069897	-63.816183	-58.449870			
41039	15.876110	2.559399	2.523239	3.914458	-9.226254	3.013884	-158.299973	-64.129111	-58.737187			
41040	16.353381	3.106911	3.207373	4.139481	-10.124789	3.138190	-157.668636	-64.575026	-59.142205			
41041	16.028506	3.709758	4.390931	4.511584	-11.017258	2.361860	-157.302199	-65.055149	-59.458831			
41042	16.417981	3.658279	5.160179	5.113307	-11.433401	2.544018	-157.035328	-65.742276	-59.798143			
41043	16.350713	2.476247	7.343197	7.311670	-11.513791	2.076684	-156.253711	-67.039738	-60.738516			
41044	12.631598	0.466545	4.907563	5.745958	-7.229483	0.115358	-155.293545	-68.516737	-62.132659			
41045	10.810954	-1.135281	-0.197270	2.314571	-2.435286	0.527097	-154.291043	-69.829888	-63.432260			
41046	11.537465	-1.282421	-1.418693	1.387403	-1.672311	1.678237	-152.789340	-71.218344	-64.773701			
41047	12.024563	-0.723696	-3.879915	-1.018725	-0.627267	2.786004	-151.003197	-72.674153	-66.153015			
41048	12.891803	-2.064315	-5.577925	-1.667654	1.386060	4.217987	-149.225451	-74.070666	-67.478673			
41049	13.518869	-3.058454	-5.658881	-1.325224	2.320913	4.917599	-147.513155	-75.484085	-68.620319			
41050	13.326739	-3.271676	-5.693711	-1.500231	2.835167	4.693276	-145.855797	-76.890980	-69.624217			
41051	12.460980	-3.080868	-4.935182	-1.293979	2.715741	3.606127	-144.488108	-78.262399	-70.418662			
41052	12.260656	-2.461361	-3.525223	-0.690851	1.731258	3.045268	-143.392205	-79.577011	-71.241871			
41053	12.428068	-1.835354	-2.550949	-0.384785	0.909273	2.968197	-141.978209	-80.848387	-72.747799			
41054	12.227758	-1.254297	-2.501802	-0.822597	0.688062	2.685058	-139.868447	-82.086047	-75.181737			
41055	11.827613	-0.312490	-3.033964	-1.946077	0.523524	2.234194	-137.064199	-83.304534	-78.338251			
41056	11.749972	0.319296	-3.532288	-2.844862	0.556192	2.113396	-133.281241	-84.534680	-82.442329			
41057	11.133836	0.072744	-3.495659	-2.796398	1.041735	1.468982	-127.325230	-85.749653	-88.617403			
41058	10.729986	-0.367516	-3.133429	-2.355052	1.452045	1.023624	-116.875141	-86.898830	-99.241316			
41059	10.091779	-0.134148	-3.663626	-3.008212	1.841248	0.328290	-97.766969	-87.867264	-118.694149			
41060	9.836146	-0.610809	-3.679807	-2.806675	2.473060	0.019146	-59.976812	-88.279850	-157.072036			
41061	9.643396	-1.410172	-3.963978	-2.598552	3.520975	-0.244958	-22.677921	-87.831461	164.844737			
41062	9.332263	-2.322682	-3.822984	-1.954176	4.375831	-0.640461	-3.857725	-86.855992	145.507223			
41063	9.261994	-1.664907	-3.885976	-2.452982	4.098950	-0.821883	6.013359	-85.779210	135.405388			
41064	9.564197	-0.458106	-3.450007	-2.933493	3.104260	-0.574737	11.369462	-84.571735	129.646659			
41065	8.738473	-0.438056	-3.158346	-2.723964	3.058933	-1.461266	13.774622	-83.234796	126.519490			
41066	7.856656	-0.700908	-3.515194	-2.808063	3.597837	-2.481813	15.300561	-81.979465	124.338249			
41067	7.639702	0.181389	-3.342747	-3.267296	2.966202	-2.734893	16.328648	-80.756015	122.739903			
41068	7.333754	0.700351	-2.568934	-3.038142	2.200528	-2.971736	16.892053	-79.614849	121.443504			
41069	7.215651	0.362274	-3.073947	-3.196388	2.918150	-3.262021	17.320264	-78.603603	120.197985			
41070	7.131668	0.151975	-2.941916	-2.955081	3.114526	-3.401454	17.656816	-77.651094	119.068873			
41071	6.723426	-0.243320	-2.847535	-2.568850	3.389377	-3.872677	17.927145	-76.773909	117.992528			
41072	6.664516	-0.505671	-2.459983	-2.091482	3.415873	-3.923776	18.075617	-75.972662	116.974926			
41073	6.505807	-1.409776	-2.553201	-1.471530	4.174720	-4.223666	18.278727	-75.236509	115.957079			
41074	6.355841	-1.609972	-2.257626	-1.076315	4.155150	-4.366484	18.622901	-74.575517	114.922326			
41075	6.169142	-1.835938	-2.023382	-0.700346	4.169732	-4.554808	19.150866	-73.964231	113.811771			
41076	5.792392	-2.598887	-2.246169	-0.213450	4.798502	-5.092559	19.928562	-73.401217	112.691660			
41077	5.240507	-2.654593	-2.112601	-0.001335	4.643796	-5.640439	21.139989	-72.903409	111.488636			
41078	4.916991	-2.496127	-1.939063	0.040359	4.368942	-5.929662	22.606653	-72.499207	110.253386			
41079	4.646293	-1.882256	-1.367525	-0.001979	3.522925	-5.993015	24.288372	-72.185996	109.047706			
41080	4.778033	-1.087886	-1.022435	-0.363193	2.822068	-5.694143	25.900642	-71.937414	107.979376			
41081	4.540144	-0.568501	-0.858708	-0.600322	2.312818	-5.817199	27.285308	-71.747616	107.073779			
41082	4.707953	0.007023	-0.440511	-0.733851	1.707195	-5.464603	28.305412	-71.623447	106.372019			
41083	4.708608	0.741262	-0.327032	-1.169203	1.140878	-5.322838	28.901594	-71.622524	105.798023			
41084	5.082716	1.067874	-0.499489	-1.540650	1.149467	-4.962023	29.034569	-71.763305	105.295951			
41085	6.152846	0.034820	-0.318072	-0.740556	2.037473	-4.045531	28.956782	-72.035095	104.881872			
41086	7.783424	-0.077370	1.201050	0.265263	1.529918	-2.091357	28.690000	-72.384426	104.682077			
41087	9.313645	-0.542149	2.804411	1.579451	1.114645	-0.264660	28.053106	-72.774910	104.568698			
41088	11.006800	-0.952656	5.517549	3.554769	-0.133455	2.012916	27.333681	-73.125907	104.470715			
41089	13.433816	-0.066981	8.904144	4.875276	-2.551254	5.335786	26.417561	-73.235981	104.414190			
41090	15.094879	0.030198	10.717982	5.744831	-3.530255	7.428673	25.872659	-73.020723	104.166623			
41091	15.965783	2.731934	13.314261	5.170808	-6.777756	9.343520	26.185095	-72.399636	103.678822			
41092	13.979459	4.453154	13.627791	4.139600	-8.486945	7.845327	26.676503	-71.856650	102.889408			
41093	11.122428	2.908457	11.212890	4.002044	-6.546195	4.295011	27.335703	-71.602066	101.951136			
41094	10.058950	2.522320	9.878661	3.561423	-5.632460	2.865010	28.180403	-71.543230	101.015024			
41095	10.080235	1.725810	8.943604	3.655148	-4.435609	2.497567	29.089614	-71.508399	100.312860			
41096	9.230774	1.302010	8.353156	3.720954	-3.981002	1.456008	29.605507	-71.436991	100.040941			
41097	8.274805	0.184859	4.864841	2.470023	-1.051563	-0.594964	29.843749	-71.494024	99.832253			
41098	9.612445	-1.515118	0.176451	0.780029	3.782552	-0.879080	30.375020	-71.841912	99.341999			
41099	13.621562	-3.124640	-2.402775	0.236433	7.784253	2.037652	31.315479	-72.577218	98.640781			
41100	16.682128	-5.677973	-2.068982	2.281173	9.880063	4.747220	31.584340	-73.287702	98.943075			
41101	9.563257	-4.617207	1.702409	4.165971	4.394544	-0.924211	31.099572	-73.339123	99.891976			
41102	8.101959	-1.293645	7.950774	5.749723	-2.623683	-0.294969	30.985306	-73.527401	100.056563			
41103	15.042934	4.732519	10.051405	2.203098	-6.063623	7.739976	31.116915	-73.650585	99.707250			
41104	17.192623	6.763372	4.006382	-3.370303	-2.417936	8.631150	30.989818	-73.763015	99.562500			
41105	11.486247	2.108232	-3.818614	-4.580269	4.623607	0.608612	30.894257	-73.892491	99.061865			
41106	8.082128	-1.889596	-5.539986	-2.353182	7.465706	-3.623451	30.747696	-74.083292	98.058711			
41107	5.822565	-4.367012	-6.866631	-0.960609	9.360612	-6.410529	31.127769	-74.493619	96.283354			
41108	5.108557	-8.035947	-11.659447	-0.724857	14.988333	-8.613384	33.273310	-74.938676	93.735497			
41109	0.757508	-6.172460	-8.389170	-0.251428	10.257136	-11.754916	38.619214	-75.276426	89.883551			
41110	3.443269	-0.139419	-4.878010	-2.967779	4.568527	-7.366323	48.758078	-76.220251	82.364248			
41111	19.205585	8.399452	-6.924736	-9.939638	3.649869	9.553348	62.036327	-76.995691	73.931380			
41112	13.774800	23.236416	3.488255	-12.460585	-15.717888	8.613172	61.816948	-76.862075	75.381013			
41113	4.983293	7.770367	-1.495683	-6.141332	-3.345088	-3.604836	61.162389	-77.681154	73.601315			
41114	10.168376	0.984773	-4.159064	-2.954997	4.216075	-0.058203	63.772633	-79.365704	69.106996			
41115	13.079794	-3.918075	-4.845453	0.442863	8.256564	2.084184	62.395243	-80.682756	68.880696			
41116	8.881336	-5.063056	-2.122921	2.944065	6.154385	-1.908668	58.358190	-81.052181	71.057384			
41117	7.604916	-5.245102	-1.487200	3.508118	5.477289	-3.086020	57.219160	-81.555433	71.014514			
41118	7.417977	-4.846781	-2.374613	2.688998	5.792368	-3.226872	61.334156	-82.230394	66.965916			
41119	8.815941	-2.021431	-1.891125	0.901366	3.743304	-1.412896	71.031281	-82.744796	58.411122			
41120	9.952847	0.893063	-1.509269	-0.913684	1.576405	0.127620	82.688326	-82.841025	48.396515			
41121	10.575568	5.569869	-2.341974	-4.762496	-0.985603	1.353890	89.886162	-82.821892	42.360834			
41122	8.417912	4.225347	1.421064	-1.355092	-3.213299	-0.948625	95.111215	-83.093474	37.175675			
41123	8.619324	1.664949	-0.131843	-0.453773	-0.472663	-1.057677	105.151221	-83.315824	26.591379			
41124	10.207384	-0.704523	-3.422253	-0.637004	3.455277	0.387776	115.700486	-83.359300	15.570471			
41125	9.574881	-2.259588	-3.298291	0.610346	4.212172	-0.349783	121.570321	-83.234029	9.673886			
41126	9.355406	-1.519716	-0.699227	1.788532	1.671714	-0.629669	126.894739	-82.889926	4.879576			
41127	9.653914	-0.343290	-0.027869	1.468798	0.300881	-0.269766	132.782887	-82.378348	-0.082322			
41128	9.633967	1.014422	-0.395606	0.325022	-0.464661	-0.134104	138.460552	-81.773243	-4.718114			
41129	9.481626	1.920683	-1.118805	-0.741898	-0.709842	-0.128419	143.692213	-81.200144	-9.011257			
41130	8.958625	2.029456	-2.150464	-1.540218	-0.191768	-0.507365	148.361503	-80.727066	-13.039109			
41131	8.755508	1.276245	-2.864022	-1.505013	0.710901	-0.662918	152.620049	-80.315132	-16.848111			
41132	8.880012	0.935785	-3.095996	-1.384503	0.977339	-0.515271	156.281416	-79.875754	-19.981708			
41133	9.479219	1.930397	-2.278879	-1.345907	-0.479909	0.022528	159.664223	-79.328449	-22.627258			
41134	10.152448	2.803003	-1.938551	-1.511615	-1.545884	0.675876	162.435374	-78.754174	-24.699063			
41135	9.833662	2.682705	-1.629851	-1.198643	-1.767286	0.286461	164.633694	-78.267818	-26.446675			
41136	9.273805	1.967524	-1.473598	-0.662402	-1.392244	-0.343371	166.629561	-77.776091	-28.189402			
41137	9.074075	1.351549	-1.851535	-0.521949	-0.765137	-0.499539	168.519762	-77.221195	-29.862908			
41138	8.961972	0.905828	-2.195844	-0.454697	-0.293621	-0.557133	170.134482	-76.680570	-31.275060			
41139	8.909146	0.825313	-1.751036	-0.042156	-0.607242	-0.716053	171.608365	-76.142696	-32.585714			
41140	9.005399	0.862038	-1.935087	-0.137117	-0.624178	-0.583629	173.082328	-75.591526	-33.926149			
41141	8.860545	0.909600	-2.420651	-0.512683	-0.428011	-0.606751	174.516793	-75.067118	-35.254968			
41142	8.706763	0.865372	-3.242088	-1.084920	0.052055	-0.545156	175.993830	-74.589517	-36.633887			
41143	8.524459	0.672802	-2.744478	-0.607972	-0.180391	-0.854547	177.311673	-74.081997	-37.968649			
41144	8.886763	-0.022439	-3.094788	-0.302305	0.404921	-0.416077	178.786721	-73.503532	-39.386808			
41145	9.213380	-0.407648	-2.652999	0.372997	0.249337	-0.226840	-179.813388	-72.913114	-40.635011			
41146	9.018176	-0.314517	-1.555766	1.098595	-0.573137	-0.740176	-178.579378	-72.336694	-41.746298			
41147	8.803511	-0.651228	-1.446768	1.379783	-0.443562	-0.985599	-177.422912	-71.720006	-42.794412			
41148	8.954672	-0.948582	-1.499249	1.603825	-0.321359	-0.831756	-176.296860	-71.074714	-43.685224			
41149	9.337008	-0.699676	-1.094316	1.865815	-0.946290	-0.620896	-175.242986	-70.427972	-44.383993			
41150	9.689202	-0.242234	-0.830694	1.891639	-1.637486	-0.412226	-174.277727	-69.807621	-44.942430			
41151	9.928844	0.035561	-0.924964	1.747726	-1.950282	-0.190854	-173.375408	-69.241541	-45.411262			
41152	9.855147	0.389286	-1.290077	1.277880	-2.084235	-0.171011	-172.489706	-68.735579	-45.788335			
41153	9.725207	0.838017	-1.795718	0.629336	-2.202201	-0.155573	-171.570630	-68.236485	-46.093906			
41154	10.137581	1.165939	-1.847383	0.534308	-2.639237	0.201833	-170.552426	-67.735143	-46.410543			
41155	10.049017	1.361953	-1.484399	0.705322	-3.068564	-0.059405	-169.593564	-67.248079	-46.713569			
41156	9.716460	1.312984	-1.467724	0.699713	-3.037403	-0.401447	-168.694451	-66.780653	-47.018209			
41157	9.859302	1.247672	-1.388691	0.873782	-3.156895	-0.327929	-167.758161	-66.325292	-47.335290			
41158	10.276209	1.187879	-1.685766	0.824354	-3.167918	0.144084	-166.706503	-65.955712	-47.713204			
41159	10.319309	1.157821	-1.180803	1.256902	-3.488714	-0.041730	-165.702466	-65.699277	-48.093838			
41160	10.587517	1.008602	-1.655459	1.048055	-3.281512	0.384675	-164.670911	-65.533384	-48.580492			
41161	10.393385	0.756627	-1.636711	1.130554	-3.076319	0.213859	-163.765520	-65.509933	-49.110489			
41162	10.373381	0.539688	-1.377196	1.415295	-3.053654	0.110360	-162.873660	-65.519932	-49.703257			
41163	10.565029	0.415830	-1.305924	1.555402	-3.082253	0.265924	-161.999666	-65.499005	-50.269412			
41164	11.471369	0.907564	-1.576412	1.275835	-3.688040	1.126756	-161.193572	-65.484872	-50.812035			
41165	12.149590	1.059517	-1.490318	1.397663	-4.104947	1.683045	-160.551525	-65.518254	-51.407909			
41166	12.574563	0.386759	-1.271813	2.004333	-3.817342	2.074155	-159.959402	-65.543327	-51.973623			
41167	12.804108	0.371953	0.032617	3.070066	-4.509906	1.776958	-159.236874	-65.557557	-52.449548			
41168	13.159101	1.120398	1.250264	3.695768	-5.818864	1.521440	-158.363106	-65.630581	-52.848372			
41169	13.647346	1.944121	2.111824	4.041688	-7.048721	1.521758	-157.385832	-65.804066	-53.275848			
41170	14.794417	2.629078	2.715577	4.416144	-8.243410	2.258134	-156.248237	-66.093594	-53.797233			
41171	15.480914	4.068876	4.441676	5.178096	-10.388785	2.070155	-155.344882	-66.567585	-54.476659			
41172	14.898423	3.794080	5.226303	5.692734	-10.266500	1.406023	-154.607892	-67.256793	-55.511013			
41173	14.043701	2.153888	4.689887	5.697188	-8.331797	1.231542	-153.908298	-68.240737	-56.871387			
41174	12.347811	0.622537	2.535017	4.154697	-5.463909	0.777890	-152.918258	-69.344903	-58.309067			
41175	12.504604	1.005969	2.148858	3.435271	-5.530608	1.123410	-151.566939	-70.586326	-59.974947			
41176	12.023725	0.792488	-0.208910	1.280846	-3.925380	1.509154	-150.108893	-71.964368	-61.771962			
41177	11.828668	0.439624	-2.483958	-0.676351	-2.265432	2.048305	-148.573580	-73.343107	-63.445124			
41178	12.464975	-0.301068	-4.106794	-1.759869	-0.788092	3.172148	-147.164142	-74.621905	-64.901055			
41179	13.623905	-1.086919	-4.959196	-2.132306	0.259233	4.566535	-145.658680	-75.928209	-66.423802			
41180	13.407982	-1.948689	-5.835227	-2.644488	1.735750	4.595798	-143.921071	-77.257189	-68.172529			
41181	12.808630	-2.818909	-6.193894	-2.740021	3.031681	4.103608	-142.157193	-78.548892	-69.767205			
41182	13.443347	-2.437809	-5.093255	-2.167958	2.287747	4.423345	-140.353874	-79.823982	-71.389423			
41183	13.922786	-2.309910	-3.883182	-1.372477	1.747456	4.654938	-138.028869	-81.076846	-73.762670			
41184	13.582891	-1.649216	-2.809084	-1.008637	0.959296	4.085483	-134.752175	-82.336116	-77.459610			
41185	12.824634	-1.053208	-3.396981	-2.013956	1.141436	3.292759	-130.291680	-83.529356	-82.609539			
41186	11.839500	-0.998124	-3.570937	-2.350303	1.565367	2.267867	-123.800009	-84.672371	-89.794441			
41187	10.690583	-0.754892	-3.492777	-2.543259	1.675201	1.039852	-114.876653	-85.734597	-99.213092			
41188	10.459737	-0.971661	-3.222223	-2.291499	1.947071	0.755471	-102.718988	-86.674035	-111.725406			
41189	10.921614	-0.778472	-3.225672	-2.488127	1.993815	1.147301	-84.208740	-87.449327	-130.606172			
41190	10.614371	-0.724334	-3.063457	-2.438522	2.108335	0.778684	-54.394487	-87.760504	-161.042829			
41191	10.514607	-1.844405	-3.361359	-2.082344	3.437564	0.632360	-25.611621	-87.362925	169.574588			
41192	10.188973	-1.842305	-3.729413	-2.415195	3.881693	0.197895	-7.037040	-86.532737	150.635213			
41193	10.304487	-0.726471	-3.266507	-2.767758	2.945034	0.239225	3.381066	-85.424282	139.790076			
41194	9.959027	-0.743651	-3.230481	-2.767745	3.157328	-0.193106	9.015575	-84.170327	133.513804			
41195	9.374690	-0.756902	-3.446172	-2.940325	3.490187	-0.896331	12.248207	-82.860724	129.513227			
41196	8.943297	-0.885588	-3.640465	-3.016905	3.889471	-1.458928	14.300419	-81.578412	126.740787			
41197	8.295079	-0.800436	-3.129330	-2.650067	3.623719	-2.126061	15.693024	-80.397533	124.716731			
41198	8.276033	-0.602039	-2.712707	-2.484625	3.377800	-2.155782	16.576516	-79.278716	123.184056			
41199	7.738024	-0.887137	-2.639669	-2.207459	3.616275	-2.764319	17.218701	-78.280380	121.842352			
41200	7.548432	-1.178487	-2.413283	-1.829288	3.787078	-2.993466	17.835958	-77.390905	120.568687			
41201	7.188615	-0.676920	-2.176174	-1.946935	3.311870	-3.323485	18.248037	-76.535212	119.438379			
41202	6.571988	-1.389503	-2.442638	-1.576352	3.985944	-4.093028	18.469437	-75.724043	118.453766			
41203	6.087633	-1.272362	-2.519052	-1.637222	3.934712	-4.629975	18.741900	-74.963167	117.566385			
41204	5.765716	-1.465074	-2.519822	-1.448045	4.074223	-5.012414	19.081719	-74.255534	116.702119			
41205	5.480657	-1.880944	-2.393998	-1.017535	4.278069	-5.344015	19.601678	-73.602985	115.866065			
41206	5.363949	-1.774688	-1.919460	-0.739614	3.910739	-5.366956	20.386053	-73.018377	115.002035			
41207	5.242664	-1.701457	-1.716898	-0.632456	3.739865	-5.460521	21.291759	-72.501715	114.128880			
41208	5.170987	-1.824504	-1.682403	-0.508749	3.824066	-5.568175	22.243034	-72.068276	113.253608			
41209	5.045679	-1.783781	-1.502810	-0.392864	3.675968	-5.661547	23.313347	-71.736608	112.366933			
41210	5.020757	-1.437541	-1.020759	-0.290991	3.139610	-5.526132	24.338261	-71.481796	111.499103			
41211	5.026474	-1.161323	-0.684921	-0.238776	2.752992	-5.402792	25.263244	-71.301714	110.644494			
41212	5.093140	-1.130942	-0.514449	-0.129959	2.658487	-5.296133	26.052971	-71.204526	109.787426			
41213	5.503621	-0.867497	-0.219175	-0.131104	2.420325	-4.791212	26.801838	-71.151867	108.966057			
41214	5.787662	-0.084884	0.661581	-0.072077	1.400448	-4.158006	27.555013	-71.129833	108.178136			
41215	6.432453	0.845373	1.834780	0.052139	0.195813	-3.073517	28.131540	-71.146209	107.383214			
41216	7.581099	-0.093629	1.839913	0.630852	1.196843	-2.129155	28.430959	-71.135630	106.736971			
41217	8.768775	0.094830	3.267440	1.402153	0.499882	-0.573608	28.984310	-71.110451	106.185079			
41218	10.135476	1.631428	6.278494	2.288405	-2.101942	1.812885	29.158244	-70.989676	105.621982			
41219	11.244055	0.508648	5.689834	2.589985	-0.575274	2.517057	29.593029	-70.748301	104.834208			
41220	11.610374	3.097021	8.222820	2.468732	-3.805560	4.023080	30.593626	-70.296592	103.991208			
41221	10.933102	4.229530	7.865573	1.508835	-4.428500	3.506447	31.448562	-69.836434	103.108682			
41222	10.315632	4.310818	7.510434	1.302642	-4.345280	2.868891	32.371501	-69.452864	102.409744			
41223	10.437335	5.456637	9.136624	1.651945	-6.051974	3.708951	32.892809	-69.178069	102.065358			
41224	9.622097	5.185880	9.858067	2.407919	-6.571705	3.136210	32.705923	-68.993247	102.067105			
41225	9.042245	3.626533	9.634727	3.361333	-5.570442	2.246050	32.246364	-68.887082	102.228289			
41226	9.225480	2.389124	8.927025	3.681740	-4.227306	1.980671	31.573442	-68.824222	102.514334			
41227	9.307410	1.038419	6.928613	3.219484	-2.006938	1.201783	30.823238	-68.808951	102.833186			
41228	10.378708	0.454352	4.706204	2.009957	0.204443	1.411862	30.383385	-68.898542	102.979362			
41229	9.967873	-0.945289	1.228096	0.726188	3.266944	-0.296398	30.301005	-69.169549	102.780111			
41230	10.264622	-1.721267	-1.412285	-0.462888	5.606643	-0.943045	30.838163	-69.571378	102.262526			
41231	10.893599	-2.901537	-1.542065	0.310834	6.615666	-0.560498	31.734438	-70.098452	101.719326			
41232	13.213001	-5.032685	-0.344098	2.545469	7.891505	1.644762	32.630353	-70.808605	101.410649			
41233	11.265120	-5.155814	1.733968	4.194575	5.859125	0.413143	32.961092	-71.401605	101.463831			
41234	8.451702	-3.001441	4.210232	4.547592	1.789047	-1.193871	33.087148	-71.967970	101.274339			
41235	10.941932	0.500750	6.915646	3.770396	-1.727010	2.459376	33.388805	-72.348285	100.734357			
41236	17.420646	6.530070	6.861296	-0.883103	-3.864580	9.616165	34.938236	-72.501543	99.570954			
41237	20.847231	9.062912	7.706875	-2.158653	-5.179827	13.525010	35.280471	-72.687778	99.378961			
41238	15.186195	0.214737	3.874933	1.697048	1.578701	5.688932	31.458740	-73.191687	101.359511			
41239	8.394847	-8.852111	0.385439	6.434378	7.717862	-2.885280	26.930648	-73.993584	102.963644			
41240	4.375812	-17.100967	-13.774532	4.448883	21.907129	-11.073409	28.324049	-74.459217	100.239099			
41241	0.232576	-11.894585	-12.928698	0.949330	17.016302	-14.076145	35.041589	-75.327467	95.925546			
41242	2.661585	-3.577608	-9.002916	-3.501607	9.408288	-9.461423	45.102863	-76.531264	89.430523			
41243	6.228459	1.387149	-6.961065	-5.891044	5.087743	-4.469373	58.456712	-77.427067	80.132083			
41244	17.482619	14.559607	-6.514337	-13.286474	-3.233911	9.496200	70.126660	-77.242920	73.136670			
41245	11.408417	23.985917	7.457564	-7.357647	-20.714093	6.857013	69.767238	-77.224659	74.113085			
41246	6.531305	7.763045	-3.722765	-7.177933	-2.511150	-2.134640	71.673664	-78.203128	70.584995			
41247	10.706480	2.910239	-6.085954	-5.802156	3.424640	0.898964	75.792136	-79.443954	65.465512			
41248	12.369508	-0.564043	-3.319066	-1.281689	4.461998	2.136506	77.565211	-80.430535	62.739047			
41249	10.193837	-2.698759	-1.741693	1.155170	4.592695	-0.231349	77.699712	-81.162954	61.577013			
41250	8.100461	-3.216625	-1.721000	1.385542	4.570698	-2.321767	79.225444	-81.742750	59.456821			
41251	7.795067	-2.233972	-1.937541	0.597335	3.852854	-2.443463	84.611744	-82.109311	54.294068			
41252	9.101551	-0.096514	-1.961041	-0.632335	2.299346	-0.812501	94.144504	-82.163037	45.903601			
41253	10.497370	4.146635	-3.108742	-3.926212	-0.246667	1.213164	103.225662	-81.987624	38.156082			
41254	9.618722	5.388966	-0.833982	-2.893140	-2.882956	0.462204	107.240031	-82.126651	34.438187			
41255	7.383406	2.589353	0.518178	-0.326397	-1.832857	-2.195571	114.954645	-82.284989	26.434095			
41256	8.634456	1.140150	-1.673780	-0.917410	0.579804	-1.010784	125.760223	-82.190872	15.073336			
41257	9.571784	-1.109459	-4.677092	-1.596894	4.072407	-0.035853	134.112909	-82.008350	6.155535			
41258	8.667557	-2.025288	-2.376098	0.697418	3.152723	-1.184432	139.170325	-81.690995	1.043754			
41259	8.878626	-1.194081	-0.111409	1.998716	0.957369	-1.131952	144.572431	-81.028647	-3.824080			
41260	9.510004	-0.176045	-0.666563	1.143229	0.390188	-0.354709	149.636121	-80.144132	-8.104615			
41261	9.989346	0.961473	-1.473332	0.022058	-0.153919	0.329069	153.607793	-79.398131	-11.383802			
41262	9.785461	1.098641	-0.869268	0.462732	-0.764120	0.031999	157.309713	-78.821527	-14.720030			
41263	9.481942	0.195401	-0.895643	0.990709	-0.153334	-0.339532	161.014891	-78.272279	-18.273466			
41264	9.355262	-0.617856	-1.807361	0.792074	0.915415	-0.341556	164.177853	-77.746800	-21.165067			
41265	9.510966	0.006589	-1.606015	0.653701	0.156802	-0.190609	166.960135	-77.164070	-23.327352			
41266	9.913717	1.306506	-1.173429	0.377032	-1.307737	0.162849	169.411871	-76.510192	-24.906634			
41267	10.156419	2.526318	-0.869379	0.057736	-2.624764	0.355702	171.294456	-75.890843	-25.943944			
41268	10.199322	3.025649	-0.434850	0.228186	-3.394629	0.276538	172.908670	-75.312363	-26.950186			
41269	10.384228	2.265770	-0.736538	0.532281	-2.728357	0.472236	174.481128	-74.745766	-28.202716			
41270	10.239992	1.066934	-1.177916	0.857333	-1.571374	0.394090	175.847046	-74.372944	-29.379653			
41271	9.488601	-0.285578	-1.576708	1.135875	-0.210247	-0.259355	176.959134	-73.991499	-30.369569			
41272	8.963876	-1.392923	-1.843378	1.432698	0.855473	-0.707504	178.193597	-73.581575	-31.359617			
41273	8.810704	-1.621698	-1.106832	2.138109	0.614810	-1.064338	179.134522	-73.180047	-32.046949			
41274	8.892109	-1.210498	-0.553791	2.411359	-0.089657	-1.151366	-179.934045	-72.727354	-32.628377			
41275	9.220627	-0.689254	-1.376098	1.587013	-0.223617	-0.602935	-178.872571	-72.269506	-33.187398			
41276	9.015627	-0.171963	-1.722457	1.012140	-0.526293	-0.703572	-177.653262	-71.845281	-33.778266			
41277	8.797421	-0.281175	-1.682247	1.074057	-0.496403	-0.929955	-176.254264	-71.368537	-34.404264			
41278	8.912085	-0.294498	-1.620045	1.194152	-0.621062	-0.850317	-174.879098	-70.853232	-34.901729			
41279	8.782177	-0.184028	-1.566746	1.185536	-0.799921	-1.005352	-173.696690	-70.340809	-35.262956			
41280	8.425440	0.227422	-2.130788	0.462514	-0.915001	-1.179719	-172.710967	-69.816774	-35.509418			
41281	8.362595	0.740460	-3.039014	-0.506105	-1.044041	-0.960022	-171.798024	-69.255837	-35.666782			
41282	8.497560	1.878372	-2.876573	-0.802423	-2.237470	-0.960557	-171.089318	-68.711397	-35.688652			
41283	8.944992	3.031148	-2.147779	-0.520161	-3.730612	-0.889408	-170.683212	-68.259859	-35.701051			
41284	8.784842	3.507813	-2.542150	-1.058459	-4.021464	-0.944332	-170.239070	-67.883360	-35.911676			
41285	9.019516	3.142760	-2.480611	-0.727196	-3.835763	-0.749598	-169.652402	-67.491685	-36.283238			
41286	9.758110	2.136652	-2.897162	-0.358258	-3.015787	0.134952	-168.990512	-67.078406	-36.771196			
41287	10.241750	0.496070	-2.914103	0.536974	-1.741123	0.690219	-168.107005	-66.758001	-37.410715			
41288	9.959452	-0.540618	-2.360247	1.383882	-1.042090	0.289397	-167.144776	-66.453807	-38.013277			
41289	9.830884	-0.946561	-1.810281	1.992227	-0.932303	-0.015713	-166.173538	-66.115319	-38.584123			
41290	10.324651	-0.854694	-0.560843	3.176134	-1.670413	-0.077961	-165.345765	-65.757387	-39.079270			
41291	10.855071	-0.928130	0.152723	3.996620	-2.062950	0.111436	-164.572599	-65.443103	-39.539677			
41292	10.798870	-0.821849	0.217970	4.002020	-2.220970	0.005125	-163.794469	-65.182664	-39.923845			
41293	10.807131	-0.292192	-0.009285	3.597627	-2.668089	0.026913	-162.959838	-64.968926	-40.293622			
41294	10.884751	0.510160	-1.535758	1.985460	-2.946066	0.602447	-161.988824	-64.904846	-40.766415			
41295	11.145021	2.247447	-1.344065	1.495197	-4.692219	0.522510	-161.087407	-64.995557	-41.311397			
41296	12.338438	2.785790	-1.714228	1.300920	-5.436121	1.663028	-160.112311	-65.030009	-41.999472			
41297	13.726241	3.154994	-1.734231	1.522595	-6.208347	2.856521	-159.108804	-65.109813	-42.721591			
41298	14.646210	3.815459	-0.189515	2.824400	-7.593481	2.972717	-158.321847	-65.239177	-43.332163			
41299	15.081292	3.699566	0.908991	3.888032	-7.972489	2.965440	-157.794537	-65.450412	-43.871950			
41300	14.770022	3.078297	2.130117	5.020830	-7.694241	2.342804	-157.275971	-65.798434	-44.338315			
41301	14.792567	3.326569	3.980787	6.457379	-8.471901	1.687774	-156.850814	-66.255784	-44.710089			
41302	15.306029	3.757017	6.199246	8.279351	-9.660142	1.365513	-156.721734	-66.781318	-44.992865			
41303	16.816962	2.919928	9.971057	12.150973	-10.510222	1.704095	-156.554589	-67.685782	-45.819302			
41304	14.862249	1.064684	9.257131	11.431112	-8.138747	0.712652	-156.097365	-68.994542	-47.629048			
41305	12.584702	-1.322093	2.676999	5.788740	-3.118965	1.324745	-155.388140	-70.272031	-50.081387			
41306	11.570839	-4.189126	0.230403	4.449270	0.655023	1.643960	-153.523613	-71.563879	-52.499944			
41307	13.480746	1.353151	-0.449653	1.431091	-4.317336	2.957018	-150.668575	-72.992512	-54.893530			
41308	13.686833	1.806216	-4.366962	-2.511865	-3.032165	4.120952	-148.025384	-74.443665	-57.268635			
41309	14.373187	0.495331	-6.130860	-3.746884	-1.132340	5.322930	-145.209806	-75.866731	-59.378988			
41310	15.123456	1.192004	-6.546111	-4.652002	-1.575680	5.962497	-142.493415	-77.249873	-61.085490			
41311	14.595989	1.304653	-7.267072	-5.697399	-1.121107	5.478779	-140.330109	-78.608290	-62.450324			
41312	13.783596	-0.068075	-7.192205	-5.401826	0.443267	4.759050	-138.913969	-79.907304	-63.310148			
41313	13.793103	-0.717063	-5.586378	-3.869089	0.671400	4.558934	-138.076542	-81.144511	-63.753948			
41314	13.891236	-0.184566	-3.606870	-2.401204	-0.304248	4.334526	-137.139686	-82.399613	-64.628180			
41315	13.403673	0.853599	-3.032997	-2.457961	-1.139672	3.686806	-135.521957	-83.743073	-66.612560			
41316	12.720215	2.263881	-3.753839	-3.876558	-1.796108	2.944831	-132.792283	-85.167862	-70.175121			
41317	12.395295	3.125259	-3.491698	-4.205943	-2.320337	2.536929	-124.828803	-86.592636	-79.360525			
41318	11.783625	1.775046	-3.429739	-3.832191	-0.734544	1.957152	-105.979077	-87.782078	-99.659941			
41319	11.566079	0.756989	-4.311594	-4.368075	0.908751	1.720714	-64.340310	-88.397542	-142.504940			
41320	11.775741	1.743725	-4.074353	-4.763503	0.248775	1.829673	-21.706139	-87.897837	173.786001			
41321	11.513574	1.527390	-4.492083	-5.185527	0.987360	1.465368	-2.473349	-86.591314	153.136026			
41322	11.121013	0.657875	-5.336551	-5.612553	2.538327	0.893756	5.402695	-85.067018	143.592714			
41323	10.820376	-0.445710	-5.163905	-4.968127	3.759482	0.439927	8.597367	-83.537760	138.835797			
41324	10.760724	-0.175730	-4.634686	-4.734959	3.593333	0.284850	10.580760	-82.023517	135.282073			
41325	9.629216	-1.240884	-5.099868	-4.447480	4.929971	-1.084731	11.861035	-80.628760	132.744252			
41326	9.274593	0.211775	-4.184728	-4.546037	3.454223	-1.388369	12.601915	-79.227817	130.744264			
41327	7.625717	-0.477281	-3.935957	-3.758590	3.871048	-3.122871	12.541884	-77.857717	129.274639			
41328	7.070999	-0.851585	-4.595429	-3.946890	4.679389	-3.950718	12.318047	-76.572513	128.077280			
41329	6.585236	-1.033326	-3.983473	-3.272626	4.530356	-4.421617	12.066083	-75.353140	127.077630			
41330	6.332996	-0.849730	-3.426609	-2.921285	4.136630	-4.623978	11.839634	-74.300675	126.139781			
41331	6.746129	-1.147707	-3.414540	-2.748642	4.565667	-4.327769	11.612032	-73.398294	125.216125			
41332	6.845774	-1.452943	-2.802907	-2.087015	4.521774	-4.153308	11.592926	-72.623354	124.217328			
41333	6.961401	-1.409205	-3.034536	-2.258151	4.770121	-4.173466	11.681452	-71.921690	123.191616			
41334	6.560308	-1.223511	-2.776221	-2.105924	4.453095	-4.523442	11.779411	-71.297993	122.211482			
41335	5.982123	-2.433399	-3.382674	-1.485010	5.606673	-5.395808	11.955510	-70.730921	121.255300			
41336	5.276160	-3.358713	-3.478002	-0.696200	6.147303	-6.215374	12.441705	-70.176619	120.313036			
41337	4.736497	-3.555367	-2.987263	-0.108885	5.821869	-6.635842	13.200949	-69.646424	119.402319			
41338	4.288577	-3.334487	-2.617526	0.053155	5.318123	-6.970759	14.151886	-69.148614	118.509090			
41339	3.968035	-2.452281	-1.826782	-0.032460	4.122976	-6.967348	15.084725	-68.729618	117.648074			
41340	4.099412	-2.389161	-2.128820	-0.288975	4.351295	-6.979362	15.919008	-68.413036	116.792336			
41341	4.125363	-1.533000	-1.684004	-0.630271	3.513249	-6.736268	16.798813	-68.201984	115.978554			
41342	4.438710	-1.170581	-1.184138	-0.611315	3.059118	-6.243007	17.434354	-68.068244	115.212457			
41343	4.660537	-1.425714	-0.977089	-0.301221	3.174842	-5.999872	17.869076	-68.020474	114.543144			
41344	5.107094	-1.524454	-0.488966	0.042892	3.066764	-5.426514	18.285179	-68.072269	113.907171			
41345	5.478659	-0.977879	0.535298	0.259457	2.144039	-4.655727	18.800519	-68.147418	113.368495			
41346	6.415130	-0.696874	1.344900	0.454698	1.723400	-3.466716	18.927168	-68.305017	112.819360			
41347	7.564883	-0.815875	2.389682	1.076882	1.452410	-2.045168	19.178398	-68.541996	112.240884			
41348	9.425984	-0.590638	4.495501	2.024121	0.451006	0.439475	19.503211	-68.767734	111.634456			
41349	10.992060	-0.017958	6.337057	2.588515	-0.690258	2.589205	20.028107	-68.879771	111.045283			
41350	12.835946	0.843631	7.956565	2.767681	-1.738218	4.955469	20.638553	-68.855246	110.394769			
41351	13.052244	1.484916	7.676433	2.123248	-1.833674	5.141328	21.408587	-68.681635	109.608784			
41352	11.551289	2.406744	7.551776	1.581762	-2.769255	3.828512	22.423165	-68.434028	108.681992			
41353	9.607635	4.062476	7.470312	0.573418	-4.361750	2.239750	23.660100	-68.267815	107.633046			
41354	8.108474	4.760548	6.859616	-0.084862	-4.860249	0.762484	25.002005	-68.202648	106.597942			
41355	7.751547	5.305356	7.695510	0.191018	-5.879507	0.810300	26.307861	-68.260727	105.676465			
41356	8.037202	4.827629	8.350092	1.040210	-5.917213	1.211415	27.051817	-68.407969	105.047242			
41357	8.297249	2.954895	7.017116	1.590219	-3.746179	0.687445	27.330129	-68.654154	104.621620			
41358	8.511577	1.927669	5.474977	1.350385	-2.006471	0.201729	27.436488	-68.933846	104.306030			
41359	8.891708	0.958280	3.631880	0.864106	-0.042850	-0.199026	27.585963	-69.280850	103.889284			
41360	10.024063	0.073832	1.095841	-0.168794	2.595662	-0.069928	28.003263	-69.806011	103.274767			
41361	12.634204	-1.175439	-0.696636	-0.541854	5.418403	1.669296	28.247728	-70.392757	103.091276			
41362	11.935185	-2.609923	-2.405993	-0.488050	7.155329	0.366137	28.271826	-71.383769	103.326079			
41363	12.593256	-5.694895	-3.997859	0.772348	10.228965	0.275117	28.484150	-73.019570	103.339196			
41364	14.876283	-7.589696	-0.594224	4.331465	9.433965	3.282802	28.823984	-74.169638	103.112738			
41365	15.452234	-2.067564	10.204256	7.319611	-1.753802	7.231945	28.630533	-73.883449	103.569222			
41366	14.125912	11.741143	18.898642	2.958669	-17.166410	9.963837	29.969050	-73.644897	102.506279			
41367	17.949902	16.045526	9.748477	-6.420519	-12.488887	12.038923	31.973042	-74.160409	100.094838			
41368	17.275294	7.571122	3.759409	-4.172314	-3.008028	8.718896	28.339714	-74.876504	101.163867			
41369	14.203054	-4.337582	-1.254262	1.949561	6.997379	3.199608	20.921268	-76.132233	103.962134			
41370	9.119725	-19.588112	-15.321588	7.755980	25.030192	-5.979207	15.681302	-75.805003	105.072552			
41371	-2.399366	-21.073209	-11.205023	12.543621	19.400827	-16.266137	19.621923	-76.189515	101.624478			
41372	-0.146976	-5.467891	-7.432295	0.629358	8.940315	-12.006081	26.977920	-77.383852	97.194904			
41373	2.246462	0.180766	-4.699919	-2.900615	4.098532	-8.416152	37.930437	-78.694105	88.976614			
41374	11.613482	5.098554	-8.854936	-9.265542	5.812732	1.121285	54.288153	-79.474333	76.591002			
41375	19.887295	23.179740	-1.127029	-16.761409	-11.150569	13.177051	59.690586	-79.469897	75.441991			
41376	7.315521	17.903902	1.452321	-11.404256	-12.018723	0.269318	58.993100	-79.944454	74.361984			
41377	8.634981	2.986102	-4.337001	-4.692814	2.545939	-1.222936	61.603470	-81.230657	69.660256			
41378	13.666268	-1.478095	-4.169951	-0.893903	5.857127	3.272535	63.441457	-82.844433	66.362667			
41379	11.246168	-5.868729	-3.618671	2.780337	7.688068	0.539730	58.403628	-83.556166	69.555846			
41380	7.071913	-5.595199	-2.120276	3.412153	5.772224	-3.421220	54.570052	-83.886235	72.008261			
41381	6.195370	-4.853490	-1.168284	3.408404	4.393070	-4.121744	58.541575	-84.532787	67.963491			
41382	8.062202	-2.244794	-1.030432	1.511787	2.803851	-2.005567	73.829789	-85.057490	53.903668			
41383	10.065354	0.648017	-1.214009	-0.650977	1.157706	0.258769	93.142876	-84.926070	36.562577			
41384	11.414484	6.238240	-3.109462	-5.875991	-1.098310	2.151176	102.099514	-84.680034	28.889902			
41385	9.139995	3.983025	3.294820	-0.075766	-4.724775	-0.435598	107.804687	-84.742783	23.238361			
41386	8.105459	2.015176	1.532208	0.188900	-2.259040	-1.629413	119.885340	-84.653716	10.464771			
41387	9.369782	0.096951	-1.881853	-0.388837	1.426723	-0.370621	133.630883	-84.358845	-4.029891			
41388	9.436901	-2.223178	-3.561060	0.394607	4.027833	-0.310179	141.437734	-84.180970	-12.270133			
41389	9.211672	-2.119764	-0.558997	2.210637	1.537797	-0.734772	145.304680	-83.932288	-16.167310			
41390	9.284157	-1.320349	0.429321	2.254778	0.189011	-0.702104	149.723881	-83.457847	-20.118778			
41391	9.596714	-0.552637	-0.354277	1.258935	0.198916	-0.278423	153.892068	-82.824600	-23.505525			
41392	10.289739	0.593193	-0.708298	0.308203	-0.410536	0.505623	156.877285	-82.270512	-25.598236			
41393	9.944882	1.496987	-0.518496	-0.224149	-1.225452	0.180189	159.387819	-81.849342	-27.284429			
41394	9.272223	2.061703	-0.902879	-0.930203	-1.371595	-0.416284	162.052430	-81.430423	-29.315667			
41395	9.419242	2.049491	-1.518385	-1.274168	-1.033673	-0.193187	165.156928	-80.957159	-31.972509			
41396	10.236236	2.254202	-1.807453	-1.475851	-1.144659	0.658198	167.530910	-80.526666	-34.166650			
41397	10.459584	2.475199	-1.812393	-1.593863	-1.388805	0.880532	168.817803	-80.324189	-35.804923			
41398	9.362240	0.287507	-0.968626	0.409738	-0.470839	-0.416844	172.231510	-79.994317	-39.041228			
41399	8.366010	-1.106217	-2.068074	0.553978	1.280805	-1.236993	174.429975	-79.375107	-40.739021			
41400	8.593874	-0.414402	-2.831611	-0.393787	1.220752	-0.846188	175.276508	-78.674873	-40.885823			
41401	8.861490	0.675475	-1.664235	-0.275625	-0.496241	-0.788912	176.502993	-77.990088	-41.461883			
41402	9.026357	0.673392	-0.784869	0.415109	-1.228394	-0.820345	177.828795	-77.327308	-42.617565			
41403	9.384378	-0.522816	-2.004089	0.514379	0.297019	-0.220909	179.445729	-76.696338	-44.303443			
41404	8.867439	-1.699185	-2.301238	1.082853	1.311179	-0.651803	-179.159854	-76.161804	-45.625812			
41405	8.858616	-1.199560	-2.058615	0.920439	0.693841	-0.712006	-177.815238	-75.543911	-46.483520			
41406	9.228219	-0.192034	-1.690707	0.568767	-0.453678	-0.457228	-176.292093	-74.798685	-47.166409			
41407	9.937296	0.839034	-1.515516	0.161768	-1.582738	0.148110	-174.980112	-74.050179	-47.611178			
41408	10.237833	1.694799	-0.754753	0.246124	-2.894509	0.178038	-173.821649	-73.357005	-48.051329			
41409	10.104488	1.899303	-0.880273	0.062169	-3.059253	0.042180	-172.833993	-72.692949	-48.524299			
41410	9.898744	1.681757	-0.955366	0.170592	-2.916331	-0.159150	-171.948107	-72.070898	-49.019134			
41411	9.317733	1.316876	-0.710986	0.520326	-2.758324	-0.802705	-171.243969	-71.480921	-49.451002			
41412	8.486017	0.951206	-1.140763	0.320117	-2.103749	-1.464653	-170.659643	-70.917703	-49.798145			
41413	8.110221	0.881418	-1.718431	-0.094904	-1.684145	-1.648153	-170.148618	-70.364074	-50.153731			
41414	8.885181	0.841857	-2.188255	-0.210855	-1.645275	-0.774341	-169.708802	-69.888422	-50.597324			
41415	9.632357	0.830862	-1.944799	0.156160	-2.049621	-0.167524	-169.274095	-69.533815	-51.176670			
41416	9.366301	0.206622	-2.385151	0.193083	-1.305823	-0.235818	-168.602995	-69.248791	-51.947945			
41417	8.871351	-0.495336	-2.956417	0.128250	-0.366063	-0.456634	-167.712785	-68.934590	-52.727090			
41418	8.559065	-0.523798	-2.682078	0.268458	-0.495230	-0.845657	-166.699870	-68.556030	-53.342177			
41419	8.846756	0.128530	-1.720320	0.602631	-1.718238	-0.985172	-165.663087	-68.139861	-53.768864			
41420	9.626607	0.526457	-1.247748	0.876959	-2.608721	-0.489036	-164.775368	-67.704477	-54.073422			
41421	10.017811	0.241175	-1.327125	1.107806	-2.542200	-0.092324	-164.097072	-67.325521	-54.326625			
41422	10.273451	-0.454813	-1.661129	1.375798	-1.967382	0.323695	-163.557346	-66.996701	-54.505215			
41423	10.379984	-0.975842	-2.125600	1.392327	-1.401190	0.642567	-163.000158	-66.727876	-54.674858			
41424	10.510914	-1.142853	-2.488860	1.251165	-1.166363	0.913627	-162.336800	-66.548551	-54.887390			
41425	11.103858	-0.977012	-2.050356	1.591568	-1.767884	1.268624	-161.547348	-66.469536	-55.283388			
41426	11.219401	-0.961619	-0.958003	2.402775	-2.439412	0.957327	-160.688582	-66.381762	-55.761593			
41427	11.367554	-0.324004	-0.300774	2.523912	-3.372118	0.754965	-159.898729	-66.248729	-56.149473			
41428	12.257064	0.378027	-0.000109	2.514957	-4.416753	1.347314	-158.985567	-66.125083	-56.546457			
41429	13.006291	1.149514	0.004270	2.212027	-5.323591	1.902734	-157.959015	-66.012208	-56.976108			
41430	13.903952	1.275453	-0.082226	2.258267	-5.737646	2.714592	-156.838894	-65.872306	-57.437827			
41431	14.774370	1.887786	0.945145	2.889671	-7.075706	3.006172	-155.843853	-65.853267	-57.786711			
41432	13.807806	2.439147	1.416162	2.723426	-7.423362	1.852949	-154.895016	-65.978610	-58.172839			
41433	14.209849	3.044344	2.359936	3.202377	-8.492293	1.779672	-154.047098	-66.159132	-58.527940			
41434	15.723404	3.505319	3.982991	4.538624	-10.126621	2.525419	-153.279589	-66.447795	-58.961956			
41435	16.279431	4.284023	5.531378	5.401168	-11.627912	2.417844	-152.684088	-66.928915	-59.538110			
41436	15.677456	3.926542	7.456513	6.882267	-11.974895	1.413550	-151.996583	-67.798777	-60.558118			
41437	13.602677	2.032083	6.222053	6.288393	-9.079783	0.476902	-151.036468	-69.126256	-62.327017			
41438	11.072950	-0.571860	0.626075	2.550689	-3.274476	0.487526	-149.825377	-70.451521	-64.293826			
41439	11.836125	-1.068719	0.175673	2.361212	-2.711786	1.515610	-148.006240	-71.765873	-66.174663			
41440	12.897305	1.049695	-1.612080	-0.396740	-3.578521	2.720013	-145.635016	-73.204460	-68.027200			
41441	13.239098	1.581149	-4.218474	-3.036491	-2.502896	3.606497	-143.332914	-74.720045	-69.697040			
41442	14.234361	0.315851	-5.277496	-3.368094	-0.896448	4.965981	-141.292482	-76.231617	-71.071897			
41443	14.593214	-0.455166	-6.265254	-3.992678	0.461014	5.557939	-139.422240	-77.717530	-72.218186			
41444	14.454060	-1.221886	-6.467038	-3.990730	1.531370	5.482821	-137.815548	-79.149942	-73.242835			
41445	14.290994	-1.197838	-5.934332	-3.751421	1.573997	5.164711	-136.299755	-80.516916	-74.388116			
41446	14.373070	-0.995121	-4.204922	-2.535960	0.826902	4.956595	-134.466802	-81.842727	-76.146260			
41447	13.383534	-0.252424	-3.323982	-2.343101	0.186854	3.777670	-131.857443	-83.114755	-79.040474			
41448	12.619856	0.489994	-4.191334	-3.622733	0.389472	2.985051	-127.969293	-84.392522	-83.739048			
41449	11.666193	0.696064	-3.779118	-3.529461	0.412899	1.944362	-119.654868	-85.611147	-93.238009			
41450	10.947309	-0.344937	-3.018721	-2.464154	1.240145	1.207998	-102.884174	-86.679323	-111.398018			
41451	10.833730	-0.419902	-2.068362	-1.759198	1.078975	1.029648	-75.711591	-87.347580	-140.163847			
41452	10.611758	-1.368195	-1.769435	-1.058072	1.963270	0.800106	-44.276927	-87.126464	-173.046333			
41453	10.648073	-1.311747	-2.705524	-1.920952	2.761665	0.727587	-22.704550	-86.268061	164.049678			
41454	10.331684	-1.740485	-3.640965	-2.421105	3.946065	0.266480	-11.409964	-85.154404	151.655032			
41455	10.694456	-1.668591	-3.503876	-2.443900	4.084596	0.520190	-3.964113	-83.850049	143.317917			
41456	10.637092	-2.370990	-4.066580	-2.456220	5.239475	0.277627	0.757234	-82.599962	137.865095			
41457	10.613075	-1.961922	-4.270685	-2.924519	5.314174	0.082997	4.449810	-81.254543	133.720698			
41458	9.831943	-2.059025	-4.208393	-2.780345	5.499256	-0.832781	6.853533	-79.896420	130.736531			
41459	8.812806	-2.089535	-4.068931	-2.571952	5.504701	-1.959890	8.545542	-78.591102	128.467721			
41460	8.156062	-1.538239	-3.601577	-2.549734	4.873064	-2.628874	9.541325	-77.322110	126.751921			
41461	7.349694	-1.646996	-3.329370	-2.183793	4.791084	-3.481118	10.016469	-76.041388	125.445776			
41462	6.721153	-1.598115	-2.830608	-1.786149	4.434481	-4.078305	10.497624	-74.861891	124.275397			
41463	6.380773	-1.108326	-1.893681	-1.449291	3.498308	-4.228010	10.910831	-73.777778	123.201530			
41464	5.984319	-1.026757	-1.765152	-1.365087	3.364012	-4.635722	11.248595	-72.808583	122.200821			
41465	5.859169	-1.369259	-2.421559	-1.525457	4.105711	-5.028977	11.640771	-71.955340	121.259897			
41466	5.504530	-1.393124	-2.424286	-1.443366	4.102702	-5.430713	12.124846	-71.197126	120.429418			
41467	5.111518	-1.618363	-2.475555	-1.237575	4.235876	-5.888348	12.695563	-70.579781	119.638555			
41468	5.023996	-1.427776	-2.821366	-1.582804	4.367857	-6.117363	13.359062	-70.030933	118.910199			
41469	4.674817	-1.239379	-2.679602	-1.571805	4.078008	-6.426051	14.057315	-69.558908	118.213397			
41470	4.707988	-1.488235	-2.532763	-1.293427	4.181281	-6.401137	14.744396	-69.185340	117.538566			
41471	5.140929	-1.315440	-2.530522	-1.491556	4.228399	-6.010208	15.627924	-68.855776	116.875837			
41472	5.344630	-0.828941	-2.385726	-1.795267	3.898423	-5.747822	16.520155	-68.580606	116.210767			
41473	5.581640	-0.401406	-2.330468	-2.109663	3.676861	-5.479459	17.341372	-68.413631	115.511476			
41474	5.417929	-1.094406	-2.819464	-1.875364	4.425511	-5.888546	18.070650	-68.335765	114.833663			
41475	5.351065	-1.520427	-2.501212	-1.329975	4.479920	-5.893105	18.902574	-68.336753	114.199888			
41476	5.088013	-0.983465	-1.561293	-1.060290	3.411080	-5.746605	19.528023	-68.372840	113.672361			
41477	4.674295	-1.059989	-1.716190	-1.028478	3.427179	-6.191284	19.888403	-68.478510	113.191032			
41478	4.573250	-1.080710	-0.858908	-0.416157	2.828747	-5.985778	20.344539	-68.672593	112.691172			
41479	4.996752	0.372905	1.069583	-0.258447	0.700568	-4.743872	20.876155	-69.035369	112.015914			
41480	6.255937	0.620352	2.235502	0.190185	0.131546	-3.144462	21.295494	-69.547653	111.200517			
41481	8.042523	0.370918	4.424212	1.632152	-0.686930	-0.798441	21.903120	-70.155025	110.248638			
41482	10.565979	0.401771	7.205993	3.204157	-1.923986	2.424848	22.800048	-70.767927	109.146241			
41483	13.342846	1.103484	9.353564	3.887147	-3.112190	5.741750	23.926992	-71.212842	107.936264			
41484	14.935183	1.056880	9.819348	4.215286	-2.956494	7.336197	25.521865	-71.360613	106.627360			
41485	14.406878	2.926543	10.996315	3.838780	-5.085608	7.404647	27.511543	-71.279951	105.322582			
41486	12.642532	4.976962	11.746050	3.194020	-7.394071	6.240193	29.288130	-71.226866	104.141356			
41487	11.343179	6.054976	11.663165	2.629876	-8.402217	5.148750	30.584703	-71.266644	103.152802			
41488	10.419205	5.327142	12.200262	3.707994	-8.545172	4.294574	31.431352	-71.260764	102.491286			
41489	10.232737	3.700679	11.988536	4.811910	-7.341980	3.791340	31.757308	-71.115783	102.230422			
41490	9.253899	1.792023	8.917060	4.174264	-4.271040	1.706584	31.967970	-70.975938	101.993269			
41491	7.906509	1.128790	5.398779	2.355629	-1.874187	-0.654510	32.573328	-71.021253	101.336515			
41492	6.989767	1.219285	1.386284	-0.354487	0.466516	-2.607021	33.803661	-71.348248	100.053030			
41493	8.779262	0.217165	-1.895521	-1.902550	3.869201	-1.930821	35.311936	-71.999848	98.480259			
41494	11.737369	-1.674206	-2.971522	-1.316536	6.639062	0.364929	36.543559	-73.042186	97.366161			
41495	10.632216	-5.413720	-7.134035	-1.382851	11.478913	-2.095371	37.405241	-74.615936	96.704638			
41496	6.906467	-7.713634	-7.237288	0.331029	11.969360	-5.788261	39.334961	-75.967232	95.044105			
41497	12.013476	-3.175365	1.820879	3.320045	3.755105	1.702412	41.151997	-76.624380	93.787074			
41498	25.664194	9.728889	16.666454	4.675178	-11.875808	19.651166	42.465537	-75.483460	93.985635			
41499	23.886476	30.592899	13.613479	-11.990222	-24.212983	21.198441	41.200845	-74.346937	94.340888			
41500	14.050398	8.831228	7.027110	-2.078040	-7.015005	6.653598	32.979063	-74.495713	97.745162			
41501	12.695737	-9.195797	1.575534	7.655997	7.596712	1.668470	23.516276	-75.256542	102.040798			
41502	5.236705	-22.798884	-9.994180	13.091895	21.799105	-9.206068	21.609054	-75.979340	101.220548			
41503	4.809319	-13.788271	-11.383858	5.097118	17.775533	-8.877344	26.418047	-76.957126	97.781442			
41504	3.846909	-4.655607	-9.417070	-1.667517	10.961958	-8.329990	32.142272	-77.995775	93.875636			
41505	2.485249	-3.081502	-9.770821	-3.456270	9.946591	-9.319890	39.573708	-78.936317	88.764215			
41506	2.161453	1.349757	-6.114284	-4.910926	4.175181	-8.291008	52.045573	-80.015024	79.071166			
41507	12.093257	12.571592	-6.670389	-13.193355	-1.461661	3.321390	64.045979	-80.176373	69.699460			
41508	11.230563	18.150117	6.519073	-7.848548	-15.210673	4.508143	66.284924	-80.323035	67.162638			
41509	10.660839	5.517603	-3.323005	-5.552003	0.275477	1.333538	70.900406	-81.392735	60.915069			
41510	14.162176	-0.720365	-5.234743	-1.911316	6.038601	3.911696	74.640381	-82.994757	55.830424			
41511	10.798560	-5.566629	-3.625081	2.626762	7.339798	0.185390	69.963640	-83.898634	58.715730			
41512	7.858917	-5.757850	-1.903952	3.771773	5.692450	-2.608040	66.783142	-84.462019	60.152707			
41513	6.893573	-5.835634	-2.692444	3.389775	6.154189	-3.531061	72.391080	-85.079123	54.163928			
41514	8.191401	-2.696112	-2.173983	1.290524	3.834807	-1.893054	90.811816	-85.450279	37.047494			
41515	10.285935	1.138221	-2.134420	-1.459660	1.339657	0.565973	111.539926	-84.885739	18.271685			
41516	12.379340	8.187541	-3.820042	-7.571465	-2.025036	3.357136	116.048580	-84.374323	14.453113			
41517	7.821682	4.898839	2.825176	-1.145561	-5.164200	-1.739447	120.874376	-84.406109	9.265117			
41518	7.883540	2.319662	0.516643	-0.663608	-1.848239	-1.816491	133.701158	-84.090171	-4.476698			
41519	9.999322	-0.268333	-3.641708	-1.009687	2.787770	0.410974	146.742770	-83.578333	-18.532336			
41520	8.690269	-3.097303	-4.557139	0.579520	5.116330	-0.903892	153.624786	-83.350906	-26.201295			
41521	7.921642	-3.096498	-1.665566	2.295147	2.748842	-1.920290	157.223030	-82.902160	-30.236686			
41522	8.886312	-2.832906	-1.036783	2.615564	1.918662	-1.006847	161.134740	-82.078128	-33.872951			
41523	9.770178	-1.760284	-0.777337	2.086478	0.861135	-0.114123	164.820115	-81.071381	-36.688345			
41524	10.791463	-0.064747	-0.329031	1.243248	-0.782196	0.883468	167.639096	-80.128747	-38.561563			
41525	10.694918	0.926710	-0.296647	0.567473	-1.570864	0.795631	170.041528	-79.418950	-40.275746			
41526	9.806455	0.732734	-1.008571	0.192720	-0.929334	0.026958	172.450490	-78.875210	-42.232935			
41527	9.228300	0.105133	-1.519146	0.285939	-0.179672	-0.465746	174.728419	-78.339506	-43.964526			
41528	9.122954	0.710490	-1.282197	-0.010933	-0.849639	-0.611932	176.702205	-77.735531	-45.103867			
41529	9.377919	1.701888	-1.332274	-0.697180	-1.635935	-0.354752	178.414043	-77.051938	-45.830188			
41530	9.626657	2.354694	-1.949668	-1.481067	-1.810995	0.012946	179.732210	-76.401981	-46.265403			
41531	9.755776	2.487237	-2.153456	-1.631436	-1.912023	0.171295	-179.111191	-75.810704	-46.806684			
41532	9.770197	1.739630	-1.680063	-0.724080	-1.836901	0.056768	-178.117982	-75.265977	-47.496337			
41533	9.657015	0.428933	-1.376699	0.437198	-1.205416	-0.133211	-177.235104	-74.742848	-48.197694			
41534	9.505176	-0.199134	-1.359771	0.901070	-0.831836	-0.287325	-176.440629	-74.271624	-48.794847			
41535	9.069418	-0.550609	-1.193905	1.214923	-0.687577	-0.755450	-175.677750	-73.769308	-49.299308			
41536	8.979414	-0.549503	-1.834479	0.787007	-0.317268	-0.670673	-174.681926	-73.248040	-49.817961			
41537	9.154785	0.108285	-1.683076	0.483838	-1.012673	-0.571788	-173.663743	-72.740361	-50.319732			
41538	9.369957	0.603526	-2.069524	-0.069436	-1.248567	-0.279645	-172.678363	-72.320024	-50.956506			
41539	9.070624	0.278184	-2.330022	-0.075890	-0.853970	-0.482783	-171.691673	-71.979132	-51.720645			
41540	8.713691	-0.384283	-2.925562	-0.103602	0.018598	-0.613593	-170.619475	-71.591551	-52.456898			
41541	8.464646	-0.527824	-3.640210	-0.557747	0.555374	-0.617053	-169.526835	-71.147609	-53.063855			
41542	8.187600	-0.250194	-3.725378	-0.861861	0.384572	-0.863588	-168.608472	-70.670790	-53.514218			
41543	8.365729	-0.101119	-3.530762	-0.780096	0.013460	-0.765450	-167.867013	-70.168465	-53.956081			
41544	8.769436	-0.452465	-2.920391	-0.009862	-0.304827	-0.563754	-167.292679	-69.664109	-54.404532			
41545	9.007486	-0.519100	-2.330141	0.526629	-0.769165	-0.540995	-166.820480	-69.171608	-54.800526			
41546	9.335589	-0.465965	-1.980088	0.831223	-1.198336	-0.370043	-166.307564	-68.685169	-55.154830			
41547	9.588587	-0.241068	-1.547563	1.063004	-1.782495	-0.321311	-165.715295	-68.223931	-55.466930			
41548	9.593002	0.123009	-1.195812	1.093653	-2.341197	-0.496415	-165.066672	-67.775827	-55.713188			
41549	9.703962	0.590100	-0.731216	1.168341	-3.073747	-0.634659	-164.387997	-67.310623	-55.862361			
41550	10.005528	1.017556	-0.342169	1.271551	-3.791582	-0.578545	-163.705628	-66.832322	-55.946125			
41551	10.384067	1.010727	-0.378626	1.376651	-3.963784	-0.253069	-163.062273	-66.380021	-56.004699			
41552	10.567526	0.727680	-0.829711	1.308178	-3.626398	0.088217	-162.432022	-66.002788	-56.064172			
41553	10.659552	0.441468	-1.293424	1.195440	-3.246133	0.362138	-161.725584	-65.710797	-56.139396			
41554	10.638212	0.578309	-1.492657	0.970541	-3.291650	0.383235	-160.948765	-65.495098	-56.227264			
41555	10.744714	0.767837	-1.723772	0.709449	-3.402685	0.527914	-160.147501	-65.341200	-56.358072			
41556	10.849043	1.115528	-1.969952	0.326003	-3.623753	0.655781	-159.252148	-65.320417	-56.590662			
41557	11.185500	1.923220	-1.393904	0.335156	-4.697149	0.607560	-158.599321	-65.381085	-56.890177			
41558	12.197773	1.548562	-1.698865	0.521404	-4.616631	1.697504	-157.904846	-65.461134	-57.368019			
41559	13.218689	1.519289	-1.499079	0.872836	-5.067146	2.550612	-157.104906	-65.575577	-57.855359			
41560	14.233301	2.062641	0.084668	1.956758	-6.652445	2.787489	-156.562907	-65.719428	-58.194334			
41561	15.085671	1.949643	0.558819	2.527085	-7.079948	3.422817	-156.016291	-65.984432	-58.561640			
41562	15.889784	2.028168	1.890917	3.636543	-8.048577	3.684336	-155.326400	-66.298530	-58.906779			
41563	17.011901	3.001719	3.003992	4.125584	-9.697259	4.200895	-154.614744	-66.748858	-59.197652			
41564	15.930851	4.383237	4.127230	3.937014	-10.896708	2.669215	-154.366501	-67.357886	-59.398527			
41565	15.555621	3.788293	5.369536	5.065951	-10.797941	2.141165	-154.424598	-68.236678	-59.792760			
41566	15.460600	0.241506	7.759198	8.734562	-9.051737	2.063718	-154.280234	-69.644902	-61.179395			
41567	11.059660	-4.413469	2.685031	6.486452	-1.276885	0.448628	-153.390746	-71.124984	-63.355024			
41568	9.926513	-5.446639	-1.194542	3.751767	2.104007	0.728783	-151.981121	-72.346342	-65.292112			
41569	11.263255	-2.216247	-0.527628	2.269403	-0.992571	1.408212	-149.708033	-73.647115	-67.415490			
41570	11.511732	-1.122577	-2.790341	-0.374430	-0.414499	2.071985	-147.201748	-75.059840	-69.661122			
41571	12.708861	-1.610239	-4.801824	-1.805317	1.058167	3.706807	-144.689567	-76.394971	-71.590872			
41572	13.690050	-1.524514	-5.005390	-2.196332	1.123056	4.633773	-142.152178	-77.687642	-73.328339			
41573	13.362954	-1.763847	-4.845533	-2.189582	1.540726	4.257862	-139.558533	-79.050575	-75.111794			
41574	12.844813	-1.837035	-4.545713	-2.142693	1.787076	3.649611	-137.170091	-80.409847	-76.773661			
41575	13.002379	-1.576370	-3.751877	-1.804501	1.373075	3.621369	-134.862130	-81.703562	-78.510313			
41576	13.290620	-0.517396	-3.027829	-1.930127	0.324168	3.686866	-131.860022	-82.960665	-81.136644			
41577	12.655990	0.747565	-3.347103	-3.037916	-0.218710	2.940831	-127.997448	-84.201562	-84.933671			
41578	11.785485	1.471744	-4.163676	-4.235818	-0.048896	2.038474	-123.651468	-85.362789	-89.215458			
41579	11.756035	2.443418	-4.025234	-4.731542	-0.695568	1.913367	-117.859146	-86.540549	-95.021005			
41580	12.032101	3.201725	-3.634477	-4.902424	-1.284429	2.126319	-104.760475	-87.690501	-108.620013			
41581	11.979573	1.996947	-3.263336	-4.056427	-0.141625	2.089365	-61.472008	-88.310973	-153.056045			
41582	10.981529	0.767203	-3.116059	-3.345098	1.160410	1.065954	-19.855241	-87.668234	163.875171			
41583	10.873490	0.081645	-3.338038	-3.218280	2.184037	0.875808	-3.050168	-86.364091	145.605510			
41584	10.014546	-0.026109	-3.293864	-3.148536	2.527486	-0.074546	4.497277	-84.986153	136.690626			
41585	9.803822	-0.409600	-3.322079	-2.965175	3.112645	-0.387647	8.978868	-83.668258	131.119690			
41586	10.421919	0.018645	-3.503589	-3.469009	3.222423	0.110324	11.648952	-82.289365	127.512377			
41587	10.016383	-0.091403	-3.665198	-3.532751	3.640875	-0.430453	13.207104	-80.889768	124.964050			
41588	9.683971	-0.611953	-3.874692	-3.340067	4.379416	-0.934331	13.938664	-79.537613	123.181898			
41589	8.721127	-0.789587	-4.085478	-3.287481	4.730231	-2.054783	14.234516	-78.261697	121.886524			
41590	8.057326	-0.701132	-3.654731	-2.972065	4.457598	-2.737251	14.056058	-77.022907	120.945215			
41591	7.313099	-0.666160	-3.522564	-2.809877	4.374021	-3.543479	13.581566	-75.843416	120.206431			
41592	6.826372	-0.948722	-2.859864	-2.077942	4.151781	-3.971371	13.003722	-74.758033	119.534739			
41593	6.713833	-1.181655	-2.252138	-1.467814	3.974031	-4.016557	12.431344	-73.778948	118.853356			
41594	6.771779	-1.513311	-1.942631	-0.999868	4.084265	-3.961289	11.913677	-72.895253	118.136281			
41595	6.693112	-1.789536	-1.790135	-0.648512	4.213201	-4.065311	11.521683	-72.117135	117.393858			
41596	6.593281	-1.902041	-1.925431	-0.590743	4.427137	-4.258666	11.320016	-71.420364	116.598564			
41597	6.333897	-2.256257	-2.183926	-0.384174	4.820659	-4.655988	11.436996	-70.830153	115.740222			
41598	6.036400	-2.635647	-2.299617	-0.064892	5.093265	-5.045403	11.876278	-70.334788	114.830889			
41599	5.701336	-3.099120	-2.325889	0.368035	5.323020	-5.448147	12.869162	-69.936498	113.843269			
41600	5.425966	-3.021770	-1.975135	0.553523	4.966778	-5.629650	14.245086	-69.620209	112.802691			
41601	5.066697	-2.972558	-2.083854	0.494332	4.938628	-6.042369	15.883292	-69.369720	111.734323			
41602	4.829009	-2.485375	-1.533724	0.448663	4.199273	-6.069246	17.673890	-69.191754	110.666673			
41603	4.998014	-1.920370	-1.147286	0.205819	3.663287	-5.747951	19.410731	-69.053001	109.659823			
41604	4.713069	-1.334962	-0.587935	0.125700	2.832565	-5.775173	21.027263	-68.967737	108.709525			
41605	4.809001	-0.707163	-0.421635	-0.257088	2.375880	-5.559053	22.384430	-68.936962	107.851571			
41606	4.552900	0.052951	-0.084738	-0.583966	1.586072	-5.583952	23.441240	-68.980888	107.028216			
41607	4.883767	0.368079	-0.296136	-0.971077	1.652579	-5.296017	24.133258	-69.087695	106.309726			
41608	5.281804	0.530023	-0.335277	-1.138429	1.714187	-4.907966	24.430247	-69.210878	105.737910			
41609	6.269414	0.776720	0.613832	-0.807600	1.218720	-3.636273	24.569359	-69.421028	105.288803			
41610	7.516214	0.800252	1.937732	-0.096069	0.656805	-2.037862	24.592808	-69.736054	104.900030			
41611	9.041469	0.498117	3.686358	1.107131	0.038198	-0.098894	24.579974	-70.150682	104.407352			
41612	10.560685	0.135316	5.488046	2.392316	-0.636994	1.829272	24.692518	-70.564668	103.840126			
41613	11.756264	1.157069	7.784106	2.925137	-2.620596	3.778359	25.192697	-70.780925	103.129026			
41614	12.949462	2.696334	9.034963	2.419083	-4.080329	5.487247	25.784055	-70.637934	102.491601			
41615	13.118398	4.585081	9.905417	1.470420	-5.708745	6.202286	26.229351	-70.236300	102.065657			
41616	11.763949	4.842842	10.040154	1.453728	-6.297559	5.049166	26.499017	-69.849960	101.812127			
41617	9.537984	4.797087	9.865908	1.562166	-6.822857	2.928167	26.943925	-69.714603	101.456165			
41618	8.998767	4.525581	9.918565	1.879253	-6.861490	2.403075	27.453767	-69.721726	100.981937			
41619	9.043619	3.637830	9.076502	2.088717	-5.710185	2.037829	27.718746	-69.804878	100.634633			
41620	8.345701	2.337711	6.983876	1.887438	-3.672212	0.523776	27.905846	-69.953257	100.244544			
41621	7.854752	1.040521	5.014294	1.757299	-1.660886	-0.753097	28.239969	-70.171599	99.762392			
41622	8.415624	0.096464	2.886249	1.210346	0.605150	-1.018884	28.798029	-70.521231	99.098443			
41623	12.129129	-1.340402	1.992580	1.645842	3.271651	1.997048	29.048260	-70.881266	98.882058			
41624	9.625494	-2.388617	-1.330634	0.612125	5.446262	-1.440829	28.918965	-71.692626	98.861600			
41625	9.269291	-6.281203	-7.636034	-0.065495	12.176123	-3.862655	28.855486	-73.619508	98.860601			
41626	7.951781	-11.620683	-8.415375	3.791728	15.404812	-5.642602	29.351003	-75.244250	98.398107			
41627	12.666093	-7.209379	5.828383	8.805130	3.010206	2.827841	29.972850	-75.949349	98.292001			
41628	20.059562	5.961318	20.604722	7.571102	-14.200434	14.752699	31.854250	-75.410397	98.083916			
41629	20.733093	22.799142	11.450790	-10.609627	-17.404653	15.979310	36.971145	-74.680098	93.638384			
41630	19.418987	20.310958	5.838997	-12.537165	-11.482811	13.306965	32.867636	-74.065153	94.405273			
41631	15.032142	-4.368360	2.218585	4.426990	4.618035	4.643945	23.990194	-75.146832	98.071388			
41632	9.000036	-24.241226	-5.849032	17.739254	18.986785	-4.580247	16.922497	-75.963359	101.192198			
41633	0.883138	-21.262074	-11.534060	13.130662	20.044625	-13.227176	22.438786	-76.554362	97.007346			
41634	2.533706	-5.976495	-6.201557	1.908738	8.746151	-9.146750	29.929089	-77.948130	92.480867			
41635	4.122734	-2.550788	-8.114654	-2.395123	8.813196	-7.378756	40.150335	-79.143372	85.207567			
41636	4.344287	1.523827	-7.036802	-5.343944	5.402856	-6.215531	53.247223	-79.943291	75.663759			
41637	12.008886	13.269620	-11.781984	-17.055468	2.270018	2.950170	65.253035	-79.891244	67.730691			
41638	9.627776	24.996283	5.250411	-13.776592	-19.037989	4.073504	66.979057	-79.773350	66.654843			
41639	7.032196	8.726033	-4.496936	-8.894852	-1.420023	-1.770364	70.532653	-80.449810	60.956802			
41640	14.281377	0.969959	-3.598863	-1.895020	3.962603	4.277954	76.470785	-81.618852	53.690477			
41641	13.416119	-3.240268	-2.071179	2.273813	5.065078	2.991501	78.304462	-82.844181	50.524214			
41642	9.356660	-4.942161	-3.122627	2.648412	6.323988	-1.169023	76.345067	-83.637489	50.781488			
41643	6.789640	-4.361056	-3.209425	2.027794	5.705896	-3.587901	77.839711	-84.190695	48.407124			
41644	7.350780	-2.249756	-2.171479	1.039571	3.569804	-2.742684	89.107963	-84.448525	37.544950			
41645	10.172397	0.715132	-2.116731	-0.973083	1.754955	0.406697	105.178635	-84.059349	22.842801			
41646	12.432756	6.464656	-3.525609	-5.986815	-0.785303	3.314850	110.698167	-83.803431	18.171886			
41647	8.298209	3.911492	2.945685	-0.339293	-4.497851	-1.298532	115.064017	-83.851093	13.467653			
41648	8.143580	1.927070	1.127392	0.051004	-1.957370	-1.598896	125.538622	-83.749852	2.025781			
41649	9.963637	-0.244736	-1.793631	0.215890	1.492190	0.200952	137.297108	-83.518344	-10.766739			
41650	9.521559	-2.788253	-3.857953	1.028949	4.500552	-0.220864	142.639904	-83.465922	-16.856819			
41651	8.566200	-2.168196	-0.724628	2.274912	1.535763	-1.382289	146.100666	-83.209013	-20.504249			
41652	9.244414	-1.360954	0.401874	2.387335	0.031210	-0.769941	150.389183	-82.575279	-24.569207			
41653	9.861307	-1.017491	-0.447697	1.758513	0.367287	-0.052968	154.257354	-81.804807	-27.886100			
41654	10.068509	-0.432747	-0.615553	1.291220	0.019900	0.200893	157.398693	-81.071203	-30.308954			
41655	9.941925	-0.141909	-0.631075	1.099371	-0.247254	0.086265	160.043823	-80.436967	-32.287857			
41656	9.469653	-0.316166	-1.463118	0.714274	0.446090	-0.262569	162.772817	-79.875097	-34.365524			
41657	9.072304	-0.390787	-2.348169	0.199776	1.108481	-0.501208	165.301549	-79.323201	-36.165940			
41658	8.992367	0.239185	-2.804885	-0.562043	0.950436	-0.454981	167.661192	-78.725749	-37.661347			
41659	9.242922	1.299506	-2.650367	-1.203926	-0.010259	-0.184935	169.602778	-78.102812	-38.727053			
41660	9.674574	2.491634	-2.093732	-1.626569	-1.391627	0.167562	171.098140	-77.532520	-39.489927			
41661	9.830783	3.010070	-1.666585	-1.654759	-2.190145	0.234506	172.460083	-77.007641	-40.408522			
41662	9.454398	2.214941	-1.848966	-1.205319	-1.574567	-0.128822	173.839208	-76.483421	-41.604920			
41663	9.217953	0.999489	-2.134427	-0.502051	-0.612204	-0.331247	175.148881	-75.957022	-42.789509			
41664	9.245896	0.366899	-1.815822	0.208678	-0.512900	-0.399346	176.272224	-75.430806	-43.744193			
41665	9.420634	0.125962	-1.596823	0.595762	-0.632728	-0.296499	177.435615	-74.852727	-44.592744			
41666	9.315308	-0.176388	-1.868318	0.656525	-0.316281	-0.338268	178.641614	-74.241569	-45.282578			
41667	9.416119	0.172430	-2.204393	0.236225	-0.447083	-0.153723	179.866762	-73.641288	-45.862155			
41668	9.415555	0.847244	-2.229933	-0.233309	-1.001152	-0.154246	-179.123188	-73.136322	-46.410599			
41669	9.141394	0.837947	-2.492986	-0.434441	-0.847233	-0.348275	-178.181849	-72.723683	-47.157770			
41670	8.929848	0.114595	-2.973874	-0.273190	-0.046979	-0.404080	-177.246987	-72.340829	-47.977002			
41671	8.719680	-0.261359	-3.013857	-0.065566	0.214599	-0.585899	-176.406030	-71.944391	-48.644534			
41672	8.556427	-0.398303	-2.433893	0.401365	-0.114897	-0.917737	-175.585149	-71.518213	-49.238054			
41673	8.622553	-0.558600	-1.749731	1.007428	-0.549978	-1.071744	-174.772078	-71.035478	-49.797681			
41674	8.815449	-0.473224	-1.501392	1.175575	-0.900012	-0.981056	-173.962645	-70.557548	-50.309655			
41675	8.871211	-0.063940	-1.326928	1.038831	-1.396541	-1.013074	-173.179496	-70.096121	-50.779750			
41676	8.673188	0.403055	-1.508356	0.563828	-1.634995	-1.171497	-172.353344	-69.668680	-51.277993			
41677	8.399921	0.761187	-1.854170	0.032654	-1.670387	-1.340127	-171.528637	-69.255907	-51.755636			
41678	8.746626	1.094477	-2.050460	-0.243111	-1.959909	-0.980656	-170.681317	-68.832798	-52.218951			
41679	9.280051	1.290986	-2.084040	-0.268147	-2.318250	-0.502353	-169.823840	-68.403597	-52.679235			
41680	9.458627	1.331545	-2.159797	-0.293769	-2.439766	-0.333029	-168.995800	-67.995639	-53.123191			
41681	9.474965	1.116415	-2.165788	-0.134907	-2.369279	-0.321656	-168.192058	-67.592883	-53.550808			
41682	9.484440	0.752530	-2.036794	0.214772	-2.265284	-0.352707	-167.409660	-67.204589	-53.961689			
41683	9.406435	0.374443	-2.100895	0.414411	-2.001233	-0.386244	-166.667677	-66.838915	-54.327644			
41684	9.378726	0.069581	-1.926753	0.742040	-1.940869	-0.466046	-165.950072	-66.496906	-54.628297			
41685	9.321582	-0.091957	-1.738537	0.976547	-1.976104	-0.589677	-165.267993	-66.187215	-54.863373			
41686	9.296394	-0.014651	-1.973076	0.757187	-1.946328	-0.541527	-164.652445	-65.921858	-55.036586			
41687	9.588170	0.084632	-2.356478	0.487058	-1.951753	-0.145921	-164.076560	-65.701645	-55.194630			
41688	9.575681	0.014097	-2.715839	0.266765	-1.739582	-0.016149	-163.492687	-65.532954	-55.336217			
41689	9.821070	-0.054225	-3.239674	-0.023424	-1.529138	0.415352	-162.794971	-65.376653	-55.463969			
41690	10.504097	0.400913	-2.983179	0.027693	-2.306435	0.867923	-162.047575	-65.212553	-55.559224			
41691	11.858012	1.013965	-3.091158	-0.131304	-3.243677	2.047197	-161.228377	-65.139804	-55.849149			
41692	12.853807	0.730764	-1.631850	1.340285	-4.186897	2.397580	-160.588734	-65.132909	-56.309514			
41693	13.143059	-0.205569	-0.946130	2.462766	-3.955807	2.514664	-159.940071	-65.113751	-56.780650			
41694	13.601583	-0.215102	-0.150168	3.144047	-4.549934	2.616508	-159.232237	-65.110265	-57.022109			
41695	14.531404	0.769368	1.075983	3.673923	-6.287136	2.831900	-158.479944	-65.143245	-57.191189			
41696	15.633633	1.173627	1.574627	4.037928	-7.235086	3.589392	-157.808174	-65.347367	-57.516378			
41697	15.555366	0.829797	2.251651	4.688428	-7.242385	3.351413	-157.288827	-65.701994	-57.885997			
41698	14.735873	0.996186	2.624470	4.624892	-7.214157	2.499548	-156.824989	-66.183145	-58.203078			
41699	14.526050	1.580056	2.927175	4.390148	-7.671792	2.184780	-156.393885	-66.785446	-58.502950			
41700	15.246595	1.309833	5.179038	6.329253	-8.735911	2.212897	-155.834726	-67.733189	-59.221215			
41701	14.225253	-0.800451	6.129031	7.901131	-7.103985	1.485842	-154.803919	-69.062031	-60.751389			
41702	11.232288	-2.165307	1.304148	4.175400	-2.421900	0.639520	-153.606885	-70.297165	-62.381251			
41703	11.227077	-1.956740	-1.239191	1.865206	-1.066177	1.447466	-152.271108	-71.439335	-63.756077			
41704	12.061577	-0.898249	-1.172706	1.203035	-1.994703	2.113337	-150.503126	-72.758276	-65.336357			
41705	12.021444	-1.244388	-3.660648	-0.800748	-0.127289	2.788802	-148.484380	-74.159853	-66.986489			
41706	12.223679	-1.963084	-5.360017	-1.958095	1.553510	3.444202	-146.513695	-75.481645	-68.416728			
41707	12.637534	-2.970693	-5.287817	-1.516325	2.455355	3.904299	-144.594097	-76.770720	-69.727828			
41708	12.691845	-3.723048	-4.740626	-0.871076	2.996201	3.886641	-142.569000	-78.057927	-71.101043			
41709	13.101945	-3.291093	-3.847856	-0.577185	2.338820	4.025108	-140.182554	-79.400271	-72.982694			
41710	12.685750	-2.387801	-3.408812	-0.943090	1.696782	3.396099	-137.221227	-80.740197	-75.809027			
41711	12.090753	-1.699674	-3.409277	-1.528924	1.476575	2.684219	-133.568345	-82.013015	-79.610699			
41712	11.491774	-1.419584	-4.589215	-2.844342	2.205762	2.111002	-128.803318	-83.175524	-84.569586			
41713	11.103470	-1.199810	-4.526832	-3.064092	2.264551	1.619529	-122.333283	-84.279141	-91.188583			
41714	10.476699	-1.149972	-4.090187	-2.859468	2.269749	0.886796	-113.141043	-85.343809	-100.564961			
41715	10.532761	-1.376586	-3.470819	-2.340042	2.336638	0.861536	-99.597096	-86.286051	-114.248155			
41716	11.031032	-1.225020	-2.712454	-1.921593	1.995904	1.271500	-78.995451	-86.944495	-135.073883			
41717	10.713375	-1.735353	-3.065885	-2.031119	2.872922	0.901868	-51.564019	-87.011420	-162.710762			
41718	10.266265	-1.508575	-3.384667	-2.507301	3.105691	0.345580	-28.407346	-86.541515	174.097830			
41719	10.207226	-0.908171	-3.676411	-3.174757	2.991344	0.162082	-12.715897	-85.762487	158.397931			
41720	10.193852	0.035332	-4.042155	-4.087092	2.629343	0.017482	-2.495527	-84.795331	148.081638			
41721	10.242932	1.029398	-4.220361	-4.878985	2.143862	-0.046341	3.820734	-83.601793	141.265117			
41722	9.621437	0.695139	-3.924555	-4.472864	2.464407	-0.736882	7.209174	-82.248350	136.948238			
41723	8.483188	-0.693691	-4.919984	-4.399209	4.293904	-2.140889	9.428511	-81.051362	134.002753			
41724	8.308877	-0.194770	-4.331058	-4.243848	3.715436	-2.328363	11.300403	-79.911521	131.664662			
41725	8.122968	-0.005127	-3.465382	-3.691935	3.197044	-2.454900	12.518661	-78.823939	129.856964			
41726	7.875175	-0.157867	-3.646987	-3.733693	3.553187	-2.828758	13.179869	-77.787454	128.347566			
41727	7.398365	-1.176516	-3.240966	-2.725239	4.169092	-3.346340	13.584210	-76.858931	127.092445			
41728	6.869608	-1.249436	-3.034102	-2.441166	4.117546	-3.892916	14.087384	-76.080163	125.934104			
41729	6.963012	-0.775290	-2.631905	-2.450896	3.624280	-3.740770	14.514683	-75.367011	124.845732			
41730	6.583339	-1.026467	-2.406331	-2.052990	3.685940	-4.122116	14.836825	-74.669614	123.820969			
41731	6.276208	-1.609679	-2.226532	-1.472500	4.016634	-4.461328	15.388537	-74.052260	122.734974			
41732	6.353566	-1.781392	-1.878757	-1.096864	4.006409	-4.352288	16.255062	-73.516143	121.525902			
41733	6.660767	-0.972572	-0.860152	-0.941253	2.902316	-3.751190	17.209885	-73.035081	120.293740			
41734	6.556469	-1.812712	-1.255629	-0.618141	3.799494	-4.065413	18.281650	-72.597273	119.056895			
41735	6.501166	-0.994964	-0.327116	-0.490344	2.655675	-3.806962	19.467398	-72.188995	117.898335			
41736	6.349694	-1.009326	-0.220921	-0.366117	2.610184	-3.944230	20.580857	-71.832367	116.749509			
41737	6.324038	-0.854299	-0.077371	-0.347950	2.445984	-3.928374	21.694764	-71.537818	115.678896			
41738	6.533156	-0.872026	0.097042	-0.215561	2.447975	-3.696092	22.773383	-71.323901	114.561122			
41739	6.962099	-0.909125	0.252669	-0.108178	2.535211	-3.261199	23.892416	-71.171273	113.520935			
41740	7.203346	-0.410962	1.216795	0.241715	1.674336	-2.694003	24.984891	-71.023944	112.552438			
41741	6.932226	-0.287135	1.524011	0.440020	1.340948	-2.850724	25.827606	-70.900074	111.727360			
41742	6.662627	0.472243	2.337245	0.563304	0.228055	-2.762373	26.544886	-70.798081	110.948400			
41743	6.684893	0.250902	2.224198	0.651256	0.482014	-2.809739	27.082211	-70.722815	110.316087			
41744	6.860479	0.994581	3.230560	0.863972	-0.613643	-2.238467	27.651404	-70.683053	109.711150			
41745	7.174651	1.138700	3.830508	1.176006	-0.990374	-1.745395	27.946297	-70.675683	109.143389			
41746	7.415609	0.470386	3.147597	1.133602	-0.011871	-1.823027	28.318990	-70.699866	108.451275			
41747	8.210693	1.453583	3.750313	0.824993	-0.839571	-0.745845	29.018408	-70.744869	107.659591			
41748	8.658901	1.544024	3.351546	0.463332	-0.500282	-0.425014	29.600980	-70.718538	106.804351			
41749	8.918828	2.475071	4.084696	0.343269	-1.525173	0.182916	30.420700	-70.688850	105.870776			
41750	9.494970	3.238062	4.354490	-0.012518	-2.022365	0.934907	31.227275	-70.595914	104.943153			
41751	9.433746	3.773201	5.130306	0.203065	-2.882047	1.196629	31.899456	-70.470148	104.198213			
41752	9.190368	5.022404	6.797128	0.525662	-4.873166	1.670524	32.054154	-70.352056	103.608658			
41753	8.601352	3.311504	5.862683	1.084315	-3.277138	0.550940	31.875688	-70.305679	103.181628			
41754	8.194784	2.900812	6.478772	1.786205	-3.557177	0.271920	31.625227	-70.359554	102.750183			
41755	7.837490	1.999159	6.511583	2.432334	-3.138200	-0.217977	31.224150	-70.507202	102.412197			
41756	7.493150	1.342231	5.846798	2.431428	-2.433276	-0.851627	30.764342	-70.731598	102.071406			
41757	7.206143	0.907075	4.828737	2.053348	-1.615987	-1.491642	30.375505	-71.051120	101.759862			
41758	7.125922	0.484617	3.732332	1.632786	-0.682059	-1.950611	30.172259	-71.481766	101.357386			
41759	7.152587	0.064852	2.457404	1.121865	0.413990	-2.344621	30.257581	-72.041447	100.817195			
41760	7.287227	-0.105474	0.479259	-0.010856	1.891459	-2.758183	30.637307	-72.736103	100.157019			
41761	7.778013	-0.867172	-1.245084	-0.524631	3.661984	-2.804628	31.363216	-73.649785	99.299091			
41762	9.057858	-1.853796	-2.285685	-0.439552	5.262824	-1.887307	32.420286	-74.855159	98.188900			
41763	11.015423	-3.916769	-2.316240	1.111071	6.899591	-0.158692	33.863700	-76.330993	96.977999			
41764	13.007011	-4.860274	-1.311510	2.483155	6.963199	2.013648	35.137984	-77.926490	96.120290			
41765	14.841591	-3.461169	1.237935	3.124455	4.251572	4.537807	36.551709	-79.380819	95.178567			
41766	20.222880	1.584667	5.147524	1.976938	-1.284071	10.981598	38.403391	-80.463383	93.689333			
41767	26.914226	9.502268	11.076580	0.099352	-10.043351	19.109214	39.511828	-80.884038	92.286327			
41768	23.692289	10.194053	7.048701	-3.465228	-8.035573	15.451704	34.257796	-80.738189	94.331379			
41769	16.641107	-0.254656	7.373306	4.166483	-3.043845	7.641786	22.055788	-80.540565	101.708119			
41770	11.576484	-15.122510	7.024151	16.137043	3.851231	1.878575	16.375734	-80.471697	103.229624			
41771	8.255441	-12.635457	-3.346307	8.986081	10.426413	-2.773968	18.050462	-81.089732	102.454894			
