// General information: 
//  MT Manager version: 2022.0.0 
//  XDA version: 2022.0.0 build 7085 rev 119802 built on 2022-11-08
// Device information: 
//  DeviceId: 00B49380
//  ProductCode: MTW2-3A7G6
//  Firmware Version: 4.6.0
//  Hardware Version: 2.0.0
// Device settings: 
//  Filter Profile: human(46.1)
//  Option Flags: Orientation Smoother Disabled, Position/Velocity Smoother Disabled, Continuous Zero Rotation Update Disabled, AHS Disabled, ICC Disabled
// Coordinate system: ENU
PacketCounter	Acc_X	Acc_Y	Acc_Z	FreeAcc_E	FreeAcc_N	FreeAcc_U	Roll	Pitch	Yaw	Vel_E	Vel_N	Vel_U
40738	9.411734	2.337089	2.123953	-0.185023	0.185541	0.111285	46.009351	-72.857396	-23.523930			
40739	9.319648	2.259557	2.149591	-0.204110	0.112195	0.012175	46.077218	-72.845137	-23.611718			
40740	9.294486	2.185326	2.281726	-0.302135	-0.008965	-0.000551	46.162620	-72.829928	-23.707293			
40741	9.320010	2.169304	2.423718	-0.417835	-0.088507	0.049384	46.304723	-72.824266	-23.872427			
40742	9.452393	2.124541	2.355129	-0.305949	-0.126224	0.152176	46.481903	-72.806012	-24.039350			
40743	9.417051	2.198118	2.387585	-0.370374	-0.078302	0.140695	46.667253	-72.771068	-24.184899			
40744	9.346169	2.254956	2.354364	-0.377554	-0.016631	0.078515	46.863524	-72.731096	-24.310634			
40745	9.488686	2.263033	2.410935	-0.391512	-0.061186	0.227833	47.060432	-72.701955	-24.477903			
40746	9.441772	2.176220	2.522514	-0.471146	-0.189389	0.186724	47.207965	-72.660894	-24.614997			
40747	9.212539	2.101964	2.637592	-0.607203	-0.283914	-0.025108	47.353098	-72.622035	-24.758223			
40748	8.974360	2.075218	2.807362	-0.810520	-0.354111	-0.223912	47.447245	-72.582422	-24.846225			
40749	8.905614	1.970968	2.775750	-0.761045	-0.434256	-0.318916	47.535220	-72.553585	-24.925426			
40750	8.929652	2.069586	2.718164	-0.735000	-0.330779	-0.285849	47.619614	-72.526195	-24.982189			
40751	8.984861	2.050799	2.650049	-0.650961	-0.334398	-0.251271	47.735868	-72.504510	-25.056993			
40752	9.134281	2.060618	2.603655	-0.571941	-0.334078	-0.116218	47.898194	-72.491080	-25.156545			
40753	9.387324	2.025506	2.703237	-0.581763	-0.447253	0.136862	48.074849	-72.483604	-25.294561			
40754	9.432592	1.933883	2.685907	-0.522152	-0.537111	0.155595	48.186101	-72.468413	-25.370370			
40755	9.338323	1.911395	2.660133	-0.516882	-0.541337	0.055129	48.283180	-72.454084	-25.440906			
40756	9.324195	1.809066	2.688669	-0.508067	-0.648724	0.024146	48.337198	-72.434432	-25.458501			
40757	9.257414	1.804250	2.708444	-0.540301	-0.656221	-0.036791	48.372039	-72.417137	-25.449823			
40758	9.281530	1.876282	2.830067	-0.664443	-0.645776	0.026927	48.369466	-72.395244	-25.384026			
40759	9.329609	1.961004	2.665797	-0.531623	-0.511343	0.058965	48.375252	-72.375850	-25.309640			
40760	9.397453	2.129623	2.674862	-0.575917	-0.372981	0.163860	48.323846	-72.339877	-25.153431			
40761	9.269087	2.226998	2.538501	-0.517896	-0.215034	0.036426	48.297390	-72.300467	-24.994415			
40762	9.215905	2.342859	2.735054	-0.741782	-0.187520	0.052251	48.281151	-72.256926	-24.814649			
40763	9.210286	2.315112	2.715759	-0.708615	-0.208632	0.037125	48.270990	-72.212182	-24.634149			
40764	9.269547	2.380904	2.779786	-0.763498	-0.187816	0.122211	48.215730	-72.155362	-24.384579			
40765	9.342027	2.277935	2.694384	-0.616189	-0.257122	0.151064	48.095023	-72.074835	-24.061378			
40766	9.178502	2.286127	2.601807	-0.564015	-0.192398	-0.020573	47.929527	-71.964830	-23.640922			
40767	8.666600	3.186604	2.963582	-1.349272	0.521383	-0.223380	47.779063	-71.858378	-23.275826			
40768	8.687155	2.260582	2.386522	-0.467542	-0.063774	-0.536390	47.600297	-71.792832	-23.103587			
40769	8.540584	2.609406	2.630241	-0.844364	0.163865	-0.542902	47.491986	-71.725035	-22.897876			
40770	8.488879	2.520089	2.758647	-0.923986	0.035790	-0.584091	47.312287	-71.645734	-22.639335			
40771	8.369781	2.423180	2.500140	-0.682728	0.076129	-0.773671	47.207361	-71.592793	-22.447458			
40772	8.522523	2.184663	2.372947	-0.425872	-0.099994	-0.710729	47.129603	-71.547961	-22.298406			
40773	8.669506	2.171115	2.389903	-0.386433	-0.137782	-0.570534	47.118192	-71.520307	-22.221626			
40774	9.011960	2.094757	2.229082	-0.111309	-0.178460	-0.298067	47.111495	-71.498062	-22.141669			
40775	9.123328	2.267613	1.997436	0.063306	0.063153	-0.202332	47.026026	-71.446483	-21.970365			
40776	8.915874	2.279140	1.782616	0.195684	0.193252	-0.443090	46.929744	-71.384872	-21.758903			
40777	8.883507	2.383401	1.996931	-0.032742	0.196580	-0.402836	46.874044	-71.343064	-21.612648			
40778	9.063336	2.252684	2.288473	-0.175935	-0.068653	-0.199151	46.825542	-71.321425	-21.505271			
40779	9.162647	1.966506	1.923359	0.285728	-0.173018	-0.251883	46.806529	-71.321615	-21.439732			
40780	9.422012	1.754196	1.991164	0.387132	-0.421091	-0.040837	46.816421	-71.334531	-21.382916			
40781	9.769352	1.359895	1.967598	0.664516	-0.800633	0.191232	46.818777	-71.349219	-21.307723			
40782	10.117391	0.929042	1.793839	1.087610	-1.145638	0.382762	46.882500	-71.373237	-21.255106			
40783	10.543386	0.699935	1.666520	1.412659	-1.342000	0.705564	46.990360	-71.395640	-21.210279			
40784	10.587661	0.738355	1.575447	1.487529	-1.273042	0.736834	47.122858	-71.414815	-21.149989			
40785	10.488178	1.128427	1.703421	1.185280	-0.976340	0.761751	47.286689	-71.451911	-21.143639			
40786	10.280368	1.520369	1.753787	0.913242	-0.631353	0.667801	47.419551	-71.500253	-21.149264			
40787	9.964772	2.024725	2.052957	0.346441	-0.286527	0.551130	47.457223	-71.549145	-21.121251			
40788	9.695452	2.216412	2.259772	0.002889	-0.176505	0.384845	47.377850	-71.596178	-21.027290			
40789	9.405059	2.205148	2.230477	-0.062623	-0.132912	0.100498	47.332312	-71.681516	-20.993234			
40790	9.274883	1.882417	2.321863	-0.064993	-0.437483	-0.078093	47.358546	-71.814512	-21.075702			
40791	9.176687	1.353391	2.432663	-0.000263	-0.939185	-0.269158	47.503418	-71.987616	-21.316705			
40792	9.371170	1.098657	2.391653	0.160800	-1.166960	-0.150488	47.786114	-72.178245	-21.721303			
40793	9.542505	0.944807	2.167530	0.427460	-1.226045	-0.067729	48.147608	-72.363085	-22.231171			
40794	9.605639	0.871611	2.044096	0.545674	-1.250394	-0.048211	48.501141	-72.511132	-22.741900			
40795	9.359083	0.800770	1.732120	0.747829	-1.155340	-0.360714	48.843024	-72.615421	-23.227943			
40796	9.063695	0.819532	1.613637	0.740923	-1.063155	-0.661365	49.193097	-72.678168	-23.710019			
40797	9.128570	0.851657	1.750394	0.607391	-1.118382	-0.566054	49.618558	-72.722609	-24.287260			
40798	9.180650	0.815537	1.689271	0.672153	-1.149532	-0.537463	50.110000	-72.747116	-24.931454			
40799	9.476591	0.882862	1.754143	0.649765	-1.180068	-0.228983	50.725380	-72.766824	-25.680831			
40800	9.720004	0.965263	1.701899	0.708344	-1.144962	0.010441	51.416706	-72.785783	-26.496074			
40801	9.907963	0.957643	1.488355	0.928355	-1.117655	0.146674	52.142651	-72.789891	-27.320880			
40802	9.917086	1.000536	1.430696	0.948278	-1.090108	0.152697	52.806326	-72.764333	-28.060025			
40803	9.728321	1.001433	1.492980	0.833413	-1.122011	-0.018887	53.336371	-72.705068	-28.657461			
40804	9.505161	0.892282	1.527082	0.784820	-1.229727	-0.255072	53.752631	-72.622694	-29.125161			
40805	9.385597	0.846902	1.634138	0.677233	-1.323562	-0.364588	54.124414	-72.538650	-29.531139			
40806	9.366127	0.638964	1.641394	0.747444	-1.531063	-0.435912	54.466196	-72.464284	-29.887709			
40807	9.504854	0.519934	1.724843	0.756107	-1.714177	-0.321769	54.786826	-72.399970	-30.212901			
40808	9.643701	0.521625	1.804466	0.722641	-1.786237	-0.178567	55.067828	-72.339151	-30.475930			
40809	9.677917	0.595517	1.762409	0.743395	-1.724450	-0.138163	55.302371	-72.272808	-30.667815			
40810	9.570624	0.736179	1.712602	0.711225	-1.576144	-0.216765	55.509827	-72.201239	-30.807604			
40811	9.590430	0.860164	1.830082	0.571785	-1.534738	-0.149197	55.705383	-72.122534	-30.927776			
40812	9.616186	1.003022	1.920118	0.452685	-1.465253	-0.075541	55.878089	-72.042666	-31.012867			
40813	9.693874	1.205739	1.914360	0.408473	-1.309899	0.046676	56.057082	-71.965128	-31.105288			
40814	9.735177	1.298437	1.977038	0.338102	-1.275003	0.118492	56.171306	-71.879621	-31.145853			
40815	9.627847	1.264025	2.094963	0.231207	-1.351447	0.026122	56.213389	-71.782326	-31.138342			
40816	9.271222	1.190217	1.986991	0.274907	-1.321407	-0.352318	56.224967	-71.675557	-31.104482			
40817	9.070226	1.123574	2.085879	0.173813	-1.401547	-0.545124	56.285769	-71.573950	-31.132315			
40818	8.931695	0.995347	2.114792	0.172056	-1.515833	-0.707147	56.388622	-71.489604	-31.218745			
40819	8.894101	0.829936	2.264227	0.100551	-1.733738	-0.762573	56.567488	-71.427290	-31.398798			
40820	9.183498	0.731208	2.256500	0.227209	-1.878255	-0.518409	56.767878	-71.375251	-31.589276			
40821	9.470969	0.755179	2.240628	0.310754	-1.912628	-0.245283	57.011893	-71.328836	-31.811150			
40822	9.644723	0.813536	2.051487	0.502312	-1.822735	-0.101024	57.276285	-71.276979	-32.047711			
40823	9.827193	0.770951	1.840642	0.755841	-1.816481	0.020172	57.546917	-71.202282	-32.281968			
40824	9.891280	0.817681	1.536228	1.030451	-1.671856	0.036629	57.803716	-71.087429	-32.467321			
40825	9.789649	0.863394	1.463680	1.060313	-1.607053	-0.064966	58.151605	-70.939718	-32.715756			
40826	9.739317	1.066837	1.516947	0.933978	-1.475373	-0.053365	58.617731	-70.762421	-33.050036			
40827	9.636084	1.339058	1.549992	0.781637	-1.275286	-0.075534	59.265560	-70.567774	-33.552796			
40828	9.578706	1.662056	1.633041	0.573769	-1.070797	-0.029805	60.052054	-70.367269	-34.198161			
40829	9.506784	1.964041	1.481455	0.568737	-0.784674	-0.040707	60.978762	-70.171269	-35.026888			
40830	9.337703	2.041349	1.472606	0.494779	-0.743228	-0.183002	61.941029	-69.982413	-35.960348			
40831	9.178393	1.890443	1.528098	0.452176	-0.930471	-0.374404	62.914115	-69.811236	-36.994881			
40832	9.157614	1.754742	2.051173	0.026533	-1.340067	-0.360093	63.833310	-69.666465	-38.045754			
40833	9.321034	1.487288	2.526592	-0.263232	-1.874551	-0.226558	64.689908	-69.559283	-39.082056			
40834	9.732607	1.374489	2.442005	-0.060339	-2.070822	0.101145	65.478241	-69.496563	-40.031378			
40835	10.289864	1.320707	2.277132	0.226141	-2.208911	0.573857	66.122544	-69.467771	-40.788218			
40836	10.732827	0.898796	2.055156	0.674334	-2.606280	0.816402	66.620213	-69.479450	-41.355269			
40837	10.978943	0.604764	1.992061	0.878154	-2.910845	0.940310	67.077324	-69.531926	-41.854523			
40838	11.478949	0.288126	1.994475	1.091580	-3.317634	1.306162	67.580575	-69.631681	-42.397926			
40839	12.016833	0.448671	1.905779	1.200412	-3.279168	1.851078	68.164344	-69.768531	-42.999058			
40840	13.105619	0.435588	1.683556	1.624744	-3.457078	2.843928	68.677861	-69.936183	-43.518638			
40841	13.722726	0.446965	1.129947	2.211722	-3.347669	3.366498	69.072526	-70.126007	-43.877070			
40842	13.626933	0.672402	0.880591	2.284395	-3.002244	3.328425	69.134566	-70.289325	-43.846299			
40843	13.966739	0.316387	0.711579	2.642435	-3.283226	3.525755	68.905592	-70.411456	-43.482278			
40844	13.923004	0.050711	0.206845	3.197377	-3.233039	3.348594	68.497240	-70.485057	-42.787187			
40845	13.318012	0.704776	0.202381	2.828163	-2.477437	2.984600	68.044807	-70.502891	-41.885550			
40846	12.213466	1.969939	0.154709	2.127511	-1.071111	2.328132	67.577127	-70.471706	-40.824080			
40847	10.881879	2.942558	-0.456512	1.959364	0.379817	1.291311	67.078431	-70.410910	-39.673093			
40848	10.264943	3.703304	-0.896792	1.882974	1.411871	0.880704	66.567047	-70.338965	-38.424097			
40849	8.972751	4.117523	-0.727664	1.227079	1.990849	-0.193726	65.898311	-70.239798	-36.920761			
40850	7.988568	4.648780	-0.391442	0.438119	2.503004	-0.917488	65.224923	-70.125829	-35.315200			
40851	7.231991	5.179285	-0.289434	-0.113684	3.062460	-1.456922	64.611598	-70.024664	-33.782952			
40852	6.885096	5.663586	0.057419	-0.753094	3.358073	-1.588322	64.020965	-69.950720	-32.351751			
40853	6.232011	5.754695	0.584637	-1.442739	3.276047	-2.100211	63.248309	-69.889570	-30.941775			
40854	6.815329	5.918694	1.268572	-1.920266	2.948153	-1.403773	62.395500	-69.900022	-29.710627			
40855	7.438259	6.123080	1.778151	-2.244895	2.764351	-0.685795	61.264184	-69.959948	-28.504947			
40856	7.829639	5.976659	2.013152	-2.222587	2.520201	-0.337221	59.727439	-70.037712	-27.136681			
40857	8.358895	5.842915	2.210371	-2.116979	2.316999	0.139459	57.884725	-70.099439	-25.606341			
40858	8.710645	5.356942	2.640105	-2.070201	1.751413	0.394534	55.700114	-70.136800	-23.830961			
40859	9.088509	4.841472	2.945233	-1.896077	1.243555	0.654966	53.424804	-70.159930	-21.971667			
40860	9.439569	4.453250	2.948151	-1.551442	1.011664	0.873582	51.293022	-70.205602	-20.212623			
40861	10.353775	4.071299	2.824598	-0.942999	0.779400	1.600304	49.455047	-70.296528	-18.668281			
40862	10.692005	3.645269	2.649680	-0.468366	0.595193	1.765439	47.787926	-70.390569	-17.227626			
40863	11.012511	3.219616	2.614693	-0.125493	0.327996	1.949700	46.357376	-70.503033	-16.003181			
40864	11.081337	2.745276	2.479734	0.236673	0.084905	1.867112	44.994525	-70.583181	-14.812939			
40865	10.893564	2.411119	2.530448	0.299294	-0.123557	1.623265	43.755676	-70.630576	-13.709326			
40866	10.166166	2.140977	2.586667	0.157901	-0.248811	0.889567	42.540119	-70.626664	-12.599415			
40867	9.318040	1.954864	2.781343	-0.171662	-0.377479	0.097453	41.355439	-70.579048	-11.483515			
40868	8.613833	1.687803	2.973659	-0.413567	-0.595429	-0.573449	40.176521	-70.508733	-10.314683			
40869	7.877647	1.700648	3.112701	-0.751576	-0.554424	-1.223981	39.014250	-70.414339	-9.099356			
40870	7.581827	1.713657	3.159267	-0.868938	-0.499150	-1.482188	37.881918	-70.309862	-7.871638			
40871	7.175402	1.554497	3.041821	-0.808128	-0.511003	-1.923385	36.805216	-70.164745	-6.651622			
40872	7.145087	1.399775	2.779734	-0.500179	-0.467553	-2.049341	35.817067	-69.957353	-5.437378			
40873	6.543386	1.363263	2.780426	-0.654164	-0.447709	-2.617090	35.098777	-69.724031	-4.419774			
40874	6.679813	1.443610	3.403027	-1.116746	-0.683251	-2.291354	34.631520	-69.532997	-3.690154			
40875	6.855522	1.267794	3.792965	-1.255666	-1.027625	-2.043565	34.283372	-69.349324	-3.131333			
40876	6.917593	1.163773	4.071575	-1.374052	-1.251185	-1.917653	33.889747	-69.126167	-2.547518			
40877	7.156279	1.222906	4.335285	-1.489496	-1.326183	-1.595330	33.381471	-68.867760	-1.899911			
40878	7.161756	1.031808	3.724212	-0.866360	-1.146178	-1.802654	32.827910	-68.604896	-1.218387			
40879	7.114703	1.235231	3.272285	-0.586667	-0.712869	-1.938671	32.375848	-68.375132	-0.640660			
40880	7.211336	1.529282	3.429050	-0.788373	-0.525036	-1.737840	31.950553	-68.195416	-0.147050			
40881	7.712356	1.531214	3.635064	-0.744306	-0.610685	-1.203870	31.536560	-68.082585	0.230256			
40882	7.811992	1.567782	3.716292	-0.768802	-0.599721	-1.075115	31.162858	-67.930372	0.603920			
40883	7.207653	1.799495	3.270689	-0.733551	-0.156116	-1.730403	30.976927	-67.746303	0.902999			
40884	6.614528	1.788295	3.061899	-0.771383	-0.056896	-2.347640	31.039825	-67.684163	0.964868			
40885	6.962313	1.695982	3.873053	-1.226418	-0.568366	-1.780032	31.163651	-67.697812	0.896774			
40886	6.735980	1.451453	3.926305	-1.236813	-0.810277	-2.021041	31.218848	-67.735401	0.837825			
40887	6.592275	1.353337	4.220081	-1.484890	-1.051157	-2.080363	31.248221	-67.855185	0.714586			
40888	6.550289	1.166144	4.405088	-1.579793	-1.302567	-2.100460	31.175702	-68.066776	0.548237			
40889	6.477962	1.036096	4.304946	-1.507194	-1.348243	-2.231103	31.038021	-68.392047	0.313958			
40890	6.754557	0.521782	3.813646	-0.828938	-1.513496	-2.232325	30.783190	-68.844909	0.027670			
40891	7.279244	-0.568080	3.592323	-0.023608	-2.318196	-2.012712	30.449909	-69.331233	-0.246583			
40892	7.872224	-1.315907	3.674005	0.380982	-2.992296	-1.560285	30.175444	-69.792923	-0.470730			
40893	8.161535	-1.775687	3.766183	0.528507	-3.431415	-1.333698	30.064959	-70.247325	-0.744657			
40894	8.260589	-2.102445	3.479552	0.863230	-3.577917	-1.373629	30.152185	-70.676638	-1.086916			
40895	8.642174	-1.762518	3.225848	0.970660	-3.170739	-1.026129	30.405506	-71.048824	-1.471740			
40896	9.363426	-1.028856	3.095314	0.924786	-2.485034	-0.258501	30.656685	-71.283946	-1.758233			
40897	10.291966	0.027290	3.426053	0.443456	-1.741872	0.884620	30.802044	-71.304073	-1.871317			
40898	11.457871	0.765912	3.663322	0.294260	-1.227114	2.174677	30.787144	-71.177642	-1.881387			
40899	12.296930	1.128410	4.061126	0.105812	-1.110789	3.138579	30.723286	-70.967586	-1.854004			
40900	12.477259	1.474676	4.840317	-0.591316	-1.181717	3.586530	30.620535	-70.762078	-1.804612			
40901	12.549851	1.296316	5.448214	-0.947862	-1.621849	3.801028	30.426125	-70.596751	-1.708684			
40902	12.482860	0.915659	5.845017	-1.087906	-2.124661	3.793434	30.094662	-70.424593	-1.443585			
40903	12.911921	0.882156	6.917042	-1.763149	-2.641418	4.514038	29.615609	-70.165239	-0.967160			
40904	14.108008	1.417538	6.829271	-1.451337	-2.094491	5.717614	29.104012	-69.876165	-0.414450			
40905	15.832605	2.039603	6.121216	-0.476281	-1.168538	7.237464	28.659159	-69.621996	0.017193			
40906	16.220086	2.065543	4.596783	0.970627	-0.374891	7.140336	28.341376	-69.406281	0.235349			
40907	13.838821	2.439033	3.776565	0.697570	0.359968	4.716864	28.257008	-69.201133	0.178236			
40908	11.941102	3.042460	3.772305	-0.183184	0.893838	3.042036	28.271047	-68.929141	0.004549			
40909	10.627704	3.569883	3.764480	-0.809801	1.360768	1.907186	28.304023	-68.544936	-0.149149			
40910	10.169680	3.687705	4.202643	-1.308763	1.260025	1.649543	28.305318	-68.174194	-0.322583			
40911	8.926863	3.350403	5.244525	-2.416050	0.477124	0.787029	28.398181	-67.928120	-0.581523			
40912	7.751079	3.317554	6.077018	-3.504468	0.061026	-0.028490	28.710227	-67.948842	-1.098829			
40913	7.778894	3.205487	5.837644	-3.273378	0.062863	-0.109838	29.235679	-68.207467	-1.914605			
40914	8.227273	3.141662	4.873328	-2.335072	0.427440	-0.031493	29.875776	-68.562628	-2.868139			
40915	8.636479	3.191389	3.967261	-1.513459	0.850695	0.061434	30.579972	-68.923225	-3.851054			
40916	8.519684	3.044597	3.068931	-0.799467	1.098057	-0.356065	31.283215	-69.252723	-4.774433			
40917	8.193312	2.967406	2.502552	-0.455443	1.260432	-0.845956	31.995557	-69.538586	-5.639871			
40918	7.879021	2.813343	2.143586	-0.236735	1.262030	-1.272202	32.712539	-69.750622	-6.461702			
40919	7.746341	2.590313	1.738070	0.123664	1.214069	-1.551514	33.523735	-69.899638	-7.347117			
40920	8.171970	2.608963	1.522804	0.420336	1.268488	-1.203345	34.397909	-70.029490	-8.277049			
40921	8.728504	2.581845	0.784142	1.224915	1.502001	-0.884589	35.299173	-70.130481	-9.245906			
40922	8.904411	2.833492	0.504713	1.403295	1.794926	-0.736304	36.188132	-70.174691	-10.139130			
40923	8.988130	3.123443	0.695007	1.142459	1.917393	-0.536717	36.981868	-70.170728	-10.942933			
40924	8.922923	3.141450	1.008530	0.844684	1.757322	-0.501263	37.615927	-70.121620	-11.566238			
40925	8.671857	3.265473	1.583826	0.220960	1.591654	-0.550364	38.215058	-70.084446	-12.120649			
40926	8.444256	3.155397	1.886398	-0.074559	1.341450	-0.701412	38.833303	-70.108695	-12.665692			
40927	8.559826	2.862258	2.022204	-0.049640	0.978587	-0.615283	39.484804	-70.181194	-13.206227			
40928	8.254155	2.850378	2.027738	-0.172727	0.958328	-0.900948	40.133794	-70.275154	-13.686210			
40929	8.152106	2.825328	2.138543	-0.317977	0.862156	-0.971415	40.858139	-70.405304	-14.228779			
40930	7.985463	2.888885	1.980895	-0.294594	0.972331	-1.152154	41.604340	-70.533781	-14.790665			
40931	7.595996	3.083232	1.763599	-0.345926	1.244397	-1.527314	42.402704	-70.655452	-15.425162			
40932	7.493918	3.073736	1.797965	-0.432499	1.196650	-1.613897	43.201927	-70.776093	-16.121726			
40933	7.393773	3.369834	1.662119	-0.501147	1.497115	-1.670596	44.050375	-70.907500	-16.929046			
40934	7.434937	3.689104	1.316714	-0.355274	1.903756	-1.635226	44.871829	-71.031123	-17.766661			
40935	7.755486	4.046501	1.129675	-0.271847	2.241920	-1.286395	45.696886	-71.152430	-18.668662			
40936	8.133874	4.144965	1.222128	-0.300924	2.215419	-0.877618	46.507306	-71.287003	-19.654323			
40937	8.196318	3.939193	1.131230	-0.146098	2.037893	-0.879489	47.426446	-71.454191	-20.811627			
40938	8.252164	3.388032	1.133961	0.062629	1.511542	-0.948492	48.408167	-71.646321	-22.105212			
40939	8.458602	2.718163	1.222957	0.279512	0.819182	-0.886181	49.480153	-71.845002	-23.514827			
40940	8.660052	2.166301	1.116951	0.604807	0.312853	-0.842019	50.694446	-72.046993	-25.058900			
40941	8.948739	1.836251	0.887334	0.964869	0.037328	-0.685460	51.995467	-72.232865	-26.669858			
40942	9.147314	1.343874	0.711451	1.314965	-0.400206	-0.642313	53.264963	-72.376022	-28.227330			
40943	9.444312	1.219543	0.898334	1.230214	-0.686099	-0.351990	54.423439	-72.462540	-29.628398			
40944	9.374100	0.940767	1.008055	1.184321	-1.017423	-0.467263	55.380557	-72.494773	-30.800099			
40945	9.673033	0.993227	1.282359	0.970435	-1.177947	-0.124085	56.237953	-72.466379	-31.804526			
40946	9.751485	1.106286	1.296247	0.915707	-1.139340	-0.021937	57.078601	-72.402220	-32.750919			
40947	9.362770	1.572500	1.396120	0.538213	-0.747160	-0.260971	57.833696	-72.304326	-33.614917			
40948	8.955853	1.791505	1.003973	0.692788	-0.358827	-0.657585	58.572829	-72.213604	-34.567603			
40949	8.698673	1.581784	0.423302	1.211170	-0.301809	-1.049703	59.516087	-72.137124	-35.764167			
40950	8.963260	1.220107	0.827808	1.028702	-0.890411	-0.831450	60.488535	-72.050814	-37.021218			
40951	9.018907	0.759082	1.895935	0.227696	-1.802812	-0.745757	61.407167	-71.936219	-38.255851			
40952	8.836175	0.591117	2.547734	-0.367087	-2.229825	-0.878972	62.307234	-71.804353	-39.401237			
40953	8.308899	0.660970	2.338793	-0.345805	-2.020569	-1.401848	62.980140	-71.633891	-40.243479			
40954	7.810544	0.917343	1.817263	-0.085810	-1.515788	-1.885298	63.417305	-71.440209	-40.801444			
40955	7.493186	1.315066	1.649930	-0.144045	-1.056754	-2.101529	63.715651	-71.255003	-41.240660			
40956	7.738782	1.601360	1.552200	-0.087565	-0.839092	-1.803279	63.972126	-71.083252	-41.657628			
40957	8.227263	1.790530	1.087173	0.394372	-0.618242	-1.354675	64.294037	-70.920789	-42.130630			
40958	8.647018	1.768787	0.884121	0.695054	-0.678751	-0.995811	64.558119	-70.751225	-42.562408			
40959	9.075945	1.735015	1.120158	0.605379	-0.926337	-0.570764	64.735300	-70.572557	-42.959583			
40960	9.133134	1.617453	1.155032	0.638815	-1.085295	-0.551026	64.833540	-70.393052	-43.298164			
40961	9.226755	1.837963	1.610601	0.186733	-1.109152	-0.334290	64.875380	-70.221363	-43.611074			
40962	9.328475	2.020817	1.703866	0.080804	-1.024971	-0.171621	64.887701	-70.065682	-43.912939			
40963	9.637894	1.973502	1.599438	0.279469	-1.119889	0.087293	64.883403	-69.930195	-44.215877			
40964	9.960840	1.627632	1.753857	0.336861	-1.579100	0.303462	64.772504	-69.812067	-44.426512			
40965	10.398152	1.143915	1.870789	0.497444	-2.170926	0.578153	64.552427	-69.713021	-44.500798			
40966	10.527972	0.616907	2.044358	0.540401	-2.740840	0.560062	64.274757	-69.648090	-44.468863			
40967	10.474847	0.198883	2.251259	0.467059	-3.175892	0.411094	64.078921	-69.624473	-44.458690			
40968	10.445073	0.120089	2.649477	0.113537	-3.376211	0.420689	64.021590	-69.644499	-44.513907			
40969	10.302296	0.524207	3.106173	-0.473921	-3.136447	0.482869	64.204235	-69.691827	-44.730565			
40970	10.844016	0.954599	2.506522	0.062834	-2.674004	1.033153	64.665749	-69.778833	-45.148582			
40971	11.269867	1.556590	2.123008	0.316041	-2.109668	1.562259	65.047375	-69.833847	-45.397487			
40972	12.044978	2.066014	1.882647	0.559657	-1.761535	2.413434	65.225153	-69.857705	-45.382923			
40973	12.803100	2.564085	1.964342	0.509660	-1.532403	3.292446	65.412720	-69.881905	-45.359566			
40974	14.233710	3.236094	1.866789	0.718729	-1.248494	4.832458	65.823221	-69.962217	-45.560930			
40975	15.148501	3.838113	0.989977	1.509656	-0.623239	5.760379	66.483275	-70.085201	-45.962679			
40976	15.728861	3.846513	-0.017429	2.498906	-0.396610	6.180769	67.217017	-70.247480	-46.453604			
40977	15.411384	3.932233	-1.736145	3.905550	0.400060	5.697751	67.708913	-70.408757	-46.684848			
40978	15.054412	3.698596	-2.346784	4.422118	0.543274	5.219671	67.510908	-70.523599	-46.228181			
40979	13.431550	4.123687	-1.873829	3.485709	1.201918	3.874062	66.645191	-70.583350	-45.037785			
40980	11.407618	4.935313	-0.728837	1.728867	2.045411	2.346624	65.415242	-70.641362	-43.447476			
40981	9.774854	5.538635	0.099551	0.404932	2.708345	1.083853	64.224070	-70.722816	-41.837812			
40982	8.612424	6.142424	0.470956	-0.416243	3.419644	0.200177	63.034212	-70.828360	-40.210978			
40983	8.004325	6.498440	0.599330	-0.804980	3.874725	-0.273492	61.614313	-70.917383	-38.425671			
40984	6.663748	6.662236	1.467322	-1.971979	3.998735	-1.382682	59.802114	-70.960718	-36.342985			
40985	6.283767	6.868313	2.737889	-3.258242	3.790111	-1.495597	57.959675	-71.017305	-34.368080			
40986	6.769895	6.741286	2.762761	-3.074149	3.651020	-1.087539	56.190721	-71.152468	-32.696836			
40987	7.533730	6.413890	2.579396	-2.548173	3.397840	-0.511685	54.249532	-71.319465	-31.049922			
40988	7.886868	5.588759	2.243756	-1.809979	2.852047	-0.482111	52.046183	-71.469905	-29.270589			
40989	8.243308	4.543754	2.212257	-1.265127	1.986620	-0.434880	49.814744	-71.593175	-27.507029			
40990	8.983621	3.513001	2.305106	-0.740907	1.022162	0.024245	47.789201	-71.699954	-25.946409			
40991	9.778302	2.640538	2.178980	-0.075907	0.266461	0.543861	46.180342	-71.794526	-24.752340			
40992	10.096496	2.122898	2.006699	0.360073	-0.107193	0.691183	45.065776	-71.877751	-23.974001			
40993	10.028848	1.950735	1.695740	0.686028	-0.090477	0.520741	44.353606	-71.939371	-23.551854			
40994	9.775277	1.953384	1.302662	0.974445	0.120231	0.192542	43.809643	-71.968665	-23.269457			
40995	9.573144	2.206756	1.315677	0.840208	0.400716	0.055404	43.092411	-71.916277	-22.789957			
40996	9.246293	2.441704	1.633566	0.419728	0.577579	-0.137239	42.041591	-71.772693	-21.928331			
40997	9.023690	2.439763	2.208016	-0.112673	0.441178	-0.218577	40.774107	-71.562043	-20.780808			
40998	8.283389	2.245667	2.881481	-0.820382	0.154576	-0.798086	39.402268	-71.308992	-19.438002			
40999	8.083755	1.975511	3.331414	-1.146493	-0.187623	-0.924605	38.189687	-71.094097	-18.182265			
41000	7.682889	1.784132	3.419680	-1.239860	-0.314713	-1.311658	37.061494	-70.875118	-16.940224			
41001	7.401190	1.251276	3.206631	-0.921651	-0.671045	-1.730254	36.002977	-70.628433	-15.712203			
41002	7.253147	0.695491	3.112885	-0.657429	-1.109176	-1.994818	35.044591	-70.341368	-14.487710			
41003	6.974942	0.431191	3.261339	-0.738227	-1.360869	-2.257902	34.222929	-70.013620	-13.317820			
41004	6.939483	0.346064	3.316770	-0.710932	-1.440498	-2.282989	33.574072	-69.679722	-12.249537			
41005	7.051490	0.277570	3.119469	-0.416623	-1.426641	-2.241528	33.078462	-69.355068	-11.284297			
41006	6.729800	0.843770	2.918536	-0.486869	-0.797604	-2.488306	32.659393	-69.027554	-10.348016			
41007	6.783046	1.186798	3.079922	-0.678874	-0.543414	-2.319504	32.297270	-68.746879	-9.532808			
41008	6.691135	1.569263	3.109023	-0.831439	-0.192827	-2.317935	31.905503	-68.503902	-8.750924			
41009	6.782523	1.785444	3.272055	-0.985200	-0.056414	-2.136562	31.480914	-68.334894	-8.043391			
41010	6.945786	1.877734	3.470732	-1.104124	-0.044299	-1.901009	30.912148	-68.186400	-7.289396			
41011	6.999465	1.799767	3.414650	-0.986825	-0.069968	-1.880935	30.268690	-68.085120	-6.539660			
41012	7.044760	1.765036	3.433231	-0.956302	-0.080482	-1.837101	29.577530	-68.002730	-5.769826			
41013	6.665334	1.584002	2.695852	-0.389808	0.102038	-2.461435	28.921613	-67.937842	-5.015048			
41014	6.256782	1.448741	2.346861	-0.192188	0.161457	-2.979615	28.429541	-67.980471	-4.380279			
41015	6.405301	1.577203	3.610828	-1.266751	-0.226169	-2.403391	27.970908	-68.102636	-3.829614			
41016	6.403379	1.216072	4.002939	-1.480344	-0.693053	-2.340486	27.414413	-68.254791	-3.264794			
41017	6.312552	0.779795	3.959192	-1.334526	-1.043835	-2.514679	26.884218	-68.470247	-2.777395			
41018	6.514384	0.336539	4.112122	-1.256184	-1.486418	-2.351295	26.351158	-68.763594	-2.369966			
41019	7.058726	-0.212227	4.030643	-0.828273	-1.933253	-1.958201	25.846238	-69.105096	-2.042478			
41020	7.537433	-0.599439	4.048206	-0.579561	-2.270616	-1.562336	25.320612	-69.431130	-1.746732			
41021	7.936732	-1.020204	3.772804	-0.101347	-2.521535	-1.333427	24.849410	-69.744175	-1.557007			
41022	8.511028	-0.978648	3.993362	-0.163805	-2.551113	-0.712853	24.446132	-70.021846	-1.435640			
41023	9.292134	-0.994533	4.181946	-0.103890	-2.623899	0.083053	24.101314	-70.219177	-1.330825			
41024	9.952216	-0.890760	4.455301	-0.186873	-2.618553	0.807951	23.792387	-70.297237	-1.157346			
41025	10.580557	-0.682423	4.506416	-0.104845	-2.432858	1.447502	23.558676	-70.299047	-0.944688			
41026	11.098760	-0.436320	4.241289	0.216949	-2.094305	1.888944	23.445093	-70.265641	-0.727701			
41027	11.650899	-0.209764	4.295938	0.286745	-1.905156	2.456407	23.454775	-70.218048	-0.577147			
41028	12.089896	-0.293358	4.432111	0.363308	-2.040084	2.899562	23.568942	-70.176897	-0.512477			
41029	11.951139	-0.582239	4.153033	0.674083	-2.210396	2.640269	23.877159	-70.185047	-0.619757			
41030	11.542515	-0.730698	4.257235	0.502010	-2.412048	2.262806	24.339160	-70.229256	-0.882303			
41031	11.056079	-0.838798	4.841518	-0.129101	-2.774333	1.963011	24.814645	-70.258364	-1.232270			
41032	10.856728	-0.708426	5.215046	-0.567120	-2.830717	1.901939	25.130350	-70.254097	-1.480390			
41033	11.218020	-0.274361	5.834839	-1.132652	-2.702572	2.490880	25.238468	-70.187014	-1.489275			
41034	12.552153	0.182647	6.225279	-1.149412	-2.452020	3.935407	25.006603	-69.972778	-1.049911			
41035	14.831611	0.613649	5.106474	0.511514	-1.591454	5.796088	24.618136	-69.626722	-0.290421			
41036	16.352791	0.581714	4.426034	1.752512	-1.294972	6.997787	24.225851	-69.222343	0.553318			
41037	15.811728	1.235151	4.353122	1.491102	-0.633208	6.553752	24.134068	-68.817742	1.181879			
41038	14.384313	3.916790	3.579328	0.665084	2.118468	5.357356	24.370266	-68.356447	1.585425			
41039	13.619866	6.471715	2.556778	0.286606	4.832784	4.695320	24.789874	-67.792274	1.859571			
41040	11.895704	7.141580	3.028951	-0.945522	5.165668	3.382217	25.169317	-67.188480	2.064076			
41041	9.429706	6.403402	4.604397	-2.799280	3.716944	1.565853	25.573625	-66.776575	1.958153			
41042	7.746294	5.783586	5.276370	-3.698389	2.799006	0.176424	26.079278	-66.643928	1.441597			
41043	7.130882	5.452587	4.484350	-3.146616	2.835785	-0.716168	26.669970	-66.757424	0.658990			
41044	6.669307	4.946681	3.894361	-2.650640	2.635543	-1.437528	27.213353	-67.074358	-0.218608			
41045	6.179911	3.872366	3.297812	-1.941170	1.938160	-2.293560	27.695875	-67.543302	-1.079513			
41046	6.320845	2.769032	2.957075	-1.206394	1.092790	-2.483638	28.179649	-68.098104	-1.872344			
41047	6.947809	1.854901	2.796379	-0.535584	0.320823	-2.122294	28.700998	-68.671064	-2.612620			
41048	7.802330	0.966787	2.189136	0.570937	-0.246021	-1.675346	29.342156	-69.166018	-3.340463			
41049	9.020966	0.401636	1.304261	1.908217	-0.426092	-0.901075	30.268395	-69.578015	-4.224084			
41050	10.484306	0.389757	0.473322	3.063362	-0.161100	0.231508	31.467448	-69.853575	-5.254393			
41051	11.341610	1.207915	-0.361322	3.686996	0.849008	0.953300	32.780048	-69.934921	-6.290672			
41052	11.638242	2.358748	-0.771260	3.651661	1.985789	1.337602	33.847367	-69.775486	-7.009318			
41053	10.925932	3.463668	-0.454872	2.707586	2.805814	0.975085	34.538941	-69.415651	-7.279640			
41054	9.184311	4.070380	1.015332	0.662091	2.705396	-0.107398	34.918433	-68.960059	-7.202197			
41055	7.676113	4.237182	2.305429	-0.974352	2.281524	-1.092795	35.255007	-68.610631	-7.131734			
41056	7.032860	4.131376	2.833754	-1.575681	1.933993	-1.546107	35.647385	-68.462293	-7.214485			
41057	6.636350	4.160874	3.122348	-1.972568	1.807954	-1.816235	36.104990	-68.488143	-7.431630			
41058	6.218019	4.048065	2.794814	-1.827450	1.860934	-2.325445	36.624992	-68.656193	-7.770313			
41059	6.240913	3.801080	2.377043	-1.403318	1.823627	-2.481083	37.259336	-68.947508	-8.301680			
41060	6.629711	3.371596	1.957344	-0.776037	1.611184	-2.332480	37.981310	-69.308193	-8.998729			
41061	7.447734	2.660837	1.478238	0.166329	1.155854	-1.852162	38.816921	-69.695691	-9.854021			
41062	8.089560	2.467099	1.316178	0.547652	0.995307	-1.329238	39.726853	-70.054609	-10.797294			
41063	8.564730	2.229666	0.933941	1.074044	0.908133	-1.025219	40.665182	-70.351368	-11.773755			
41064	8.659738	2.244309	0.804472	1.159752	0.937909	-0.955476	41.565054	-70.566300	-12.697183			
41065	9.129041	2.344522	0.823240	1.214307	0.940388	-0.477014	42.430202	-70.719159	-13.593441			
41066	9.318867	2.246183	0.801255	1.310396	0.811175	-0.317777	43.183001	-70.793635	-14.389804			
41067	8.996462	2.190711	0.820256	1.201300	0.743083	-0.625035	43.838654	-70.804243	-15.095435			
41068	8.807301	2.171678	1.143366	0.872515	0.550884	-0.728240	44.421178	-70.781545	-15.743695			
41069	8.627667	1.832012	1.150648	0.957312	0.238325	-0.972802	44.949474	-70.741057	-16.342320			
41070	8.255758	1.630850	0.987045	1.063779	0.150101	-1.408090	45.502510	-70.708927	-16.924130			
41071	7.914049	1.200359	1.239220	0.926953	-0.342207	-1.773267	46.134276	-70.711951	-17.582265			
41072	7.873890	0.986341	1.396812	0.862101	-0.631447	-1.826447	46.904754	-70.759248	-18.385441			
41073	8.194357	0.996667	1.417261	0.919642	-0.701656	-1.517433	47.799107	-70.823924	-19.312401			
41074	8.433438	1.033156	1.398672	0.970536	-0.726651	-1.287640	48.720207	-70.869456	-20.244347			
41075	8.742495	1.190976	1.426562	0.952463	-0.681812	-0.951961	49.659318	-70.877630	-21.158956			
41076	8.932646	1.250559	1.446302	0.953406	-0.706080	-0.755085	50.504605	-70.840073	-21.957204			
41077	9.180943	1.171629	1.575324	0.947893	-0.910114	-0.516606	51.257361	-70.760907	-22.608417			
41078	9.251900	1.010804	1.612435	1.008982	-1.114910	-0.487552	51.926489	-70.663608	-23.133271			
41079	9.145144	0.909240	1.614321	1.022128	-1.226094	-0.619307	52.599175	-70.572092	-23.619723			
41080	8.911625	0.914608	1.663029	0.911974	-1.248732	-0.833372	53.203764	-70.468335	-23.996571			
41081	8.743312	1.047697	1.683382	0.791764	-1.154089	-0.957291	53.757511	-70.350650	-24.304273			
41082	8.721439	1.094282	1.680634	0.776645	-1.140150	-0.970613	54.274840	-70.221894	-24.583980			
41083	8.620629	1.267014	1.985300	0.424323	-1.166139	-0.962718	54.793432	-70.076170	-24.888694			
41084	8.672508	1.241940	1.822408	0.600456	-1.144810	-0.958043	55.345847	-69.923327	-25.244771			
41085	8.739295	1.407345	1.601092	0.742144	-0.936818	-0.896923	55.933661	-69.763184	-25.634027			
41086	8.871732	1.487138	1.449369	0.883743	-0.849365	-0.783994	56.580190	-69.602615	-26.096027			
41087	9.045510	1.663223	1.291853	0.994334	-0.689272	-0.604405	57.321770	-69.459655	-26.675488			
41088	9.367977	1.793259	1.122776	1.176547	-0.588692	-0.299308	58.084213	-69.340036	-27.315395			
41089	9.396548	2.024434	1.184477	1.024989	-0.479705	-0.194188	58.803396	-69.227631	-27.946246			
41090	9.535622	2.321782	1.486099	0.677196	-0.460410	0.079557	59.495763	-69.124416	-28.587756			
41091	9.682330	2.558703	1.719421	0.416234	-0.456677	0.329745	60.107004	-69.020111	-29.179056			
41092	9.878773	2.492403	1.458105	0.722741	-0.447920	0.444271	60.635417	-68.924155	-29.705411			
41093	9.849813	2.203401	1.628301	0.703904	-0.807207	0.354811	61.049729	-68.850558	-30.173835			
41094	9.979357	1.519463	1.879786	0.846030	-1.555481	0.301392	61.332317	-68.824588	-30.558130			
41095	10.097498	0.921993	1.938463	1.097923	-2.119506	0.230689	61.548906	-68.845389	-30.866958			
41096	10.168944	0.765457	2.135519	1.011948	-2.373713	0.281629	61.692570	-68.912581	-31.077364			
41097	10.104329	0.949605	2.358840	0.700736	-2.327625	0.319165	61.849399	-69.019792	-31.270504			
41098	10.081090	1.536567	2.676972	0.131362	-2.000554	0.537967	62.051587	-69.174513	-31.498538			
41099	10.296181	2.162841	2.685169	-0.136652	-1.523551	0.937164	62.418740	-69.370878	-31.893297			
41100	11.451095	2.651672	2.444618	0.131088	-1.210657	2.131009	62.967506	-69.602515	-32.441574			
41101	12.602966	3.302014	1.949554	0.515800	-0.637910	3.335139	63.633006	-69.843000	-33.052135			
41102	13.469441	3.532644	1.380606	1.054387	-0.326130	4.136961	64.390343	-70.110208	-33.715154			
41103	14.049300	3.779629	0.435147	1.802505	0.250800	4.628401	65.205739	-70.394429	-34.322507			
41104	14.363413	4.070155	-0.498652	2.437665	0.920067	4.895573	65.896535	-70.675530	-34.710654			
41105	14.545506	3.944070	-1.699498	3.457135	1.433587	4.884522	66.401184	-70.958508	-34.861757			
41106	14.270692	3.824888	-2.194282	3.772794	1.693975	4.539772	66.473732	-71.229954	-34.567444			
41107	13.307661	4.473081	-1.595597	2.650886	2.147768	3.898893	65.956398	-71.426069	-33.591804			
41108	11.496391	5.708777	-0.716984	0.809301	3.081236	2.642094	64.840179	-71.532475	-31.956348			
41109	9.849640	6.587805	-0.101734	-0.585772	3.813366	1.391753	63.365923	-71.577820	-29.955726			
41110	8.501719	7.182743	0.604870	-1.828820	4.187706	0.353673	61.515881	-71.579954	-27.691048			
41111	7.153570	6.944269	1.380945	-2.690706	3.826764	-0.900962	59.323496	-71.541935	-25.224145			
41112	6.822629	6.553676	2.449436	-3.411977	3.024658	-1.169318	57.156736	-71.551819	-22.994785			
41113	7.052050	6.310388	3.103122	-3.716118	2.515195	-0.921951	55.226419	-71.664615	-21.193361			
41114	7.131334	6.325495	3.329366	-3.864971	2.493663	-0.824083	53.372316	-71.858445	-19.671383			
41115	7.623105	5.795495	3.078016	-3.230505	2.267986	-0.561071	51.475232	-72.070427	-18.270090			
41116	7.932752	4.755856	2.858060	-2.416927	1.625021	-0.580582	49.544938	-72.263095	-16.902310			
41117	8.240410	3.749268	2.814540	-1.774201	0.898431	-0.543003	47.719272	-72.428806	-15.624666			
41118	8.895700	2.888205	2.788781	-1.132952	0.237290	-0.121871	46.188002	-72.596016	-14.610999			
41119	9.784067	2.224340	2.447502	-0.279627	-0.127744	0.510635	45.029510	-72.768841	-13.935141			
41120	10.229203	1.875302	1.945043	0.416670	-0.133845	0.758254	44.212579	-72.913803	-13.535248			
41121	10.517817	1.814316	1.434306	0.938406	0.097768	0.914996	43.603558	-73.018097	-13.281473			
41122	10.370262	2.004635	1.309073	0.909638	0.367481	0.785047	42.901985	-73.020905	-12.832241			
41123	10.489938	2.136127	1.424070	0.803491	0.451614	0.947426	42.028989	-72.940880	-12.144522			
41124	10.194025	2.230057	1.986463	0.239135	0.313345	0.802471	40.944340	-72.775476	-11.147486			
41125	9.721724	2.043014	2.479021	-0.174817	-0.014091	0.424505	39.691118	-72.552086	-9.910315			
41126	9.277020	1.854161	2.739610	-0.382017	-0.227609	0.026429	38.427795	-72.297384	-8.561695			
41127	8.445789	1.536728	2.512938	-0.240785	-0.298716	-0.876239	37.305887	-72.005418	-7.195767			
41128	7.591126	1.296526	2.422206	-0.260188	-0.387343	-1.753210	36.383604	-71.673216	-5.851621			
41129	7.309333	1.051764	2.910921	-0.577063	-0.809744	-1.937600	35.580201	-71.337469	-4.562774			
41130	7.113336	0.857062	3.249385	-0.763034	-1.123935	-2.063699	34.863375	-71.005363	-3.274476			
41131	7.101248	1.046031	3.602551	-1.086992	-1.132083	-1.936342	34.226848	-70.692865	-2.001408			
41132	7.184907	1.349321	3.818133	-1.327279	-0.979390	-1.731812	33.616945	-70.389001	-0.723680			
41133	7.165656	1.870352	3.611051	-1.384539	-0.419162	-1.701480	33.064095	-70.088877	0.501121			
41134	7.338001	2.189613	3.445631	-1.318459	-0.051214	-1.519803	32.574782	-69.812604	1.600528			
41135	7.427440	2.515261	3.260570	-1.279162	0.334417	-1.423616	32.114173	-69.551534	2.578415			
41136	7.361985	2.638625	3.178497	-1.273180	0.496608	-1.482243	31.626557	-69.315226	3.454277			
41137	7.230246	2.475283	3.103598	-1.148304	0.421665	-1.655524	31.132580	-69.131945	4.200442			
41138	7.391240	2.326257	3.109368	-0.995050	0.321754	-1.529188	30.685785	-68.999458	4.811112			
41139	7.562887	2.077064	3.055174	-0.741068	0.174829	-1.430221	30.305002	-68.883896	5.308292			
41140	7.520628	1.865953	2.640773	-0.316029	0.256556	-1.636527	30.059350	-68.814660	5.659088			
41141	7.525544	1.757464	2.566879	-0.196066	0.219418	-1.674827	29.968377	-68.824975	5.846515			
41142	7.642438	1.698989	3.111976	-0.536987	-0.137088	-1.406103	29.927112	-68.876581	5.953099			
41143	7.627005	1.591888	3.402974	-0.711604	-0.393080	-1.349553	29.885603	-68.952030	6.034693			
41144	7.349380	1.779748	3.315319	-0.862372	-0.199905	-1.603633	29.852425	-69.065569	6.110677			
41145	7.227383	1.611693	3.397873	-0.894527	-0.389301	-1.724030	29.796266	-69.229923	6.148659			
41146	7.143742	1.346842	3.640112	-0.986467	-0.746653	-1.777342	29.703667	-69.436161	6.141819			
41147	7.398166	0.825894	3.956538	-0.883755	-1.339909	-1.536660	29.562014	-69.683608	6.074072			
41148	7.649331	0.455512	4.185994	-0.811729	-1.756270	-1.298070	29.342551	-69.945773	5.974109			
41149	7.883110	0.252546	4.228931	-0.706956	-1.924793	-1.101422	29.033775	-70.223288	5.849246			
41150	8.159767	-0.022983	4.098939	-0.420939	-2.048375	-0.923914	28.580533	-70.464189	5.810286			
41151	8.433563	-0.229065	3.860464	-0.084439	-2.052347	-0.764971	28.064622	-70.634242	5.895185			
41152	8.669082	-0.253235	3.856870	-0.028823	-2.036754	-0.542131	27.539123	-70.744847	6.079266			
41153	8.852996	-0.286005	3.769235	0.088589	-1.984566	-0.393663	27.053799	-70.834507	6.300456			
41154	9.104113	-0.315882	3.673565	0.237490	-1.925962	-0.183880	26.636057	-70.917673	6.518469			
41155	9.513695	-0.054194	3.764353	0.142497	-1.721609	0.271924	26.315703	-70.984381	6.717738			
41156	9.830072	0.260370	3.692301	0.124540	-1.390486	0.597991	26.058512	-71.022804	6.911203			
41157	10.188167	0.586580	3.791918	-0.014771	-1.143744	1.013812	25.897605	-71.030459	7.064896			
41158	10.246893	0.838625	3.773634	-0.115281	-0.914048	1.100316	25.881881	-71.045594	7.078364			
41159	10.715908	0.706612	4.110160	-0.169363	-1.194211	1.622720	26.072580	-71.111912	6.848869			
41160	11.177046	0.159808	4.792663	-0.292251	-2.021745	2.176832	26.380854	-71.196560	6.469293			
41161	10.983173	-0.774308	5.097083	-0.134607	-3.005798	1.941326	26.801359	-71.315592	5.925907			
41162	10.780802	-1.428612	5.554825	-0.259826	-3.838662	1.776948	27.206565	-71.473738	5.349849			
41163	10.965926	-1.347542	5.877813	-0.538349	-3.958265	2.047257	27.406378	-71.587642	4.997819			
41164	11.457306	-1.080864	5.575539	-0.293260	-3.560263	2.465882	27.281286	-71.558005	5.098399			
41165	12.241743	-0.216383	4.541288	0.366599	-2.239428	3.047353	27.001502	-71.355026	5.626898			
41166	12.857629	0.560005	3.505874	1.049479	-0.980372	3.448546	26.732413	-71.061474	6.298240			
41167	12.988867	1.768278	3.891306	0.233469	-0.139384	3.858642	26.584931	-70.727065	6.858438			
41168	12.893050	3.257070	4.262343	-0.787953	0.917669	4.099291	26.548968	-70.328441	7.249964			
41169	12.771421	5.237193	3.508394	-1.195422	2.984095	4.062163	26.638576	-69.834685	7.497186			
41170	12.446228	6.688577	2.561638	-1.238413	4.702245	3.698851	26.774171	-69.241461	7.622703			
41171	11.492461	7.704403	2.330158	-1.818915	5.627694	2.910654	26.987614	-68.638022	7.542687			
41172	10.637072	7.852057	3.106888	-2.680852	5.271449	2.413456	27.295105	-68.175283	7.122567			
41173	9.374256	6.954455	3.771736	-3.080378	4.090882	1.333725	27.766047	-67.929128	6.331058			
41174	8.260762	6.316763	3.697546	-3.047921	3.547334	0.184313	28.367843	-67.975271	5.149915			
41175	7.504713	5.254920	2.782519	-2.056297	3.127892	-0.999899	28.923629	-68.267944	3.754414			
41176	7.034016	3.602156	2.363941	-1.076696	1.941405	-1.868333	29.311795	-68.665613	2.473862			
41177	6.746998	2.043295	2.716392	-0.727065	0.421979	-2.304763	29.488459	-69.093569	1.500490			
41178	7.037956	0.670842	2.835755	-0.117127	-0.817607	-2.240255	29.635778	-69.568470	0.733627			
41179	7.606261	-0.571473	2.421928	0.929380	-1.690958	-2.045842	29.865158	-70.065027	0.094957			
41180	7.896627	-1.278972	1.560407	1.991988	-1.893870	-2.139863	30.231072	-70.474457	-0.433884			
41181	8.956322	-1.460494	0.955926	2.872763	-1.777737	-1.336296	30.766223	-70.773490	-0.938868			
41182	9.995877	-0.807587	0.458120	3.284342	-0.995314	-0.378601	31.426216	-70.910943	-1.415747			
41183	11.307933	0.264343	-0.210988	3.747960	0.230296	0.858932	32.141451	-70.870682	-1.824527			
41184	12.580630	1.587918	-0.213006	3.555244	1.331762	2.287958	32.842967	-70.680334	-2.145108			
41185	12.128125	2.805721	-0.431771	3.034759	2.465860	2.013532	33.576738	-70.376622	-2.396894			
41186	11.006391	3.398984	0.149163	1.945803	2.654504	1.227383	34.283205	-70.017150	-2.629698			
41187	9.465077	3.504619	1.367175	0.435389	2.086675	0.146988	35.031015	-69.692631	-2.964786			
41188	8.865705	3.525322	2.229681	-0.439348	1.606550	-0.157336	35.861650	-69.521897	-3.513663			
41189	8.398200	3.578429	2.421873	-0.775007	1.504371	-0.520951	36.787927	-69.513425	-4.233804			
41190	7.433320	3.579661	2.158938	-0.917950	1.620766	-1.490459	37.758322	-69.614566	-5.030823			
41191	6.883147	3.727074	1.979108	-1.065885	1.811898	-2.017410	38.714954	-69.775293	-5.840179			
41192	6.243495	4.091705	1.828646	-1.381455	2.179855	-2.573432	39.659810	-69.986649	-6.679164			
41193	6.256388	4.257997	1.752605	-1.435947	2.322417	-2.540221	40.628420	-70.257811	-7.647302			
41194	7.192371	4.203602	1.671394	-1.071060	2.242266	-1.687491	41.659500	-70.567453	-8.778354			
41195	8.248904	3.524430	1.431504	-0.234781	1.712469	-0.894884	42.684815	-70.860671	-9.956705			
41196	8.840954	2.770981	1.232261	0.450367	1.114965	-0.543762	43.653484	-71.097859	-11.062993			
41197	9.098393	2.207208	0.917372	1.029548	0.755446	-0.492647	44.565823	-71.267245	-12.085205			
41198	9.098990	1.829113	0.782768	1.298095	0.469388	-0.601584	45.434174	-71.368526	-13.020228			
41199	8.987366	1.767603	0.703024	1.336968	0.426949	-0.734060	46.295269	-71.425544	-13.919011			
41200	8.805470	1.659796	0.702058	1.318725	0.310204	-0.927379	47.123525	-71.460821	-14.790739			
41201	8.567570	1.731549	0.890274	1.043479	0.247699	-1.092379	47.923030	-71.479275	-15.648121			
41202	8.246583	1.858616	1.039892	0.748462	0.262056	-1.332536	48.732151	-71.494011	-16.545311			
41203	8.025480	2.062906	1.179560	0.453113	0.338168	-1.461911	49.622740	-71.517226	-17.562344			
41204	8.132057	2.152596	1.388164	0.255309	0.248795	-1.294251	50.589651	-71.544075	-18.682541			
41205	8.328977	2.000134	1.663008	0.145312	-0.091568	-1.088681	51.629970	-71.572382	-19.910781			
41206	8.654613	1.560935	1.772228	0.344439	-0.601631	-0.868483	52.724344	-71.587126	-21.205653			
41207	8.987851	1.247028	1.854781	0.502905	-1.000453	-0.619068	53.859859	-71.576746	-22.508763			
41208	9.317934	0.852667	1.950598	0.688089	-1.479189	-0.394939	54.977682	-71.529942	-23.756345			
41209	9.379411	0.592349	1.815859	0.925629	-1.692493	-0.437190	56.044895	-71.438906	-24.887120			
41210	9.535470	0.609691	1.667987	1.075546	-1.679627	-0.320542	57.075965	-71.310805	-25.935269			
41211	9.487353	0.683213	1.595690	1.084676	-1.631825	-0.369001	58.008569	-71.137796	-26.851368			
41212	9.393297	0.664362	1.534358	1.124446	-1.656897	-0.484251	58.809490	-70.924662	-27.615466			
41213	9.140198	0.734916	1.405241	1.139194	-1.542859	-0.736366	59.496831	-70.680221	-28.252457			
41214	8.941916	0.850983	1.439890	1.018627	-1.480911	-0.895042	60.055491	-70.406741	-28.740679			
41215	8.722446	1.083851	1.593595	0.743668	-1.377431	-1.018100	60.490310	-70.106352	-29.082900			
41216	8.575452	1.283021	1.557854	0.666670	-1.209662	-1.111913	60.892376	-69.796353	-29.376730			
41217	8.419096	1.503834	1.570544	0.535978	-1.047650	-1.197338	61.285563	-69.491379	-29.660226			
41218	8.370602	1.581563	1.578796	0.506342	-1.019417	-1.224024	61.713042	-69.209994	-29.996535			
41219	8.483397	1.812288	1.716065	0.341876	-0.964668	-1.029200	62.171664	-68.957667	-30.402533			
41220	8.790188	2.101308	2.122778	-0.014348	-1.044031	-0.587791	62.569699	-68.718549	-30.798337			
41221	9.200218	2.230825	2.047851	0.134436	-1.011768	-0.180845	62.898381	-68.493815	-31.183293			
41222	9.532079	2.154112	1.778138	0.516665	-1.025978	0.053558	63.153171	-68.294977	-31.531288			
41223	9.806579	1.846843	1.621266	0.894663	-1.274780	0.176445	63.302414	-68.129827	-31.803027			
41224	9.969824	1.330367	1.458431	1.337540	-1.662499	0.124180	63.328823	-68.003364	-31.961468			
41225	10.232687	0.813718	1.581928	1.574840	-2.215101	0.211568	63.215803	-67.899317	-31.919244			
41226	10.331771	0.554192	1.808395	1.561767	-2.567499	0.251689	62.937273	-67.800599	-31.602582			
41227	10.472202	0.574176	1.975921	1.485375	-2.660018	0.415649	62.706979	-67.730100	-31.259106			
41228	10.639949	0.911333	1.964119	1.410978	-2.403874	0.681469	62.687013	-67.705523	-31.069959			
41229	11.133638	1.298010	1.821996	1.511986	-2.108871	1.243033	62.858962	-67.717119	-31.075841			
41230	11.421179	1.763302	1.416441	1.711069	-1.573456	1.595876	63.160145	-67.753080	-31.229848			
41231	11.730401	2.253045	1.939375	1.135570	-1.533857	2.137101	63.443665	-67.793521	-31.415246			
41232	12.073360	2.527734	2.187695	0.893893	-1.526271	2.589444	63.711222	-67.849259	-31.621282			
41233	12.284248	2.775157	2.136937	0.861669	-1.347582	2.860601	63.936673	-67.943345	-31.824140			
41234	12.175770	2.966448	2.456788	0.441609	-1.343822	2.879199	64.061499	-68.102159	-32.015651			
41235	12.156429	2.824415	2.254584	0.624620	-1.328036	2.784341	64.114434	-68.354853	-32.165540			
41236	12.108752	2.899533	1.883190	0.825546	-1.022288	2.711233	64.066941	-68.669685	-32.114832			
41237	12.106575	2.884480	1.316915	1.242110	-0.677679	2.621983	63.892130	-69.024018	-31.782175			
41238	11.953670	2.532138	0.142627	2.272472	-0.229916	2.191669	63.656528	-69.419890	-31.223002			
41239	11.172060	2.550284	-0.449478	2.455028	0.331135	1.384777	63.291429	-69.822814	-30.361372			
41240	10.740406	3.000905	-0.294146	1.917350	0.770955	1.149828	62.844043	-70.211756	-29.217253			
41241	10.218499	4.047783	-0.152213	1.052993	1.702325	0.995544	62.337467	-70.535111	-27.761376			
41242	9.902497	5.527299	-0.322918	0.247234	3.101196	1.097643	61.738790	-70.777965	-26.091554			
41243	9.875692	6.720633	-0.499661	-0.346147	4.210153	1.372117	60.865687	-70.890900	-24.123971			
41244	9.454976	7.757961	-0.165666	-1.365042	4.931793	1.296927	59.331293	-70.840369	-21.696619			
41245	8.969374	8.207582	0.434925	-2.239209	5.038936	1.031554	57.214619	-70.662945	-18.976061			
41246	9.273537	8.806638	1.782846	-3.480533	4.716819	1.692537	54.944564	-70.513245	-16.419363			
41247	9.339944	8.195662	2.183434	-3.361570	4.112643	1.630863	52.675432	-70.447808	-14.247970			
41248	8.886596	7.489307	2.414688	-3.225774	3.603998	1.026845	50.463919	-70.447840	-12.397299			
41249	8.293551	5.766362	2.414696	-2.391136	2.449699	-0.007363	48.358165	-70.490763	-10.832774			
41250	7.994719	4.153780	2.534833	-1.640833	1.251164	-0.683829	46.559331	-70.564995	-9.558745			
41251	8.604765	2.830903	3.150827	-1.163829	-0.107610	-0.293391	45.191879	-70.687861	-8.681865			
41252	9.302455	1.630484	3.065756	-0.220066	-0.974666	0.066292	44.176944	-70.837133	-8.107339			
41253	10.069070	1.310014	2.613260	0.528325	-0.946476	0.615941	43.489777	-70.991120	-7.734507			
41254	10.970234	1.651497	2.010154	1.074939	-0.316379	1.405979	42.932667	-71.111930	-7.374982			
41255	11.148441	1.832310	1.492129	1.427305	0.166833	1.492459	42.186251	-71.117786	-6.724464			
41256	10.521849	2.092197	1.312771	1.240981	0.557860	0.909177	41.228224	-70.983919	-5.713390			
41257	9.895814	2.294810	1.440460	0.864523	0.725782	0.385038	40.209868	-70.765520	-4.528230			
41258	9.045970	2.284105	2.009036	0.198728	0.464035	-0.282334	39.122861	-70.480366	-3.213561			
41259	8.556186	2.068715	2.579539	-0.234151	0.018088	-0.642827	38.086727	-70.193357	-1.921420			
41260	7.730351	1.684347	2.952392	-0.536760	-0.453414	-1.397350	37.067985	-69.896837	-0.599839			
41261	7.109121	1.230787	3.098349	-0.560504	-0.857379	-2.027792	36.053234	-69.596753	0.752095			
41262	6.736994	1.004149	3.179180	-0.575894	-1.045212	-2.391225	35.020000	-69.275157	2.153784			
41263	6.345652	0.646782	3.137698	-0.433105	-1.268241	-2.831683	34.031636	-68.955754	3.538135			
41264	6.537977	0.490058	2.999569	-0.127203	-1.263821	-2.715577	33.155909	-68.671272	4.877916			
41265	6.647171	0.877135	2.916299	-0.209777	-0.865437	-2.555565	32.406806	-68.410705	6.160934			
41266	6.932268	1.043059	3.013814	-0.236935	-0.749212	-2.222580	31.737060	-68.179753	7.370599			
41267	6.810085	1.454759	3.083183	-0.546549	-0.447118	-2.229755	31.169636	-67.996279	8.459907			
41268	6.970925	1.668147	3.013397	-0.545119	-0.203020	-2.059068	30.626534	-67.853556	9.437852			
41269	6.935024	1.386298	2.836404	-0.248558	-0.283523	-2.202213	30.072737	-67.734085	10.323648			
41270	6.775975	1.178979	2.800012	-0.145105	-0.403019	-2.399162	29.557385	-67.646963	11.099522			
41271	6.734632	1.157992	2.797708	-0.141423	-0.396308	-2.440694	29.093911	-67.615533	11.713489			
41272	6.680201	1.213199	2.742236	-0.160095	-0.302380	-2.498339	28.695727	-67.636271	12.167758			
41273	7.028618	1.130832	2.812781	-0.036093	-0.366858	-2.167030	28.398372	-67.685557	12.482052			
41274	6.932201	1.257265	2.782925	-0.137652	-0.249719	-2.243045	28.258438	-67.730290	12.713882			
41275	6.806478	1.199589	2.954106	-0.276480	-0.414896	-2.313001	28.320848	-67.845146	12.799178			
41276	7.305084	1.310795	3.394621	-0.484907	-0.585358	-1.686924	28.550455	-68.052424	12.765092			
41277	7.845583	1.091764	3.862932	-0.501380	-1.030903	-1.074662	28.780771	-68.306799	12.717821			
41278	7.927133	0.853526	4.199209	-0.583327	-1.444031	-0.937120	28.968678	-68.535359	12.721735			
41279	7.619193	0.710017	3.937943	-0.447305	-1.428749	-1.337893	29.258024	-68.743498	12.671130			
41280	7.768310	0.724696	3.839317	-0.359988	-1.366492	-1.232759	29.603895	-68.979570	12.517055			
41281	7.958151	0.596539	3.696088	-0.143007	-1.380763	-1.128104	29.960735	-69.240027	12.262062			
41282	8.211882	0.511542	4.193263	-0.379719	-1.776929	-0.758502	30.165857	-69.520166	11.972506			
41283	8.190722	0.146768	4.671545	-0.533198	-2.381098	-0.703429	30.195895	-69.813367	11.658248			
41284	8.218316	-0.067896	4.935715	-0.634669	-2.717193	-0.640978	30.066582	-70.131170	11.344422			
41285	8.455317	-0.364992	5.060197	-0.530605	-3.001722	-0.435118	29.797977	-70.445854	11.101471			
41286	8.847379	-0.484087	4.779609	-0.202640	-2.875092	-0.166574	29.441364	-70.707461	11.017169			
41287	9.029748	-0.518480	4.232800	0.208098	-2.528583	-0.154297	29.099842	-70.915241	11.046548			
41288	9.431606	-0.478284	4.079002	0.377880	-2.366721	0.191208	28.890393	-71.086141	11.079133			
41289	9.966870	-0.358313	3.993647	0.503342	-2.187580	0.693368	28.908078	-71.220233	11.006499			
41290	10.520742	0.167539	3.955810	0.360748	-1.738196	1.287357	29.227032	-71.329467	10.753158			
41291	11.149976	0.672938	3.831449	0.322449	-1.268391	1.923659	29.934853	-71.443911	10.194242			
41292	11.742719	1.150744	3.836706	0.197160	-0.930335	2.557889	30.920555	-71.557497	9.382514			
41293	11.813319	1.320146	4.025307	-0.031142	-0.990615	2.698013	31.984819	-71.653148	8.426511			
41294	11.834612	1.417258	4.527165	-0.452167	-1.307337	2.862010	32.897229	-71.712505	7.529850			
41295	12.450000	1.652205	5.243020	-0.919769	-1.613343	3.669619	33.429597	-71.686176	6.930285			
41296	13.796869	2.060860	5.129704	-0.648532	-1.191507	4.988468	33.419159	-71.533887	6.853777			
41297	15.579461	2.164369	3.403850	1.137008	0.082340	6.240050	33.106265	-71.325482	7.132992			
41298	16.250419	2.347145	2.939759	1.634862	0.588479	6.776696	32.692542	-71.054967	7.546959			
41299	14.646959	2.885797	2.773170	0.970859	1.076886	5.301846	32.487703	-70.826935	7.746202			
41300	13.709184	4.208995	3.190557	-0.394526	1.805793	4.761956	32.363182	-70.623872	7.784826			
41301	12.904363	5.294271	3.361837	-1.378346	2.526075	4.243347	31.985217	-70.264193	8.003096			
41302	11.157468	5.887034	2.997711	-1.972722	3.180282	2.602052	31.554586	-69.848460	8.244984			
41303	9.790890	5.872194	4.129003	-3.153860	2.431404	1.656122	31.229629	-69.465722	8.390163			
41304	7.951410	5.215326	4.712756	-3.748028	1.496988	0.002893	31.074233	-69.193619	8.312747			
41305	6.620756	4.624465	4.921592	-3.981496	0.859770	-1.277430	31.341911	-69.197851	7.677176			
41306	6.743052	4.155241	4.238676	-3.173007	0.929360	-1.459878	31.923260	-69.436990	6.548847			
41307	7.288403	3.517534	2.962136	-1.702920	1.222141	-1.453595	32.698520	-69.773697	5.193541			
41308	7.758578	3.009123	2.246837	-0.751032	1.236490	-1.315310	33.584609	-70.108561	3.830689			
41309	8.007493	2.418977	2.020481	-0.194352	0.862600	-1.252807	34.566564	-70.413398	2.488109			
41310	8.302796	1.869594	1.615813	0.483734	0.616289	-1.185496	35.643304	-70.708886	1.096849			
41311	8.663673	1.487353	0.955493	1.283413	0.645464	-1.087996	36.750113	-70.937517	-0.292935			
41312	9.344797	1.607356	0.573335	1.711663	0.907590	-0.513023	37.699493	-70.984655	-1.447068			
41313	9.837637	2.194997	0.380380	1.707534	1.442309	0.023248	38.329329	-70.782371	-2.154883			
41314	9.718202	2.813978	0.594864	1.206709	1.785430	0.090422	38.656853	-70.452385	-2.453858			
41315	9.423539	3.296344	1.638596	0.101782	1.542697	0.185483	38.831720	-70.110125	-2.535324			
41316	9.102118	3.573025	2.089049	-0.455353	1.488365	0.064380	39.047484	-69.864285	-2.605832			
41317	8.826637	3.615255	2.208854	-0.638538	1.436560	-0.148985	39.370687	-69.758514	-2.758941			
41318	8.667330	3.775701	1.978731	-0.610950	1.678531	-0.320424	39.928575	-69.825004	-3.146977			
41319	8.031038	3.643003	1.967348	-0.772523	1.556538	-0.945913	40.632787	-70.013804	-3.718765			
41320	7.877063	3.586405	1.981698	-0.842707	1.469863	-1.096804	41.384154	-70.280983	-4.417375			
41321	7.551173	3.478305	1.981359	-0.937849	1.357527	-1.426874	42.188485	-70.612026	-5.259472			
41322	7.267914	3.395608	1.715335	-0.832105	1.429075	-1.777752	43.010981	-70.957379	-6.201533			
41323	6.767441	3.265339	1.530323	-0.826554	1.425705	-2.323593	43.857367	-71.307100	-7.216901			
41324	6.838319	3.536753	1.430410	-0.923586	1.673143	-2.218962	44.708890	-71.652092	-8.251873			
41325	7.208574	3.659176	1.153687	-0.708264	1.895016	-1.901229	45.542194	-72.009827	-9.324798			
41326	7.957607	3.332344	0.745676	-0.027464	1.813396	-1.345417	46.343770	-72.346698	-10.425103			
41327	8.455724	2.893564	0.589161	0.445099	1.497978	-0.993568	47.093054	-72.603418	-11.489417			
41328	8.891103	2.397575	0.564316	0.834392	1.057772	-0.685622	47.710594	-72.763868	-12.448303			
41329	9.053875	1.753808	0.819027	1.013404	0.349659	-0.616494	48.207024	-72.824015	-13.279714			
41330	8.755886	1.589129	0.954921	0.901104	0.130594	-0.909113	48.679015	-72.820897	-14.070551			
41331	8.585402	1.533161	0.966155	0.869913	0.063361	-1.081574	49.187612	-72.803713	-14.910390			
41332	8.677284	1.831058	1.074105	0.649214	0.210472	-0.905617	49.703084	-72.789566	-15.769225			
41333	8.662902	1.723906	1.135997	0.648354	0.061685	-0.931022	50.184050	-72.777875	-16.636940			
41334	8.883480	1.823863	1.380801	0.456395	-0.038214	-0.650838	50.684358	-72.774487	-17.543850			
41335	9.170384	1.832976	1.368442	0.534911	-0.077958	-0.376794	51.255346	-72.772053	-18.535394			
41336	9.475126	1.954208	1.583631	0.374908	-0.155357	-0.017788	51.839755	-72.759233	-19.531936			
41337	9.730634	1.844969	1.699866	0.398037	-0.365783	0.221573	52.355536	-72.727641	-20.458721			
41338	10.028138	1.735717	1.912100	0.357316	-0.629738	0.517273	52.711500	-72.655188	-21.207018			
41339	9.486924	1.483461	1.830263	0.401446	-0.761677	-0.075599	52.933492	-72.558445	-21.783029			
41340	9.087774	1.215480	1.948287	0.328278	-1.022195	-0.500965	53.089522	-72.459433	-22.249091			
41341	8.824655	0.924633	1.956764	0.390380	-1.257025	-0.822366	53.277861	-72.387448	-22.721216			
41342	8.540632	0.752132	1.972546	0.377883	-1.392587	-1.134155	53.513314	-72.339844	-23.218445			
41343	8.212242	0.593671	2.020275	0.315680	-1.526290	-1.479282	53.743559	-72.299497	-23.708378			
41344	7.986371	0.498514	1.929861	0.366996	-1.546914	-1.736342	53.995669	-72.256445	-24.225198			
41345	8.324738	0.368261	1.724312	0.688251	-1.611987	-1.485748	54.279043	-72.200882	-24.775606			
41346	8.758409	0.287114	1.487094	1.042556	-1.637451	-1.138853	54.558137	-72.113517	-25.321975			
41347	9.250674	0.158652	1.320596	1.380437	-1.752847	-0.737117	54.789702	-71.982490	-25.814185			
41348	9.209654	0.059242	1.318066	1.423673	-1.857705	-0.808214	55.010047	-71.818320	-26.275824			
41349	9.072209	0.135898	1.421758	1.274362	-1.852307	-0.908211	55.275612	-71.635340	-26.744011			
41350	8.900737	0.379437	1.666297	0.923420	-1.767628	-0.971515	55.570152	-71.447608	-27.216511			
41351	8.926918	0.704444	1.951931	0.558980	-1.660261	-0.816736	55.860084	-71.254692	-27.677758			
41352	9.216984	1.010756	2.021065	0.465292	-1.501483	-0.453836	56.111486	-71.065425	-28.093752			
41353	9.436476	1.295914	2.163555	0.300317	-1.384882	-0.148357	56.324321	-70.886571	-28.449900			
41354	9.680426	1.384967	2.248168	0.276189	-1.410751	0.117895	56.509257	-70.735025	-28.744039			
41355	9.736336	1.415478	2.209432	0.326352	-1.396073	0.168586	56.694452	-70.610365	-28.977807			
41356	9.781154	1.301970	2.187595	0.415005	-1.509930	0.172277	56.924763	-70.530567	-29.214163			
41357	9.846178	1.095233	2.114475	0.584304	-1.681933	0.159646	57.227425	-70.502101	-29.517166			
41358	9.709546	1.050115	2.089410	0.574624	-1.704720	0.011128	57.635133	-70.522339	-29.962920			
41359	10.091973	1.186276	2.046533	0.639127	-1.652069	0.400320	58.208563	-70.604098	-30.655032			
41360	10.130181	1.558495	2.149919	0.362389	-1.412601	0.557683	58.956351	-70.736312	-31.608493			
41361	10.293300	1.956552	2.614594	-0.213919	-1.344240	0.900069	59.758207	-70.889831	-32.712849			
41362	10.735153	1.967315	2.278472	0.133768	-1.280218	1.261970	60.555301	-71.057283	-33.865153			
41363	11.567554	2.057187	2.203934	0.326372	-1.339395	2.061523	61.135383	-71.206039	-34.791051			
41364	11.991136	2.021606	2.423942	0.211243	-1.557007	2.486934	61.391124	-71.337623	-35.358280			
41365	13.018979	1.846936	2.720153	0.246941	-2.026949	3.458882	61.508626	-71.498411	-35.686853			
41366	13.850641	1.629107	1.672166	1.428352	-1.880223	4.033422	61.596652	-71.700263	-35.703147			
41367	14.220230	2.007642	0.380459	2.471792	-0.997540	4.304153	61.553416	-71.900761	-35.217322			
41368	14.182935	2.859843	-0.720236	3.051073	0.321874	4.344989	61.246195	-72.078911	-34.197185			
41369	13.249246	3.589688	-1.461607	3.123581	1.552210	3.543872	60.748666	-72.223367	-32.844177			
41370	12.298076	4.586475	-1.405687	2.359105	2.631434	2.905951	60.221704	-72.358325	-31.422360			
41371	12.177495	5.536881	-1.148635	1.632813	3.415040	3.069025	59.588281	-72.447049	-29.869724			
41372	10.829564	6.671223	-0.688436	0.321121	4.412952	2.132223	58.584435	-72.427010	-27.947476			
41373	10.217815	7.875757	0.002148	-1.023762	5.204728	1.947151	57.354545	-72.325649	-25.951201			
41374	9.315824	8.296736	0.298868	-1.722126	5.567721	1.221086	55.767810	-72.146809	-23.911055			
41375	8.807278	8.665120	1.040905	-2.622085	5.598659	0.935102	54.055692	-71.952665	-22.073829			
41376	8.801986	8.678259	2.685813	-3.924405	4.799508	1.212896	52.440664	-71.848281	-20.635987			
41377	8.455177	8.180359	3.473192	-4.362310	4.106250	0.891447	50.694772	-71.826296	-19.414087			
41378	7.797163	6.946421	3.319575	-3.762086	3.354354	-0.083308	48.641107	-71.833478	-18.126702			
41379	7.131731	5.384585	3.340184	-3.176364	2.223179	-1.096122	46.518899	-71.874424	-16.831793			
41380	7.239459	3.928800	3.645691	-2.693813	0.939318	-1.268913	44.670513	-72.001876	-15.803129			
41381	8.137203	2.527501	3.285382	-1.487530	-0.062419	-0.802771	43.081451	-72.173031	-14.989519			
41382	9.424418	1.592993	2.797714	-0.295154	-0.656971	0.120348	41.729759	-72.349582	-14.331950			
41383	10.740913	1.158251	2.010542	0.933271	-0.697544	1.114028	40.560975	-72.489370	-13.731542			
41384	11.097230	1.183523	1.249533	1.674890	-0.291228	1.287774	39.426660	-72.529624	-13.010024			
41385	10.697165	1.419550	0.731220	1.922160	0.232233	0.828283	38.373656	-72.455790	-12.189830			
41386	10.189402	1.704770	1.046975	1.416886	0.422970	0.465422	37.427886	-72.279620	-11.297611			
41387	9.421863	1.948496	1.750870	0.529282	0.415006	-0.056617	36.399125	-72.013286	-10.283775			
41388	9.083742	1.594915	2.402884	0.068905	-0.129454	-0.283259	35.376214	-71.705439	-9.223501			
41389	8.420851	1.264543	3.089190	-0.524536	-0.655910	-0.793431	34.330550	-71.330114	-8.045539			
41390	7.665726	0.999691	3.260504	-0.730930	-0.897326	-1.502836	33.334528	-70.907591	-6.838465			
41391	7.413885	0.855956	3.455227	-0.844940	-1.071115	-1.702499	32.435876	-70.444084	-5.670981			
41392	6.921799	0.699568	3.488912	-0.894402	-1.182334	-2.172350	31.638884	-69.933335	-4.547184			
41393	6.717457	0.602700	3.592901	-0.931909	-1.290109	-2.338530	31.005958	-69.419388	-3.530925			
41394	6.760581	0.781292	3.662902	-0.973685	-1.151479	-2.232566	30.523983	-68.915946	-2.597276			
41395	7.149317	0.983161	3.560114	-0.761479	-0.921478	-1.855029	30.154787	-68.456859	-1.710692			
41396	7.096637	1.568029	3.298215	-0.757875	-0.275424	-1.872369	29.899853	-68.046811	-0.888845			
41397	6.990951	1.937595	3.020913	-0.685055	0.185753	-1.986476	29.732886	-67.694924	-0.195242			
41398	6.793097	2.193192	2.897543	-0.737317	0.469210	-2.158399	29.662144	-67.417039	0.295968			
41399	6.631914	2.370555	2.862179	-0.827055	0.635989	-2.282392	29.711739	-67.256688	0.539130			
41400	6.790475	2.557954	3.004793	-0.955664	0.721334	-2.050674	29.777236	-67.223492	0.543628			
41401	6.731057	2.316785	3.037183	-0.893146	0.495072	-2.140902	29.784440	-67.276457	0.398687			
41402	7.321681	1.796666	3.380418	-0.708464	-0.122349	-1.581932	29.759895	-67.390226	0.169444			
41403	7.477456	1.122400	3.625480	-0.552258	-0.824027	-1.486092	29.706087	-67.502461	-0.022558			
41404	7.511484	0.636353	4.079533	-0.701933	-1.465543	-1.396670	29.642818	-67.617445	-0.144191			
41405	7.568675	0.350470	4.284858	-0.738413	-1.810636	-1.330708	29.596807	-67.759909	-0.217332			
41406	7.738811	0.257248	4.110321	-0.516819	-1.802784	-1.249223	29.556922	-67.926472	-0.250999			
41407	7.865065	0.262169	3.879546	-0.311453	-1.683514	-1.207597	29.535672	-68.091406	-0.260080			
41408	7.775604	0.257257	3.600387	-0.139660	-1.550247	-1.382611	29.537309	-68.230039	-0.263686			
41409	7.423487	0.089944	3.296287	0.035474	-1.549108	-1.838933	29.627350	-68.332538	-0.287806			
41410	7.051605	0.119958	3.173543	-0.029058	-1.470274	-2.220038	29.873711	-68.451728	-0.420392			
41411	6.954680	-0.032418	3.551640	-0.320798	-1.801387	-2.220929	30.149826	-68.644433	-0.671946			
41412	6.897731	-0.238557	4.316527	-0.901873	-2.367971	-2.076591	30.371710	-68.917231	-1.024389			
41413	6.825181	-0.447792	4.852052	-1.319241	-2.815618	-2.024386	30.477216	-69.243096	-1.414416			
41414	6.793899	-0.582442	4.848317	-1.330304	-2.925106	-2.087655	30.491463	-69.617632	-1.795896			
41415	7.214403	-0.560806	4.743152	-1.173314	-2.848845	-1.727721	30.381197	-69.958221	-2.002502			
41416	7.820901	-0.528414	4.915935	-1.176455	-2.893357	-1.103131	30.091116	-70.190872	-1.906093			
41417	8.542244	-0.710392	4.979528	-0.939406	-3.068947	-0.433494	29.650567	-70.334639	-1.557438			
41418	9.293818	-0.835205	4.846391	-0.540654	-3.098465	0.220621	29.267219	-70.429961	-1.150573			
41419	10.454619	-0.837024	4.545362	0.083039	-2.947488	1.231105	29.055596	-70.548601	-0.874773			
41420	11.639114	-0.746034	4.245950	0.661418	-2.725833	2.278050	29.116099	-70.711011	-0.851769			
41421	12.391938	-0.245175	3.838076	0.992925	-2.107377	2.951481	29.437661	-70.881835	-1.066322			
41422	12.460276	0.014483	3.050333	1.520796	-1.529360	2.832917	29.873808	-71.031225	-1.410724			
41423	12.098333	-0.060804	2.885135	1.550074	-1.540655	2.431534	30.268136	-71.116451	-1.704549			
41424	11.284412	-0.382746	3.201560	1.159125	-1.987433	1.695612	30.559591	-71.146286	-1.863898			
41425	10.454704	-0.911991	3.746606	0.673931	-2.721136	0.972062	30.849830	-71.209377	-1.988266			
41426	9.827943	-1.138859	4.904766	-0.390215	-3.487587	0.657586	31.057699	-71.292581	-1.985954			
41427	9.795339	-1.079636	6.194839	-1.496926	-4.072932	0.988273	31.020966	-71.363899	-1.711145			
41428	10.380227	-0.674082	6.096764	-1.400530	-3.675423	1.584844	30.757870	-71.358836	-1.042554			
41429	12.103417	0.511841	4.656360	-0.181696	-1.932944	3.019572	30.586533	-71.252331	-0.168274			
41430	14.965611	1.421148	3.392796	1.380297	-0.505925	5.528072	30.817250	-71.117127	0.472432			
41431	17.245514	2.933051	4.745212	0.333216	0.068230	8.309437	31.300348	-70.926383	0.702070			
41432	16.374017	5.631395	4.536266	-1.068890	2.399495	7.893174	32.048335	-70.604110	0.562514			
41433	14.921346	9.427227	1.134977	-0.711181	7.326583	6.269016	33.159592	-70.159002	-0.003844			
41434	13.599380	10.588630	0.090168	-0.841409	8.776414	4.997274	33.992093	-69.549783	-0.557953			
41435	10.600580	9.222734	1.840473	-2.418563	6.628206	2.476895	34.371200	-68.883463	-0.963124			
41436	7.700359	8.152645	4.529951	-4.884862	4.256123	0.400249	34.692306	-68.418855	-1.540535			
41437	6.543356	7.441406	5.485887	-5.618014	3.158883	-0.499038	35.187489	-68.273210	-2.514421			
41438	6.473019	6.928932	4.113606	-4.282319	3.494858	-1.078874	35.883384	-68.509348	-3.949125			
41439	6.286303	5.761492	2.434304	-2.452494	3.423719	-2.008739	36.592460	-69.022539	-5.569135			
41440	6.222629	4.164910	2.007373	-1.399962	2.294702	-2.541413	37.137010	-69.604780	-6.950883			
41441	6.190161	2.081335	1.942054	-0.440872	0.536402	-3.034842	37.677535	-70.173666	-8.124187			
41442	7.161256	0.108172	2.102294	0.580464	-1.312162	-2.487693	38.382624	-70.744459	-9.258753			
41443	8.366596	-1.519883	1.667001	1.984039	-2.604771	-1.789789	39.277461	-71.232534	-10.360990			
41444	9.171874	-1.704286	0.812704	2.964771	-2.430086	-1.269106	40.313005	-71.549949	-11.324461			
41445	10.026842	-1.116135	-0.417998	3.953518	-1.400423	-0.627568	41.304065	-71.678176	-12.032042			
41446	10.822139	0.171779	-1.191534	4.249440	0.028834	0.212749	41.989939	-71.568609	-12.215600			
41447	10.884871	1.462710	-0.839594	3.406206	0.960275	0.618050	42.232126	-71.242929	-11.822263			
41448	10.546329	2.677332	0.288693	1.851469	1.450409	0.814849	42.212071	-70.799064	-11.092705			
41449	10.079429	3.540672	1.398874	0.441313	1.629048	0.828705	42.219397	-70.368981	-10.397300			
41450	9.574348	4.338313	2.035809	-0.583829	1.970054	0.694999	42.464424	-70.044828	-9.975806			
41451	9.051425	4.581151	2.304022	-1.073467	2.018342	0.336082	42.967500	-69.844364	-9.876458			
41452	8.057738	4.247059	2.078169	-1.062342	1.877880	-0.722679	43.627498	-69.760551	-10.024780			
41453	7.166110	4.339239	1.891625	-1.282654	2.066005	-1.575784	44.420084	-69.793328	-10.413046			
41454	6.484426	4.247898	1.727540	-1.364822	2.084306	-2.271497	45.250856	-69.909376	-10.997775			
41455	6.251690	4.288817	1.741959	-1.505763	2.088874	-2.472312	46.084218	-70.079606	-11.727472			
41456	6.228209	4.183742	1.323795	-1.161341	2.214239	-2.615812	46.898867	-70.292926	-12.552606			
41457	6.794418	4.454571	1.150142	-1.012095	2.467239	-2.052636	47.679127	-70.527396	-13.421866			
41458	7.884519	4.026467	1.151515	-0.469501	2.008240	-1.126464	48.362256	-70.748304	-14.275916			
41459	8.589776	3.864561	1.139709	-0.181809	1.801734	-0.499331	48.956531	-70.914950	-15.006309			
41460	8.987095	3.541641	1.148262	0.079566	1.475775	-0.197840	49.474114	-71.017939	-15.629161			
41461	8.900592	3.011214	0.918230	0.490675	1.153449	-0.455348	50.071558	-71.089242	-16.298868			
41462	8.487128	2.404611	0.794796	0.754637	0.733903	-1.018542	50.771704	-71.172359	-17.101228			
41463	8.326818	1.967751	0.885220	0.834202	0.307848	-1.256943	51.529386	-71.289732	-18.025802			
41464	8.406666	1.582795	0.860786	1.048968	-0.033165	-1.279419	52.189767	-71.406866	-18.915983			
41465	8.277732	1.209745	0.934109	1.117353	-0.393559	-1.478814	52.665805	-71.490393	-19.657856			
41466	8.170069	1.143491	1.253319	0.841886	-0.633821	-1.535136	53.031504	-71.545815	-20.297541			
41467	8.245005	1.111448	1.375201	0.764971	-0.752987	-1.448814	53.396325	-71.592277	-20.921820			
41468	8.729062	1.086470	1.273551	0.987050	-0.792333	-1.015145	53.842507	-71.626850	-21.593964			
41469	9.096729	1.152894	1.230885	1.082513	-0.780533	-0.657711	54.315590	-71.631968	-22.232353			
41470	9.552225	1.136006	1.236537	1.209064	-0.878031	-0.229802	54.790212	-71.610011	-22.795037			
41471	9.676558	1.089546	1.482177	1.060841	-1.091751	-0.081173	55.256920	-71.562725	-23.273897			
41472	9.955297	0.986920	1.476892	1.196041	-1.235672	0.152537	55.704063	-71.494429	-23.657459			
41473	9.940174	1.117936	1.374054	1.216287	-1.095360	0.150527	56.132300	-71.401456	-23.950015			
41474	9.974685	1.372909	1.442290	1.053283	-0.951859	0.259250	56.552242	-71.295283	-24.212667			
41475	9.841571	1.524610	1.314762	1.053678	-0.767841	0.147717	57.029494	-71.171590	-24.520160			
41476	9.649040	1.862107	1.365712	0.798203	-0.524557	0.062746	57.558522	-71.035116	-24.916965			
41477	9.465966	1.928889	1.161045	0.888737	-0.367583	-0.130329	58.079976	-70.880152	-25.371497			
41478	9.145345	1.868307	0.939813	1.016730	-0.286045	-0.490914	58.567977	-70.714087	-25.851642			
41479	8.593055	1.742033	0.839664	1.009558	-0.289308	-1.067557	59.028100	-70.547238	-26.364154			
41480	8.318906	1.447677	1.193963	0.794324	-0.719069	-1.352344	59.504148	-70.401811	-26.960704			
41481	8.200512	1.107500	1.492300	0.687804	-1.175917	-1.515339	59.956140	-70.276757	-27.551291			
41482	8.253467	1.015150	1.770696	0.520805	-1.442803	-1.450115	60.461559	-70.182417	-28.184779			
41483	8.493771	1.081087	1.991281	0.373459	-1.578557	-1.172855	61.020544	-70.113249	-28.863640			
41484	8.919828	1.123152	2.013919	0.451323	-1.656679	-0.761040	61.549600	-70.064750	-29.505006			
41485	9.081687	1.247004	1.828887	0.582702	-1.509359	-0.606215	61.979747	-70.005865	-30.015344			
41486	9.280815	1.456156	1.698411	0.643851	-1.325183	-0.380411	62.319738	-69.939514	-30.419828			
41487	9.531109	1.524884	1.639973	0.732500	-1.301614	-0.136633	62.560636	-69.868640	-30.727739			
41488	9.786066	1.559156	1.591982	0.834382	-1.309552	0.103024	62.716370	-69.792537	-30.930895			
41489	9.704708	1.623752	1.649799	0.736214	-1.287782	0.053384	62.856172	-69.729475	-31.099654			
41490	9.849196	1.648043	1.785082	0.656836	-1.380023	0.215937	63.035721	-69.693917	-31.334257			
41491	10.071968	1.739168	1.826291	0.636705	-1.382792	0.458001	63.353200	-69.706547	-31.749334			
41492	10.149178	1.926164	2.076566	0.340882	-1.396336	0.625799	63.821945	-69.768324	-32.357421			
41493	10.058809	2.585368	2.492263	-0.380093	-1.080188	0.806336	64.434358	-69.877102	-33.201535			
41494	10.811064	2.802664	2.586114	-0.395769	-1.114253	1.590097	65.176113	-70.026342	-34.249318			
41495	11.442434	3.190800	2.337795	-0.246731	-0.801963	2.265042	65.710945	-70.162352	-35.116515			
41496	11.766216	3.312899	2.003964	0.022062	-0.596969	2.559783	66.017212	-70.292941	-35.753683			
41497	12.466818	3.200926	2.106176	0.139101	-0.877423	3.199387	66.184068	-70.447917	-36.194159			
41498	12.708358	2.793760	1.358352	0.980104	-0.867199	3.204214	66.318367	-70.662161	-36.496519			
41499	13.282194	2.775139	0.802209	1.564060	-0.686088	3.672278	66.359664	-70.923313	-36.542504			
41500	13.229720	3.039719	-0.286439	2.307685	0.145512	3.566418	66.191535	-71.187707	-36.202806			
41501	13.508669	3.095490	-1.730900	3.537973	0.945085	3.665114	65.874016	-71.454670	-35.560417			
41502	13.263991	3.624116	-2.240904	3.621647	1.789521	3.520336	65.149164	-71.706959	-34.359191			
41503	11.733311	4.673786	-1.609612	2.165693	2.719532	2.435508	63.925492	-71.916754	-32.460084			
41504	10.543889	5.778124	-0.877139	0.667995	3.550606	1.688426	62.735470	-72.131203	-30.462667			
41505	9.613329	6.555508	-0.425912	-0.396900	4.170478	1.051057	61.687687	-72.339612	-28.605498			
41506	9.195980	7.161836	-0.273102	-0.998366	4.705500	0.807741	60.497865	-72.487385	-26.833873			
41507	8.903328	7.253724	-0.012644	-1.358520	4.738712	0.559605	58.955067	-72.534489	-25.019125			
41508	8.069486	7.853902	1.085141	-2.764305	4.785262	0.058332	57.072049	-72.481978	-23.161188			
41509	7.753422	8.160014	2.510627	-4.103730	4.362526	0.042807	55.042415	-72.432620	-21.554288			
41510	7.588005	7.614475	2.898460	-4.107531	3.847543	-0.206367	53.007074	-72.462739	-20.282277			
41511	7.125591	6.574770	2.634514	-3.422455	3.328837	-0.972692	50.839465	-72.550288	-19.102554			
41512	6.675143	4.760723	2.621891	-2.585730	2.002763	-1.850434	48.592142	-72.659798	-17.924146			
41513	6.628266	3.065533	2.751273	-1.864832	0.623594	-2.260642	46.571729	-72.807760	-16.915261			
41514	7.403735	1.622130	2.635324	-0.878347	-0.526942	-1.853935	44.921390	-72.999495	-16.217898			
41515	9.062679	0.684097	2.502731	0.097966	-1.338140	-0.481923	43.720466	-73.204261	-15.857458			
41516	10.557050	0.335766	2.136060	0.944454	-1.534093	0.811865	42.831757	-73.373121	-15.692910			
41517	11.293206	0.344476	1.775922	1.422675	-1.382560	1.451125	42.225280	-73.483896	-15.690508			
41518	11.447258	0.701735	1.353101	1.663555	-0.867243	1.582201	41.833856	-73.525971	-15.736865			
41519	11.356012	1.095210	1.206055	1.608924	-0.432597	1.537962	41.413489	-73.449069	-15.596724			
41520	10.995442	1.488031	1.553795	1.082920	-0.191519	1.337137	40.732343	-73.216308	-15.040849			
41521	10.356697	1.680871	2.027758	0.478749	-0.153709	0.861810	39.818737	-72.863439	-14.189995			
41522	9.591952	1.453119	2.536104	-0.009527	-0.495285	0.202445	38.868781	-72.449038	-13.197607			
41523	8.600650	1.030786	2.793818	-0.271399	-0.891421	-0.758945	38.021067	-72.007858	-12.196218			
41524	7.746558	0.811502	2.994313	-0.536259	-1.102915	-1.558650	37.394199	-71.568207	-11.292347			
41525	7.016747	1.059680	3.222333	-0.989399	-0.931911	-2.138488	36.938962	-71.133153	-10.474475			
41526	6.677526	0.939663	3.465221	-1.189860	-1.129639	-2.410803	36.592972	-70.721764	-9.756251			
41527	6.558256	0.659070	3.402738	-0.998363	-1.347165	-2.586911	36.357772	-70.353110	-9.120624			
41528	6.594337	1.006179	3.480753	-1.145420	-1.086512	-2.456017	36.238474	-70.034357	-8.532110			
41529	6.685216	0.962147	3.205429	-0.819380	-1.008831	-2.450395	36.141787	-69.777725	-7.972097			
41530	6.580516	1.367039	3.105398	-0.914194	-0.609860	-2.490957	36.149006	-69.600749	-7.528361			
41531	7.160346	1.518218	3.240934	-0.872368	-0.579567	-1.876552	36.193421	-69.520187	-7.265948			
41532	7.431587	1.475434	3.089199	-0.623534	-0.559936	-1.673510	36.196905	-69.483710	-7.078541			
41533	7.406436	1.455049	3.049517	-0.585408	-0.557998	-1.712196	36.153844	-69.468866	-6.950866			
41534	7.361477	1.264687	2.930156	-0.416704	-0.661312	-1.827350	36.135089	-69.487524	-6.924295			
41535	7.186086	1.110329	2.745731	-0.261963	-0.696400	-2.075886	36.166776	-69.544238	-7.009397			
41536	7.368890	0.905599	2.709843	-0.087195	-0.865710	-1.957318	36.250161	-69.621753	-7.173193			
41537	7.643906	0.825061	2.966068	-0.179856	-1.077117	-1.644760	36.364899	-69.701398	-7.342805			
41538	7.852397	0.671656	3.213454	-0.257190	-1.346748	-1.412827	36.535867	-69.791399	-7.521129			
41539	7.939715	0.780805	3.519456	-0.545931	-1.415564	-1.225872	36.810949	-69.913847	-7.754744			
41540	7.979563	0.774623	3.565553	-0.591560	-1.459202	-1.180924	37.183817	-70.092440	-8.070187			
41541	8.051404	0.943023	3.603267	-0.707162	-1.351867	-1.073684	37.630285	-70.317074	-8.480485			
41542	8.050273	1.021202	3.682618	-0.848139	-1.338834	-1.043454	38.026040	-70.568694	-8.903648			
41543	8.153112	1.161632	3.861421	-1.069591	-1.320620	-0.877086	38.318666	-70.828508	-9.276485			
41544	8.333950	1.302254	4.078494	-1.299941	-1.316913	-0.627894	38.459645	-71.088979	-9.544714			
41545	8.619956	1.233795	4.154378	-1.285883	-1.422234	-0.357090	38.441752	-71.339768	-9.673835			
41546	8.901376	1.192978	4.232661	-1.284823	-1.495757	-0.082070	38.238184	-71.554347	-9.593508			
41547	9.079166	1.134637	4.064455	-1.095335	-1.451674	0.032677	37.880740	-71.730141	-9.346522			
41548	9.332319	1.091628	3.862402	-0.854106	-1.376442	0.216160	37.429404	-71.872803	-9.010919			
41549	9.561585	1.213367	3.577909	-0.618842	-1.114286	0.388926	36.955345	-71.982672	-8.643847			
41550	9.740343	1.259224	3.216476	-0.293307	-0.879331	0.480335	36.463526	-72.049836	-8.246445			
41551	9.938373	0.900692	2.920557	0.169017	-1.034399	0.532048	36.038635	-72.085587	-7.899748			
41552	10.162825	0.580440	2.963134	0.338466	-1.325522	0.700566	35.774093	-72.122093	-7.713110			
41553	10.717845	0.238722	3.537415	0.163977	-1.911158	1.312198	35.689635	-72.179781	-7.737041			
41554	11.179240	0.066748	3.876587	0.073231	-2.239565	1.805691	35.750782	-72.279771	-7.940783			
41555	11.550881	0.225209	4.493621	-0.434547	-2.406724	2.339884	35.795699	-72.383108	-8.161543			
41556	12.232897	0.468648	5.306622	-1.044109	-2.588001	3.234752	35.443792	-72.387855	-8.021928			
41557	13.254540	1.013643	5.400162	-1.033173	-2.146301	4.336426	34.511411	-72.209296	-7.267910			
41558	14.589928	1.289987	3.976101	0.534754	-1.215177	5.306022	33.256148	-71.889956	-6.077016			
41559	15.862775	1.612834	3.483529	1.315076	-0.649589	6.441864	32.087380	-71.505716	-4.812996			
41560	15.631233	2.112384	3.751542	0.927751	-0.235652	6.372285	31.140326	-71.052739	-3.664054			
41561	14.446419	4.122272	2.611513	0.750842	2.150974	5.264471	30.811195	-70.609317	-2.986285			
41562	14.033730	6.205826	1.960507	0.343928	4.307421	5.040884	30.978072	-70.129598	-2.719489			
41563	12.331617	6.328540	2.249290	-0.431814	4.278574	3.554619	31.313777	-69.600292	-2.750806			
41564	9.580265	5.624772	3.738170	-2.218048	2.956827	1.310726	31.722075	-69.201868	-3.043715			
41565	7.679787	5.717889	5.177159	-4.060244	2.352690	0.008485	32.131716	-68.986414	-3.557899			
41566	6.312389	5.361237	5.344036	-4.501735	1.983415	-1.271712	32.516133	-68.961453	-4.232527			
41567	6.109608	4.571924	4.879924	-3.848398	1.526431	-1.756432	32.871825	-69.163894	-4.999442			
41568	6.503035	3.363817	4.158390	-2.619554	0.803032	-1.850915	33.125148	-69.514044	-5.641102			
41569	6.952445	2.419054	3.626908	-1.665308	0.207964	-1.779878	33.318572	-69.905167	-6.086473			
41570	7.166981	1.708783	2.545327	-0.439694	0.067729	-2.030269	33.739694	-70.317947	-6.574872			
41571	7.446446	1.258097	1.686923	0.505715	0.031554	-2.091231	34.654583	-70.768817	-7.406284			
41572	8.283003	1.275859	0.977112	1.301728	0.296409	-1.481562	36.064986	-71.199546	-8.687035			
41573	9.547774	1.572083	-0.449489	2.715981	1.095799	-0.579309	37.754124	-71.503918	-10.246833			
41574	10.701658	2.198193	-1.593918	3.727985	2.042334	0.376938	39.292129	-71.579420	-11.644479			
41575	11.002536	2.940199	-2.106977	3.930227	2.852614	0.701853	40.206429	-71.354264	-12.377741			
41576	10.642889	3.626276	-1.339539	2.914283	3.076272	0.687716	40.523487	-70.915788	-12.452870			
41577	8.703684	3.954629	0.569094	0.612445	2.565925	-0.606299	40.488877	-70.388891	-12.149310			
41578	7.858559	4.022053	2.044247	-0.867509	1.955238	-1.007176	40.511869	-69.992199	-11.958291			
41579	7.853848	3.862840	2.410596	-1.064320	1.621579	-0.944032	40.632272	-69.766956	-11.908678			
41580	7.591729	3.708440	2.426437	-1.080959	1.481404	-1.215513	40.853330	-69.677692	-11.929224			
41581	7.155466	3.561235	2.376213	-1.127616	1.390614	-1.668727	41.244070	-69.734295	-12.102746			
41582	7.033514	3.166082	2.266987	-0.926756	1.090139	-1.901543	41.801881	-69.920186	-12.485894			
41583	7.280204	3.017454	1.804185	-0.433641	1.149979	-1.822020	42.539097	-70.185895	-13.097047			
41584	7.776117	3.117315	1.354595	0.010395	1.394059	-1.441500	43.400595	-70.452948	-13.883904			
41585	7.927581	3.195035	1.063020	0.220752	1.561217	-1.345196	44.326749	-70.671203	-14.765837			
41586	8.347422	3.326258	0.841273	0.440131	1.712825	-0.962633	45.253136	-70.844342	-15.686258			
41587	8.595083	3.408106	0.737212	0.535146	1.776258	-0.724648	46.067272	-70.970714	-16.547197			
41588	9.033089	3.547549	0.821181	0.513786	1.779499	-0.251023	46.736337	-71.064249	-17.306005			
41589	9.243878	3.540064	0.876438	0.517793	1.695748	-0.034869	47.288169	-71.129016	-17.977901			
41590	9.040014	3.380483	1.018138	0.396057	1.483509	-0.229973	47.732253	-71.171930	-18.574282			
41591	8.571762	3.056158	1.190349	0.243512	1.146232	-0.709998	48.166741	-71.230967	-19.221468			
41592	8.209920	2.681238	1.170033	0.304315	0.852596	-1.144283	48.641102	-71.322163	-19.965908			
41593	8.039935	2.464954	1.337746	0.189639	0.584440	-1.319835	49.103538	-71.428153	-20.754797			
41594	8.064551	2.235706	1.565023	0.084957	0.257237	-1.303209	49.543622	-71.535840	-21.558936			
41595	8.272329	1.900758	1.610368	0.230015	-0.095066	-1.176972	50.019955	-71.643661	-22.403861			
41596	8.654545	1.584990	1.631209	0.431681	-0.446211	-0.885839	50.625893	-71.747501	-23.371412			
41597	9.189027	1.126479	1.545732	0.819936	-0.901926	-0.506211	51.376512	-71.841742	-24.466347			
41598	9.646566	0.725373	1.512918	1.110794	-1.334549	-0.176495	52.183543	-71.894279	-25.577871			
41599	9.987966	0.482130	1.566076	1.229985	-1.660524	0.095596	52.960310	-71.899118	-26.608777			
41600	10.113670	0.301472	1.569702	1.312285	-1.880902	0.166346	53.658003	-71.863205	-27.499104			
41601	10.098695	0.181950	1.408107	1.482897	-1.951189	0.086467	54.287786	-71.789581	-28.251099			
41602	9.877575	0.265204	1.514026	1.289943	-1.931693	-0.089849	54.876160	-71.690407	-28.875165			
41603	9.631647	0.334840	1.735488	1.000927	-1.969294	-0.272636	55.425600	-71.574132	-29.405622			
41604	9.346462	0.519848	1.935364	0.678918	-1.887310	-0.466604	55.932773	-71.434599	-29.843611			
41605	9.025208	0.785710	2.114557	0.336729	-1.717533	-0.675967	56.383474	-71.279180	-30.212660			
41606	8.724531	0.845836	2.082360	0.267770	-1.633349	-0.956645	56.850117	-71.130578	-30.606328			
41607	8.651955	0.844669	1.995555	0.330439	-1.614722	-1.047106	57.379177	-71.002031	-31.081297			
41608	8.476900	0.684273	1.642677	0.654247	-1.596145	-1.324540	57.991618	-70.906807	-31.663142			
41609	8.474229	0.429279	1.605309	0.781855	-1.833468	-1.410256	58.673500	-70.849162	-32.328404			
41610	8.330647	0.439697	1.696989	0.645432	-1.872880	-1.533289	59.366701	-70.814014	-33.004313			
41611	8.511868	0.428788	1.577231	0.788201	-1.890232	-1.390747	60.074387	-70.798901	-33.700489			
41612	8.585003	0.693748	1.401373	0.837956	-1.621957	-1.279552	60.751064	-70.778437	-34.321732			
41613	8.767777	1.098148	1.435640	0.680491	-1.349421	-0.989036	61.365776	-70.738267	-34.850463			
41614	8.840417	1.400695	1.489775	0.521868	-1.153979	-0.827685	61.878105	-70.666563	-35.280847			
41615	8.869846	1.647822	1.566352	0.359699	-1.009385	-0.719028	62.335907	-70.566757	-35.671063			
41616	9.042409	1.675927	1.659739	0.313984	-1.090009	-0.536813	62.737711	-70.459717	-36.046079			
41617	9.325191	1.627065	1.658052	0.413647	-1.214252	-0.288502	63.090367	-70.352623	-36.403494			
41618	9.442372	1.381585	1.550963	0.641847	-1.424132	-0.271593	63.350447	-70.248198	-36.695168			
41619	9.652396	1.230696	1.562260	0.755446	-1.623535	-0.121587	63.581398	-70.147973	-36.895132			
41620	10.100552	1.263622	1.612819	0.824758	-1.728698	0.314031	63.797842	-70.077764	-37.036073			
41621	10.100062	1.352268	1.649280	0.758667	-1.684674	0.343409	64.006027	-70.036882	-37.171416			
41622	10.144422	1.827755	1.841309	0.400842	-1.389482	0.557897	64.381095	-70.058653	-37.506929			
41623	10.418493	2.698994	2.307285	-0.314135	-0.933257	1.150129	64.943343	-70.144139	-38.097411			
41624	11.067368	3.122372	2.174168	-0.244813	-0.663108	1.869046	65.694565	-70.291944	-38.960743			
41625	11.709228	3.464253	1.786121	0.065797	-0.342831	2.523242	66.337385	-70.450106	-39.774450			
41626	12.300440	3.398023	1.112311	0.782991	-0.223968	2.970943	66.747565	-70.610675	-40.392730			
41627	13.063455	3.321760	1.344216	0.756353	-0.557924	3.700689	67.002971	-70.779495	-40.833510			
41628	13.589339	3.047125	1.078328	1.180515	-0.774984	4.084196	67.291217	-71.005525	-41.226248			
41629	13.540205	2.794036	0.742397	1.503324	-0.811097	3.926914	67.647051	-71.285848	-41.550474			
41630	13.823024	2.766788	-0.037545	2.201404	-0.513742	4.102122	68.035265	-71.573508	-41.740161			
41631	13.419120	2.869697	-1.593186	3.372413	0.406554	3.577879	68.283368	-71.822080	-41.654845			
41632	13.310109	3.180273	-2.705301	4.150087	1.265195	3.445040	68.157426	-72.012803	-41.099661			
41633	12.235567	3.796727	-2.416043	3.362919	1.954989	2.630369	67.495228	-72.137728	-39.893816			
41634	10.864727	4.952133	-1.126196	1.408610	2.681690	1.791541	66.568837	-72.221486	-38.295706			
41635	10.156877	5.706311	-0.395322	0.255160	3.166282	1.402912	65.776294	-72.302879	-36.724228			
41636	9.908781	6.743274	-0.109578	-0.549811	3.993731	1.475151	64.983156	-72.365140	-35.225802			
41637	8.886124	7.076076	-0.043306	-1.031832	4.461509	0.582791	63.717497	-72.352955	-33.441598			
41638	8.328258	7.469378	0.904366	-2.147726	4.445313	0.266773	62.089696	-72.279272	-31.498800			
41639	7.339453	7.863479	1.936193	-3.419583	4.455326	-0.436835	60.169274	-72.181562	-29.542985			
41640	7.274592	7.933033	2.569445	-3.942356	4.275769	-0.398379	58.145780	-72.146372	-27.776524			
41641	7.245009	7.305093	2.545467	-3.566546	3.875061	-0.615092	55.862939	-72.183461	-25.997342			
41642	6.645890	6.062366	2.559136	-3.098821	3.022134	-1.522244	53.291052	-72.233619	-24.030446			
41643	6.049328	4.610539	2.819130	-2.770908	1.848123	-2.416467	50.834873	-72.331991	-22.229743			
41644	6.502854	3.243125	2.897225	-2.070082	0.689934	-2.300256	48.703982	-72.488113	-20.797858			
41645	7.790061	2.306873	2.712630	-1.134451	-0.075582	-1.323183	47.055535	-72.688491	-19.842062			
41646	9.089743	1.710533	2.352602	-0.217312	-0.481777	-0.283558	45.856872	-72.896544	-19.292143			
41647	10.277568	1.520710	1.756202	0.689593	-0.433352	0.692628	44.983066	-73.068263	-18.992120			
41648	10.642087	1.585449	1.120992	1.303736	-0.085046	0.925898	44.263812	-73.171080	-18.757558			
41649	10.923323	1.758073	0.934310	1.477074	0.155678	1.190798	43.572965	-73.180150	-18.440191			
41650	10.739164	2.041574	1.020029	1.264902	0.421432	1.085032	42.649633	-73.053697	-17.775314			
41651	10.655621	1.970303	1.505068	0.894996	0.195898	1.089134	41.557950	-72.820185	-16.828383			
41652	9.737207	1.884187	2.105922	0.206333	-0.017865	0.324120	40.452520	-72.521830	-15.712786			
41653	9.050286	1.430425	2.567385	-0.154663	-0.528941	-0.313155	39.425279	-72.228573	-14.605272			
41654	8.286197	0.911905	2.735062	-0.264747	-0.975067	-1.097643	38.491248	-71.938320	-13.503032			
41655	7.810947	0.761471	2.867746	-0.405993	-1.104257	-1.540438	37.591225	-71.623095	-12.335709			
41656	7.197174	1.031574	3.146431	-0.881798	-0.916943	-1.993177	36.684271	-71.256831	-11.087029			
41657	6.823224	1.077679	3.039466	-0.865481	-0.786597	-2.356950	35.946321	-70.892988	-9.945622			
41658	6.727885	1.378696	3.054804	-0.977799	-0.510313	-2.377612	35.510403	-70.567035	-9.006756			
41659	6.785153	1.637316	2.986125	-0.962437	-0.253761	-2.286385	35.306608	-70.280651	-8.273335			
41660	6.940175	1.942344	3.184745	-1.169922	-0.091745	-2.021405	35.259239	-70.048277	-7.740515			
41661	7.304407	2.150834	3.327401	-1.227652	-0.003611	-1.594121	35.287714	-69.882592	-7.408305			
41662	7.547623	2.299172	3.314848	-1.178579	0.112907	-1.336887	35.277724	-69.769834	-7.184847			
41663	7.356125	2.367095	3.145785	-1.119906	0.258732	-1.548878	35.203154	-69.697407	-7.018724			
41664	7.458722	2.171075	2.861455	-0.755791	0.220990	-1.571695	35.110299	-69.678438	-6.939774			
41665	7.658717	2.140049	2.666504	-0.511104	0.283908	-1.445838	35.006928	-69.704620	-6.903061			
41666	7.697245	1.884619	2.613122	-0.346597	0.091542	-1.476066	34.844608	-69.755027	-6.874422			
41667	7.698463	1.644529	2.783446	-0.392198	-0.189834	-1.474312	34.662696	-69.832062	-6.863935			
41668	7.585048	1.481059	3.130778	-0.663958	-0.481672	-1.514773	34.511272	-69.945197	-6.896511			
41669	7.525920	1.333778	3.461913	-0.919396	-0.754623	-1.506757	34.457487	-70.113166	-7.028925			
41670	7.538222	1.200730	3.524949	-0.942393	-0.895389	-1.505950	34.504386	-70.341729	-7.257121			
41671	7.474914	0.916285	3.479847	-0.844914	-1.120035	-1.636213	34.631731	-70.623142	-7.571569			
41672	7.507417	0.576826	3.566171	-0.811096	-1.460915	-1.650626	34.814630	-70.940166	-7.938446			
41673	7.678867	0.416477	3.658575	-0.820458	-1.653912	-1.499158	35.059853	-71.287946	-8.362947			
41674	7.897544	0.315923	3.608622	-0.725138	-1.732195	-1.329378	35.312985	-71.650804	-8.785677			
41675	8.099456	0.195146	3.559527	-0.631138	-1.827418	-1.177215	35.521424	-72.014363	-9.177473			
41676	8.195195	0.137512	3.523834	-0.608293	-1.864944	-1.109286	35.668036	-72.367401	-9.501832			
41677	8.299248	0.338993	3.771108	-0.929870	-1.795228	-0.917411	35.737922	-72.680772	-9.716161			
41678	8.682444	0.632609	3.669108	-0.898041	-1.497250	-0.528346	35.680630	-72.927198	-9.773064			
41679	8.980263	0.829349	3.425902	-0.717393	-1.215747	-0.269261	35.508101	-73.095166	-9.672982			
41680	9.091827	1.010338	3.256399	-0.633830	-0.970291	-0.171992	35.278457	-73.188597	-9.473624			
41681	9.203367	1.150117	3.198380	-0.618658	-0.811320	-0.054953	35.035203	-73.227542	-9.253547			
41682	9.507269	1.121859	3.042201	-0.388303	-0.771199	0.195119	34.879176	-73.240997	-9.136773			
41683	10.068437	1.106804	3.207303	-0.367620	-0.877826	0.769350	34.855386	-73.250070	-9.204560			
41684	10.743491	0.891148	3.381032	-0.244555	-1.178702	1.421144	34.928079	-73.280537	-9.461749			
41685	11.030672	0.201599	3.297248	0.171938	-1.780501	1.562215	35.089382	-73.354894	-9.906145			
41686	11.210588	-0.666615	3.573328	0.295513	-2.699729	1.655280	35.339091	-73.491752	-10.499093			
41687	11.418852	-1.561288	4.274515	0.041640	-3.824439	1.869388	35.502978	-73.665189	-11.028765			
41688	11.898032	-1.894910	5.066945	-0.448771	-4.475811	2.458956	35.269247	-73.813873	-11.129727			
41689	12.963369	-1.770724	5.267437	-0.419529	-4.462512	3.560416	34.399655	-73.878030	-10.511287			
41690	14.399619	-1.448792	4.989708	0.106787	-4.044709	4.951219	32.823398	-73.765966	-9.026210			
41691	15.123225	-1.554126	3.124198	2.065704	-3.293746	5.212948	31.057744	-73.487126	-7.137280			
41692	14.626282	-0.996062	1.997772	2.810191	-2.192953	4.547089	29.855584	-73.133663	-5.509979			
41693	14.193002	0.567771	2.924359	1.373890	-1.068920	4.584681	29.212216	-72.772778	-4.358701			
41694	14.194572	2.269856	3.043326	0.703378	0.462453	4.856674	28.830532	-72.306803	-3.455423			
41695	14.057616	4.873314	2.259732	0.401848	3.166717	4.893816	28.737269	-71.678913	-2.716353			
41696	13.420086	6.288032	2.283103	-0.273010	4.428343	4.510868	28.826122	-70.935358	-2.182432			
41697	12.332593	6.998022	3.270497	-1.630894	4.603661	3.895204	29.052481	-70.253770	-1.946624			
41698	11.137921	7.344448	4.208026	-2.852704	4.459571	3.136245	29.354881	-69.713610	-2.029887			
41699	9.804633	7.085502	4.067512	-2.997913	4.277000	1.832012	29.763686	-69.367456	-2.445556			
41700	8.534943	6.290455	3.422853	-2.513135	3.867807	0.329061	30.108834	-69.244404	-3.037596			
41701	6.963881	4.892471	3.090228	-2.178668	2.802728	-1.483249	30.353104	-69.323708	-3.628746			
41702	5.833189	3.810904	3.377113	-2.373903	1.738467	-2.650548	30.534860	-69.562461	-4.104074			
41703	5.261401	2.722055	3.138580	-1.950134	0.892938	-3.461141	30.662968	-69.897402	-4.422788			
41704	5.298444	1.867052	2.672902	-1.228298	0.336528	-3.723212	30.807853	-70.248276	-4.599205			
41705	5.612371	1.203213	2.272907	-0.548819	-0.092771	-3.664306	31.110929	-70.606693	-4.777623			
41706	6.470564	0.496645	1.690103	0.480249	-0.500768	-3.142627	31.746351	-70.989324	-5.176248			
41707	7.596422	0.386642	0.812161	1.590450	-0.259096	-2.334866	32.710500	-71.328759	-5.807580			
41708	9.179766	0.911393	-0.125471	2.624107	0.553358	-0.985338	33.771931	-71.528422	-6.500695			
41709	10.754203	1.754779	-1.016263	3.483098	1.623540	0.434115	34.708657	-71.531757	-7.038628			
41710	11.056283	2.731588	-1.494769	3.554696	2.673538	0.777572	35.392109	-71.323678	-7.253758			
41711	10.623505	3.425875	-0.687361	2.456586	2.899347	0.705240	35.869445	-70.974911	-7.191765			
41712	9.533065	3.699902	0.845840	0.742910	2.422235	0.130387	36.174847	-70.571690	-6.955567			
41713	8.872768	3.732685	1.807680	-0.246949	1.980202	-0.223926	36.479715	-70.264528	-6.758110			
41714	8.398988	3.765160	2.250800	-0.761997	1.778790	-0.536873	36.802175	-70.080738	-6.605939			
41715	7.828015	3.758573	2.197000	-0.904960	1.795291	-1.084033	37.185459	-70.017202	-6.517315			
41716	7.181740	3.905425	2.065764	-1.101688	1.985950	-1.692386	37.607596	-70.056125	-6.504834			
41717	6.850526	3.982520	1.766908	-1.035229	2.193792	-2.064940	38.071771	-70.164064	-6.599627			
41718	6.977181	4.042982	1.601947	-0.920008	2.302268	-1.973937	38.555052	-70.306341	-6.795245			
41719	7.700677	3.846130	1.542450	-0.566634	2.114908	-1.346386	39.046353	-70.468371	-7.065986			
41720	8.608517	3.630525	1.430364	-0.103446	1.931214	-0.561051	39.584993	-70.632731	-7.410626			
41721	9.185705	3.602085	1.357421	0.125609	1.895219	-0.035826	40.137440	-70.762173	-7.770090			
41722	9.370338	3.335621	1.115017	0.485482	1.767769	0.026624	40.658580	-70.857765	-8.115849			
41723	9.319434	3.182203	1.069394	0.559664	1.640122	-0.059814	41.204263	-70.933437	-8.500975			
41724	9.237313	2.929781	1.150750	0.575595	1.360710	-0.166296	41.783244	-71.005088	-8.963182			
41725	9.039500	2.698939	1.274509	0.511955	1.081360	-0.368659	42.369113	-71.075818	-9.502338			
41726	8.882103	2.691424	1.452119	0.307346	0.957212	-0.472807	42.946526	-71.142904	-10.102737			
41727	8.697868	2.649977	1.366099	0.324025	0.953225	-0.673332	43.484672	-71.211577	-10.713933			
41728	8.449528	2.537246	1.409564	0.254573	0.827468	-0.920587	43.911329	-71.276260	-11.260116			
41729	8.520059	2.153018	1.527752	0.361651	0.418917	-0.910182	44.307797	-71.357865	-11.811597			
41730	8.807916	1.747574	1.759628	0.451050	-0.083570	-0.673804	44.718573	-71.448990	-12.378926			
41731	9.296481	1.343474	1.824798	0.732543	-0.511205	-0.285813	45.183650	-71.530566	-12.953473			
41732	9.612408	1.155242	1.650669	1.046083	-0.622349	-0.067125	45.744339	-71.593616	-13.539794			
41733	9.778666	1.026985	1.441480	1.313562	-0.658449	0.015627	46.382886	-71.641303	-14.139537			
41734	9.783479	1.016135	1.240634	1.468561	-0.591551	-0.025887	47.075931	-71.671287	-14.749185			
41735	9.741540	1.100763	1.183662	1.447696	-0.520887	-0.058556	47.795710	-71.677473	-15.365632			
41736	9.661178	1.366207	1.153649	1.308365	-0.311732	-0.079924	48.480730	-71.636828	-15.936161			
41737	9.581130	1.599628	1.314652	1.039004	-0.233602	-0.068408	49.090747	-71.535984	-16.432808			
41738	9.345173	1.847640	1.689278	0.552537	-0.247082	-0.156953	49.632732	-71.372202	-16.876264			
41739	9.341987	1.851212	2.048658	0.279501	-0.477894	-0.086946	50.168767	-71.184082	-17.349178			
41740	9.237936	1.858797	2.173359	0.165052	-0.570003	-0.160446	50.779689	-70.985546	-17.907728			
41741	9.220760	1.820935	2.186306	0.188763	-0.650916	-0.186752	51.474890	-70.791598	-18.562668			
41742	9.205181	1.748800	2.102027	0.306546	-0.709405	-0.241129	52.192965	-70.597534	-19.240012			
41743	9.014316	1.658153	1.928764	0.449935	-0.713272	-0.484445	52.851748	-70.399112	-19.863659			
41744	8.538280	1.603055	1.751912	0.486977	-0.649289	-0.987591	53.508888	-70.209475	-20.472465			
41745	8.183079	1.683876	1.773891	0.329920	-0.594780	-1.299042	54.192170	-70.035856	-21.115619			
41746	8.285226	1.894518	1.573228	0.428406	-0.365144	-1.187596	54.924038	-69.881212	-21.831898			
41747	8.530157	2.243780	1.438300	0.449343	-0.079591	-0.887532	55.632823	-69.714568	-22.548870			
41748	8.826866	2.587063	1.397213	0.417992	0.138416	-0.519433	56.299707	-69.525498	-23.264460			
41749	9.046253	2.766235	1.359218	0.445719	0.227388	-0.268914	56.943465	-69.315581	-24.007796			
41750	9.281819	2.776750	1.333476	0.556723	0.166476	-0.050374	57.530908	-69.087593	-24.759425			
41751	9.258830	2.618129	1.348979	0.637163	-0.017434	-0.117649	58.032260	-68.846830	-25.487231			
41752	9.046432	2.406731	1.442310	0.619368	-0.253345	-0.364801	58.403574	-68.606626	-26.152784			
41753	8.868990	2.224232	1.704150	0.461228	-0.554699	-0.539621	58.628362	-68.365339	-26.700747			
41754	8.779953	2.064107	1.971605	0.314573	-0.845008	-0.624530	58.728847	-68.144955	-27.129781			
41755	8.717814	1.883990	2.262992	0.161689	-1.159634	-0.685810	58.745169	-67.960498	-27.448442			
41756	8.501737	1.857627	2.420769	-0.012160	-1.241780	-0.865719	58.773190	-67.830204	-27.753541			
41757	8.350212	1.750480	2.396100	0.011054	-1.301694	-1.047017	58.909107	-67.771289	-28.182564			
41758	8.406707	1.724330	2.126476	0.256587	-1.203187	-1.057436	59.139996	-67.768255	-28.737227			
41759	8.506574	1.591645	1.810086	0.595195	-1.179757	-1.070525	59.401652	-67.804448	-29.358639			
41760	8.384843	1.414903	1.816218	0.603578	-1.322081	-1.239829	59.730343	-67.892512	-30.079619			
41761	8.468022	1.586246	2.291638	0.123030	-1.449410	-1.017284	60.076085	-68.020984	-30.849517			
41762	8.756842	1.740229	1.937951	0.405267	-1.203730	-0.765424	60.438262	-68.196715	-31.636710			
41763	9.078704	2.003376	1.430471	0.781458	-0.795503	-0.472505	60.707952	-68.384840	-32.281259			
41764	9.263623	2.352272	1.677811	0.441269	-0.657440	-0.141293	60.898470	-68.585203	-32.805030			
41765	9.333181	2.585799	2.096353	-0.037044	-0.670453	0.073578	61.183117	-68.833006	-33.396936			
41766	9.651760	2.682965	2.238559	-0.163422	-0.712610	0.426013	61.698516	-69.157692	-34.200608			
41767	10.506875	3.013443	2.250044	-0.137028	-0.601152	1.329897	62.334057	-69.523788	-35.088134			
41768	11.522384	3.418448	1.409540	0.627110	-0.053444	2.272062	62.925679	-69.883329	-35.862350			
41769	12.092230	3.677171	0.420406	1.456810	0.528832	2.737926	63.379342	-70.203520	-36.397983			
41770	12.587028	3.987466	-0.065203	1.815968	0.939834	3.231698	63.677041	-70.487211	-36.679517			
41771	12.998716	4.162766	-0.452244	2.126157	1.214419	3.622490	63.901269	-70.758459	-36.770167			
