// General information: 
//  MT Manager version: 2022.0.0 
//  XDA version: 2022.0.0 build 7085 rev 119802 built on 2022-11-08
// Device information: 
//  DeviceId: 00B492A8
//  ProductCode: MTW2-3A7G6
//  Firmware Version: 4.6.0
//  Hardware Version: 2.0.0
// Device settings: 
//  Filter Profile: human(46.1)
//  Option Flags: Orientation Smoother Disabled, Position/Velocity Smoother Disabled, Continuous Zero Rotation Update Disabled, AHS Disabled, ICC Disabled
// Coordinate system: ENU
PacketCounter	Acc_X	Acc_Y	Acc_Z	FreeAcc_E	FreeAcc_N	FreeAcc_U	Roll	Pitch	Yaw	Vel_E	Vel_N	Vel_U
40738	9.298275	0.757544	-2.859561	-0.086641	-0.276929	-0.059499	167.714091	-70.859501	-80.880458			
40739	9.391850	0.808501	-2.825269	-0.140655	-0.331625	0.021584	167.809601	-70.905988	-80.927559			
40740	9.413729	0.749427	-2.697276	-0.095343	-0.455036	-0.002536	167.916368	-70.956376	-81.002314			
40741	9.358016	0.668758	-2.751701	-0.021265	-0.381310	-0.043056	168.017728	-71.008395	-81.050740			
40742	9.268109	0.866361	-2.834354	-0.224281	-0.258418	-0.088239	168.119260	-71.058423	-81.083263			
40743	9.319379	0.895155	-2.908570	-0.253144	-0.196413	-0.014257	168.239608	-71.105615	-81.157966			
40744	9.194108	0.687482	-3.010418	-0.055255	-0.061054	-0.114230	168.404573	-71.159818	-81.268481			
40745	9.092170	0.628908	-3.052958	-0.009955	0.016050	-0.201066	168.585472	-71.202087	-81.318629			
40746	9.170507	0.884065	-3.031712	-0.272420	-0.014129	-0.117502	168.761414	-71.246645	-81.342921			
40747	9.049173	0.849548	-2.919057	-0.261519	-0.076649	-0.270367	168.974805	-71.310399	-81.441227			
40748	9.110764	0.570475	-2.860412	0.004339	-0.152642	-0.247643	169.184764	-71.371363	-81.551243			
40749	9.111171	0.447729	-2.872288	0.115001	-0.135527	-0.250662	169.389957	-71.447715	-81.613187			
40750	9.102934	0.451003	-2.656430	0.088742	-0.328286	-0.325445	169.631055	-71.502970	-81.683046			
40751	9.417583	0.494701	-2.805372	0.053083	-0.278727	0.022209	169.868289	-71.537265	-81.735211			
40752	9.375075	0.708319	-2.820952	-0.174100	-0.241362	-0.001320	170.101169	-71.577027	-81.751168			
40753	9.122643	1.014703	-2.809551	-0.504802	-0.163587	-0.228105	170.348753	-71.615361	-81.778340			
40754	9.085268	1.188273	-2.725034	-0.695683	-0.227807	-0.281475	170.603808	-71.642526	-81.844660			
40755	9.096310	1.075929	-2.621233	-0.599524	-0.331678	-0.309957	170.877268	-71.655749	-81.988158			
40756	9.115089	0.812610	-2.847973	-0.342917	-0.126635	-0.235501	171.123336	-71.657411	-82.142469			
40757	9.132767	0.731335	-2.831004	-0.274155	-0.150934	-0.228382	171.370396	-71.660088	-82.293663			
40758	9.091482	0.706614	-2.717340	-0.266349	-0.248922	-0.304514	171.622338	-71.651231	-82.446823			
40759	9.345933	0.691563	-2.831356	-0.251540	-0.224755	-0.028644	171.894601	-71.631456	-82.611817			
40760	9.269284	0.730194	-2.949891	-0.304865	-0.092648	-0.063169	172.167522	-71.624487	-82.756089			
40761	9.172978	0.820379	-2.810428	-0.416001	-0.199235	-0.194877	172.476196	-71.609703	-82.919872			
40762	9.238945	0.827715	-2.913107	-0.434888	-0.127901	-0.100638	172.785185	-71.594069	-83.083126			
40763	9.193306	0.831647	-2.785116	-0.457532	-0.240314	-0.184693	173.087715	-71.584152	-83.225189			
40764	9.084764	0.901914	-2.648898	-0.548057	-0.341833	-0.328711	173.405933	-71.559960	-83.388746			
40765	9.010932	0.884678	-2.891824	-0.547830	-0.096328	-0.324128	173.730175	-71.520413	-83.578193			
40766	8.988496	0.997134	-2.923544	-0.676009	-0.069170	-0.332569	174.020379	-71.484032	-83.770387			
40767	8.841387	0.924578	-2.860111	-0.623227	-0.090273	-0.495574	174.317757	-71.448401	-84.046771			
40768	8.670216	0.473867	-2.981070	-0.193925	0.075197	-0.634415	174.659889	-71.407212	-84.376751			
40769	8.649891	0.296799	-2.989411	-0.033485	0.080634	-0.656398	174.974052	-71.335733	-84.607900			
40770	8.784199	0.547581	-3.133132	-0.293568	0.157761	-0.476338	175.213767	-71.259684	-84.703609			
40771	8.749639	0.924428	-3.109835	-0.683226	0.126994	-0.506836	175.464890	-71.183295	-84.794351			
40772	9.024875	0.877153	-2.920063	-0.639196	-0.155830	-0.309444	175.737512	-71.104291	-84.933255			
40773	9.158539	0.605684	-2.859704	-0.376503	-0.266808	-0.210051	176.005648	-71.023396	-85.076119			
40774	9.302061	0.477876	-2.994527	-0.257651	-0.199314	-0.034254	176.215316	-70.932842	-85.205099			
40775	9.324579	0.069552	-2.730862	0.142398	-0.462530	-0.108257	176.482827	-70.858286	-85.488044			
40776	9.388955	-0.829080	-2.582081	1.024352	-0.619934	-0.113549	176.932247	-70.797990	-86.077420			
40777	9.770105	-2.042644	-2.948882	2.210643	-0.394632	0.350010	177.539881	-70.751221	-86.909851			
40778	9.992608	-3.059145	-3.213982	3.189413	-0.217101	0.642962	178.229558	-70.777350	-87.715569			
40779	9.259706	-3.393171	-3.196020	3.473870	0.017123	-0.045288	178.895404	-70.835654	-88.176567			
40780	8.833882	-2.784090	-3.101908	2.827352	0.078431	-0.463341	179.456116	-70.808544	-88.218509			
40781	9.386571	-1.941764	-3.696305	1.948379	0.454000	0.263942	179.902291	-70.743559	-87.973680			
40782	9.725423	-1.147012	-3.682276	1.127372	0.312170	0.583954	-179.633963	-70.722550	-87.689370			
40783	9.711968	-0.646212	-3.381233	0.609091	0.017829	0.473286	-179.117864	-70.725620	-87.425472			
40784	9.488004	-0.183490	-3.247382	0.122955	-0.057625	0.216414	-178.646074	-70.731097	-87.101824			
40785	9.026376	0.255729	-3.164635	-0.343873	-0.017619	-0.250410	-178.143159	-70.731063	-86.850708			
40786	8.908899	0.592849	-3.084034	-0.702897	-0.092738	-0.393108	-177.602181	-70.708312	-86.761554			
40787	8.852523	0.771228	-3.107782	-0.910819	-0.082058	-0.443383	-177.103483	-70.672916	-86.845353			
40788	9.115798	0.688272	-3.191659	-0.857569	-0.096432	-0.168343	-176.638661	-70.606769	-87.067107			
40789	9.103376	0.909637	-3.117137	-1.090306	-0.202555	-0.211355	-176.331471	-70.523530	-87.192091			
40790	9.203723	1.441632	-3.111902	-1.625442	-0.318435	-0.131404	-176.278708	-70.415564	-87.143725			
40791	8.962638	1.846469	-3.172930	-2.036657	-0.244357	-0.347060	-176.359057	-70.314657	-87.063197			
40792	8.922140	1.983042	-2.878599	-2.134962	-0.538229	-0.486617	-176.457459	-70.167927	-87.129583			
40793	8.888905	1.540410	-3.274930	-1.731843	-0.126616	-0.373656	-176.599265	-69.992812	-87.338772			
40794	8.585545	0.756468	-3.618764	-0.980673	0.358188	-0.523489	-176.791709	-69.810676	-87.565214			
40795	8.399638	0.497634	-3.342214	-0.683116	0.166628	-0.786200	-177.080421	-69.639965	-87.659582			
40796	8.417460	0.743329	-3.144249	-0.890639	-0.068138	-0.840814	-177.441635	-69.461238	-87.637105			
40797	8.809641	1.200270	-3.219471	-1.323402	-0.196924	-0.451857	-177.887125	-69.252367	-87.570410			
40798	9.259552	1.169712	-3.118605	-1.252983	-0.473200	-0.063881	-178.338904	-69.032556	-87.624625			
40799	9.246245	0.292828	-3.219681	-0.360555	-0.343487	-0.030202	-178.777042	-68.811425	-87.861912			
40800	9.084583	-0.783955	-3.352605	0.727331	-0.140594	-0.125831	-179.117228	-68.574835	-88.305666			
40801	9.133101	-2.032603	-3.491341	1.986517	-0.033083	-0.025618	-179.335107	-68.345770	-88.950108			
40802	8.941543	-3.459222	-3.733200	3.415721	0.231227	-0.110468	-179.414453	-68.175337	-89.683357			
40803	8.594522	-4.319581	-3.747073	4.284017	0.314094	-0.425819	-179.517529	-68.034423	-90.173726			
40804	8.427308	-3.917563	-3.631536	3.895425	0.210578	-0.629225	-179.768998	-67.809220	-90.102386			
40805	8.921312	-2.270710	-3.319261	2.271299	-0.312880	-0.299196	179.787880	-67.513214	-89.514144			
40806	9.305530	-0.689759	-3.097066	0.723324	-0.713752	-0.033750	179.353508	-67.260069	-88.842440			
40807	8.966628	-0.043048	-2.653476	0.102808	-1.041510	-0.520342	179.144140	-66.963975	-88.414420			
40808	9.313653	0.144341	-3.263361	-0.064308	-0.664936	0.034545	178.767505	-66.695410	-88.045555			
40809	8.961150	-0.447178	-2.636839	0.548843	-1.136761	-0.546541	178.586034	-66.424926	-87.864216			
40810	9.287213	-0.442176	-2.659011	0.566086	-1.294698	-0.246016	178.295763	-66.104815	-87.595868			
40811	9.630715	-0.321009	-2.345371	0.473804	-1.773951	-0.066774	178.039770	-65.803377	-87.393323			
40812	9.827044	-0.514640	-2.197018	0.690531	-2.037433	0.037912	177.760110	-65.513013	-87.250453			
40813	9.960806	-0.809463	-1.908595	1.006150	-2.400625	0.022965	177.471030	-65.247843	-87.169283			
40814	9.695242	-1.241467	-1.928954	1.444244	-2.314650	-0.230612	177.246234	-64.994546	-87.206726			
40815	8.991389	-1.538753	-2.886491	1.742538	-1.198937	-0.481530	176.992065	-64.695404	-87.189039			
40816	8.583439	-0.980689	-3.804595	1.200099	-0.245429	-0.452589	176.772021	-64.413160	-87.020074			
40817	8.418604	0.033230	-3.237731	0.191997	-0.729613	-0.824497	176.662742	-64.156284	-86.773650			
40818	8.404076	0.692354	-2.701158	-0.461558	-1.249208	-1.058809	176.624304	-63.891693	-86.582319			
40819	8.292875	0.823358	-3.435375	-0.580523	-0.587389	-0.836651	176.477861	-63.570312	-86.439177			
40820	8.489215	0.899527	-4.493257	-0.623673	0.218233	-0.188327	176.146181	-63.197929	-86.292497			
40821	8.589997	1.040768	-4.966073	-0.718183	0.533596	0.123715	175.611197	-62.802975	-86.074020			
40822	8.206706	0.899227	-5.157024	-0.532077	0.815733	-0.127421	175.003382	-62.384957	-85.961919			
40823	7.968378	0.097546	-5.533358	0.331388	1.181024	-0.188912	174.404600	-61.889912	-85.965602			
40824	8.153944	-0.700528	-5.767988	1.204628	1.196181	0.054637	173.887062	-61.344128	-86.012071			
40825	8.452787	-1.244350	-5.281417	1.786565	0.512612	0.058271	173.478324	-60.810982	-85.980899			
40826	8.809760	-1.023212	-4.386908	1.569016	-0.530516	-0.057701	173.146499	-60.290359	-85.826081			
40827	9.422606	-0.239135	-3.512729	0.794137	-1.654296	0.077405	172.799617	-59.802477	-85.524868			
40828	10.103012	0.606221	-2.463621	-0.046934	-2.950101	0.177407	172.423063	-59.411647	-85.225515			
40829	10.039258	0.639523	-1.572977	-0.105670	-3.735788	-0.341548	172.045391	-59.159946	-85.073221			
40830	9.917280	-0.314761	-1.489843	0.853792	-3.809712	-0.569950	171.610507	-59.002336	-85.056143			
40831	10.595621	-1.592979	-2.678179	2.260706	-3.190433	0.516285	171.235309	-59.174217	-84.957970			
40832	10.054980	-1.320223	-1.517910	1.897865	-3.851851	-0.500840	170.764835	-59.598668	-84.637346			
40833	10.342015	-0.554009	-0.775989	1.114026	-4.535346	-0.536077	170.273906	-59.981852	-84.357773			
40834	10.822575	-0.684870	0.076559	1.206354	-5.472765	-0.528480	169.845577	-60.190208	-84.320312			
40835	11.230149	-1.346137	-0.035415	1.891745	-5.615355	-0.178450	169.396459	-60.058427	-84.391412			
40836	12.602730	-2.115428	-1.203086	2.840703	-5.383121	1.487898	168.943549	-59.822739	-84.433771			
40837	12.566163	-2.436142	-1.544416	3.208239	-5.128247	1.573124	168.563678	-59.825549	-84.321472			
40838	11.983295	-1.447993	-0.966662	2.150324	-5.254588	0.882910	168.200423	-59.964331	-84.161082			
40839	11.692208	-1.067993	-0.973483	1.773855	-5.054859	0.680063	167.755008	-60.084278	-84.089093			
40840	12.000826	-1.006783	-1.141547	1.755308	-5.048036	1.039629	167.368562	-60.140783	-84.136974			
40841	12.511773	-0.944503	-1.056126	1.704054	-5.367928	1.449350	167.173408	-60.181543	-84.282560			
40842	13.460014	-1.758643	-1.401647	2.601624	-5.601359	2.356358	166.890681	-60.337546	-84.220044			
40843	14.592488	-2.328330	-0.672814	3.141480	-6.768638	2.959528	166.694109	-60.841552	-83.833547			
40844	15.529744	-2.812644	1.273854	3.462158	-8.768403	2.908433	166.757667	-61.816642	-83.116237			
40845	15.062559	-2.620255	5.181126	2.894079	-11.660520	0.968048	166.935697	-63.427605	-82.113930			
40846	10.898976	-1.777499	8.859512	1.601555	-12.783468	-3.943943	167.094731	-64.857330	-81.286448			
40847	11.375662	-1.496476	4.889855	1.829531	-9.221819	-1.617353	167.057207	-65.645114	-80.713235			
40848	13.310964	-1.665865	6.369512	2.099801	-11.204621	-0.296006	167.162995	-66.683346	-80.080481			
40849	12.902040	-0.832444	5.618327	1.400683	-10.103457	-0.082929	167.029514	-68.058298	-79.140796			
40850	13.567899	0.135424	2.035323	0.754614	-6.709959	2.130697	166.079198	-69.509597	-77.699063			
40851	13.619187	-0.184011	1.247713	1.175415	-5.656742	2.584083	165.009771	-71.047297	-76.133704			
40852	13.449639	0.217189	-0.615846	0.868431	-3.480213	3.165846	163.607327	-72.498356	-74.401864			
40853	13.981850	0.322673	-2.337053	0.886703	-1.637959	4.243575	161.722547	-73.827025	-72.636113			
40854	14.875230	-0.163451	-4.103521	1.516041	0.162796	5.543244	160.169326	-74.981501	-71.372837			
40855	14.846327	0.645867	-4.582537	0.714835	0.934327	5.693454	159.303775	-75.939206	-70.608533			
40856	15.535669	2.561197	-5.518434	-1.122838	2.003404	6.712658	157.948185	-76.969034	-69.661514			
40857	13.888208	1.763964	-5.974030	-0.445926	3.072074	5.088326	157.040189	-77.975279	-69.401720			
40858	13.416842	-0.307025	-4.427617	1.480813	1.788206	4.127085	157.041021	-78.684145	-69.924238			
40859	14.139692	-1.159758	-4.947779	2.381209	2.268127	4.848159	156.861870	-79.406984	-70.836062			
40860	13.618182	-5.098841	-10.786872	6.719905	7.997692	4.975358	156.771700	-80.508087	-71.662274			
40861	12.883651	-5.548486	-9.482516	6.909081	7.113317	3.910726	157.955193	-82.368321	-72.261434			
40862	11.342239	-3.474805	-5.605494	4.262548	4.082185	1.904359	158.157848	-84.335891	-71.667598			
40863	11.598467	-3.092145	-5.737035	3.711145	4.639813	2.090280	158.001283	-86.188578	-70.709384			
40864	11.733625	-1.976052	-5.563907	2.403863	4.929205	2.122356	154.944240	-88.103471	-66.810368			
40865	10.936067	-0.717197	-4.333530	0.918701	4.149884	1.178768	82.175159	-89.770537	6.833763			
40866	10.693850	0.300591	-4.555412	-0.259329	4.712135	0.813621	-11.319042	-88.347193	101.064343			
40867	10.416653	1.073318	-4.302139	-1.186793	4.737695	0.400192	-15.705277	-86.646510	106.011228			
40868	9.676590	0.523264	-3.868425	-0.767460	4.523591	-0.441699	-17.542048	-85.031433	108.339836			
40869	8.938354	0.813291	-3.597799	-1.161787	4.408412	-1.285659	-18.543131	-83.512843	109.734874			
40870	8.524229	-0.002871	-3.198110	-0.442556	4.177165	-1.735493	-19.468665	-82.065441	111.113205			
40871	7.763180	0.380717	-3.525620	-0.916283	4.553402	-2.652727	-20.145701	-80.719331	112.371770			
40872	7.540456	0.640516	-4.281448	-1.313734	5.382950	-3.112394	-20.686962	-79.493373	113.597607			
40873	7.085139	1.386495	-4.980861	-2.189659	6.049205	-3.851189	-20.695214	-78.312507	114.446166			
40874	6.380605	1.960925	-4.433011	-2.806037	5.404703	-4.604861	-20.144200	-77.176716	114.948899			
40875	5.993761	2.407443	-3.536302	-3.263850	4.448242	-4.935684	-19.415718	-76.159135	115.252680			
40876	5.989557	2.270173	-3.796539	-3.249730	4.742100	-5.080626	-18.482744	-75.185916	115.292259			
40877	5.613009	2.190887	-3.491195	-3.184571	4.397592	-5.452315	-17.470642	-74.234491	115.168440			
40878	5.348551	2.070457	-3.260597	-3.078325	4.153927	-5.714723	-16.774811	-73.396066	115.187589			
40879	5.223878	2.506123	-2.849077	-3.492756	3.682708	-5.822122	-16.427577	-72.664991	115.323920			
40880	5.274046	2.007074	-2.690023	-3.027017	3.651718	-5.740599	-16.489354	-72.061535	115.608016			
40881	5.048158	2.044148	-2.404012	-3.025051	3.333433	-5.916688	-16.713716	-71.601616	116.006947			
40882	5.029997	1.715808	-3.103298	-2.822982	4.061421	-6.150610	-17.205059	-71.229142	116.481121			
40883	4.755382	0.965341	-2.999084	-2.051839	4.030160	-6.335946	-17.755708	-70.925691	116.976824			
40884	4.497980	0.866409	-2.699415	-1.891150	3.700153	-6.495805	-18.403696	-70.714631	117.553885			
40885	4.510681	0.499528	-2.647557	-1.542393	3.722569	-6.440922	-19.137253	-70.575538	118.250235			
40886	4.251232	0.879413	-0.760823	-1.640866	1.803903	-6.141360	-20.165527	-70.513923	119.178139			
40887	4.643977	-0.883626	-0.698093	0.005009	2.151910	-5.546097	-21.563418	-70.585278	120.451195			
40888	5.412019	-0.786491	0.571587	-0.087764	1.133722	-4.432908	-22.876846	-70.667995	121.902908			
40889	6.205001	-0.359824	2.291248	-0.460437	-0.380058	-3.215378	-24.587846	-70.822937	123.523718			
40890	8.066943	0.158296	3.256281	-1.232986	-0.933132	-1.250429	-26.397698	-70.995304	125.155061			
40891	9.765940	-0.066043	3.906528	-1.310234	-1.131744	0.562311	-27.930267	-71.166638	126.526535			
40892	10.718614	-0.651636	4.773892	-0.868804	-1.682347	1.785487	-29.106032	-71.315962	127.553704			
40893	11.572649	-1.169244	5.501558	-0.479906	-2.129332	2.867844	-29.773085	-71.408977	128.196021			
40894	12.318414	-0.166795	6.995911	-1.441272	-3.546569	3.827637	-29.711988	-71.297308	128.231104			
40895	11.637144	1.150490	8.901480	-2.371486	-5.698407	3.524719	-29.169837	-70.903748	127.784868			
40896	9.830106	0.153980	10.208042	-0.882617	-7.125335	2.406458	-28.194802	-70.361917	127.140697			
40897	8.500286	0.460613	12.118480	-0.605870	-9.226695	1.755496	-27.035382	-69.947541	126.679190			
40898	8.388093	0.657466	11.575882	-0.760287	-8.698729	1.525156	-26.404074	-69.697000	126.444045			
40899	8.934943	-1.456334	9.248529	0.906520	-5.904171	1.668081	-26.021817	-69.723447	126.464658			
40900	9.962736	-1.311363	8.364630	0.483621	-4.810226	2.335168	-25.640223	-69.852277	126.319248			
40901	11.089652	-1.690681	6.363439	0.366095	-2.578673	2.818542	-25.687570	-70.233797	126.324626			
40902	13.197275	-1.003171	4.904813	-0.888811	-0.860982	4.247862	-25.773800	-70.752617	126.225259			
40903	16.916634	-0.053003	8.374004	-1.934927	-3.373273	8.658257	-25.002754	-70.848102	125.413078			
40904	5.001973	-0.880766	2.187853	0.259025	-0.537685	-4.314892	-23.534245	-70.930881	124.629101			
40905	5.199802	1.520217	-3.781752	-3.084447	4.575159	-6.179151	-22.750420	-71.974596	125.180788			
40906	10.000761	5.339239	-1.841539	-7.239914	2.922211	-1.389398	-22.398347	-73.260733	125.365726			
40907	15.457394	3.016258	0.809445	-5.282855	2.074968	4.900139	-23.124146	-74.014325	125.670352			
40908	14.571930	-2.461395	4.449588	0.846084	-0.431432	5.591671	-25.180715	-73.947086	127.131871			
40909	12.768309	-6.762380	4.780687	5.245129	-0.302685	4.470475	-27.390692	-73.964065	128.910798			
40910	12.078790	-2.795322	1.180759	0.814205	2.005700	2.451816	-29.032264	-74.331688	130.244109			
40911	9.536586	0.736561	-3.390447	-2.981144	5.006802	-1.504389	-29.056884	-74.792221	131.102953			
40912	8.428784	6.782485	-0.121056	-7.984244	0.134502	-2.512964	-27.402431	-75.562292	131.306202			
40913	7.583364	12.336176	1.244082	-12.780897	-2.915426	-3.537191	-27.438102	-76.894140	131.346480			
40914	8.995858	7.433446	-4.324410	-9.402170	3.870791	-2.636792	-31.481946	-78.077345	133.327588			
40915	8.493907	0.543290	-4.823113	-2.596648	5.758452	-2.342903	-39.618480	-78.734808	139.181833			
40916	8.951734	-3.915300	-4.598371	1.829389	6.125747	-1.111031	-51.632247	-78.921941	148.510675			
40917	8.998588	-10.066391	-9.576444	7.565708	11.288916	-0.364978	-62.094970	-78.736095	155.612812			
40918	9.646589	-13.706181	-8.461756	11.334052	10.008999	1.316976	-65.023452	-78.602246	157.732676			
40919	5.809560	-4.885180	-1.796291	3.662784	2.486498	-3.390540	-67.922669	-79.296523	161.882556			
40920	8.296269	-0.853171	-3.293965	-0.808790	3.708520	-1.689053	-74.723276	-80.589498	169.909039			
40921	12.235647	0.665286	-4.258673	-2.928138	4.406711	2.031691	-80.622291	-81.561859	176.315925			
40922	11.026132	0.492726	-1.680621	-2.256129	1.655043	0.995262	-85.523058	-81.688543	-178.619981			
40923	9.445198	-1.099486	-1.819583	-0.466238	1.825087	-0.316279	-90.880588	-81.600767	-173.541021			
40924	8.803345	-2.506816	-3.844630	0.831976	3.865256	-0.706072	-95.941266	-81.676485	-168.557999			
40925	7.950281	-1.692713	-2.469688	0.318780	2.335558	-1.650945	-101.848838	-81.899733	-162.133674			
40926	8.497594	0.060442	-2.133580	-1.387892	1.662297	-1.323143	-110.531851	-82.120746	-152.850021			
40927	9.458590	1.031580	-3.026060	-2.475822	2.197864	-0.393488	-119.991111	-82.207886	-142.966607			
40928	9.779479	1.865563	-2.457673	-3.160141	1.326721	-0.147884	-128.092483	-82.056732	-134.631673			
40929	9.775991	2.096205	-1.498347	-3.179040	0.183263	-0.217554	-134.857994	-81.580847	-128.007318			
40930	9.813468	1.272112	-1.500287	-2.316234	0.116218	-0.076542	-140.121688	-80.811075	-123.401574			
40931	9.775283	-0.552473	-2.142447	-0.552147	0.777269	0.164272	-143.978083	-79.948437	-120.481507			
40932	9.592039	-1.898627	-1.968930	0.838781	0.577138	0.109483	-146.841896	-79.157810	-118.407779			
40933	9.213691	-2.393836	-1.598571	1.420181	0.145202	-0.266077	-149.665700	-78.442280	-116.123615			
40934	9.161369	-2.075849	-1.660502	1.138870	0.035436	-0.341861	-152.671336	-77.695866	-113.394347			
40935	9.593472	-1.227943	-1.672241	0.304067	-0.247243	-0.005393	-155.469538	-76.935815	-110.697862			
40936	9.923084	-0.202133	-1.794471	-0.703994	-0.408606	0.240376	-157.741192	-76.239628	-108.561096			
40937	9.624067	-0.035562	-1.536336	-0.787264	-0.732870	-0.126300	-159.610542	-75.620671	-107.120702			
40938	9.116622	-1.257627	-1.762346	0.486568	-0.458898	-0.466485	-161.347577	-74.965999	-105.967202			
40939	9.373032	-2.115645	-2.570818	1.315501	0.160558	0.045347	-162.908591	-74.345524	-104.945883			
40940	9.243020	-2.799137	-2.426915	2.058888	-0.051904	-0.070235	-164.529300	-73.847167	-103.885183			
40941	8.991219	-3.791651	-2.682196	3.106198	0.162747	-0.182705	-165.997817	-73.342704	-102.761292			
40942	9.018175	-3.638453	-3.278812	2.978938	0.619782	-0.011807	-167.262562	-72.814784	-101.498615			
40943	9.162057	-2.158568	-2.762343	1.552416	-0.031406	-0.126547	-168.488072	-72.274430	-100.142221			
40944	9.566859	-0.232846	-3.217076	-0.354612	0.156576	0.275784	-169.839876	-71.785322	-98.928160			
40945	9.298672	0.311520	-2.728099	-0.820678	-0.317807	-0.157131	-170.854818	-71.373067	-98.166885			
40946	8.362258	-0.077256	-1.369722	-0.321459	-1.389127	-1.459503	-171.760565	-70.783521	-97.399455			
40947	8.161527	0.250797	-0.499118	-0.590044	-2.267208	-1.974822	-172.725691	-69.758445	-96.306147			
40948	9.539978	0.859379	-1.674808	-1.226888	-1.816925	-0.339336	-174.103192	-68.603686	-94.839780			
40949	10.412486	1.689709	-1.477711	-2.012508	-2.504475	0.342787	-175.220491	-67.779017	-93.752073			
40950	8.990906	1.860711	-0.783606	-2.086112	-2.723879	-1.260448	-176.134468	-67.235962	-93.312509			
40951	8.045573	0.879062	-1.455163	-1.074758	-1.811720	-1.863886	-176.914885	-66.528184	-93.473465			
40952	8.452568	-0.645883	-4.103355	0.473794	0.317380	-0.411993	-177.710120	-65.625721	-93.756406			
40953	9.276052	-1.362732	-3.631068	1.198467	-0.618381	0.150574	-178.352132	-64.976226	-93.922373			
40954	8.875241	-1.208224	-1.530020	1.003097	-2.462460	-1.123625	-178.902624	-64.382902	-94.019730			
40955	8.755920	-1.483333	-2.146287	1.315553	-1.997222	-0.995014	-179.482270	-63.502948	-94.058363			
40956	9.640698	-1.981305	-3.521262	1.877155	-1.362906	0.379644	179.915037	-62.552477	-93.987836			
40957	10.289477	-1.804847	-2.860273	1.668055	-2.394111	0.617850	179.218638	-61.908035	-93.786974			
40958	9.523679	-1.560839	-0.974708	1.335593	-3.784147	-0.981926	178.626666	-61.409597	-93.671180			
40959	9.180179	-1.280297	-0.284897	1.023707	-4.287145	-1.653790	177.967883	-60.867527	-93.455829			
40960	9.142542	-0.839171	-0.591363	0.631383	-4.047471	-1.575059	177.322534	-60.316481	-93.129100			
40961	9.375883	-0.400407	-0.949466	0.250480	-3.893228	-1.225004	176.575440	-59.819406	-92.768304			
40962	9.692229	-0.701101	-1.389991	0.614135	-3.782747	-0.775216	175.869392	-59.360663	-92.616709			
40963	9.960009	-1.678310	-2.107639	1.680330	-3.495297	-0.251346	175.156287	-58.956196	-92.612283			
40964	9.802655	-2.566097	-2.883733	2.682358	-2.942230	-0.058692	174.552208	-58.667402	-92.639416			
40965	9.702114	-2.596495	-3.579575	2.835845	-2.374558	0.187572	174.019518	-58.432198	-92.526384			
40966	10.127080	-1.917447	-4.111267	2.262537	-2.107745	0.844469	173.614182	-58.262194	-92.287726			
40967	10.305659	-0.538286	-3.850224	0.889662	-2.247809	0.933305	173.285264	-58.345005	-92.040618			
40968	9.965637	0.189142	-3.012048	0.082310	-2.659964	0.254083	172.891937	-58.456047	-91.936270			
40969	10.693256	0.507491	-3.144482	-0.188912	-2.880144	0.965065	172.145025	-58.415272	-91.844152			
40970	11.816898	0.110117	-3.930185	0.361759	-2.887811	2.296273	171.353333	-58.299162	-91.861009			
40971	13.328686	-0.662194	-3.785359	1.121320	-3.951516	3.436812	170.541369	-58.294723	-91.871654			
40972	14.322369	-1.329103	-1.983110	1.453729	-6.089221	3.288360	169.952134	-58.431109	-91.752496			
40973	14.640328	-0.830095	-0.384435	0.681214	-7.475326	2.790138	169.311159	-58.575337	-91.382177			
40974	15.841483	-0.477905	1.534315	-0.038011	-9.604614	2.887110	168.854522	-58.746224	-91.198051			
40975	17.834595	-1.120671	3.218378	0.223225	-12.107471	3.716729	168.342495	-59.076346	-91.060831			
40976	18.318725	-2.389429	4.144813	1.265582	-13.241160	3.660573	167.941796	-59.897608	-90.847992			
40977	17.203383	-3.038686	5.001498	1.779058	-13.266730	2.476045	167.520997	-61.452988	-90.242037			
40978	14.231598	-1.832711	6.182098	0.500197	-12.285032	-0.173395	166.969384	-63.421673	-89.015150			
40979	10.997705	0.863031	7.163777	-2.162998	-10.975937	-2.894948	166.674609	-64.629142	-87.723356			
40980	13.881898	1.790962	2.624802	-1.963519	-7.901934	1.870808	165.968727	-65.383514	-86.459935			
40981	14.516201	-0.078312	1.186557	0.288453	-6.956657	2.979674	164.553895	-66.718794	-85.032395			
40982	13.136247	-2.813369	-0.643586	3.362503	-4.880481	2.260212	163.126357	-68.265217	-83.970012			
40983	12.512440	-3.813874	-4.343645	5.113579	-1.150829	2.934675	161.596044	-69.489933	-82.947390			
40984	14.722452	-2.929041	-5.943478	4.752664	-0.077284	5.616438	160.388888	-70.284380	-82.441136			
40985	15.204419	-1.887687	-7.843016	4.252634	1.881538	6.759051	159.432602	-70.983539	-82.170482			
40986	15.288984	-0.322754	-9.137676	3.136423	3.571777	7.355682	158.138968	-71.879664	-81.700541			
40987	14.363784	-0.883095	-8.983303	3.687599	3.892638	6.281880	157.376479	-73.263396	-81.485079			
40988	12.832117	-1.747015	-6.458469	3.809541	2.144347	3.982411	157.745942	-74.804713	-81.831612			
40989	12.075833	-2.528256	-6.449925	4.457294	2.512700	3.134395	158.017380	-76.286620	-81.733367			
40990	11.538217	-2.665763	-5.945336	4.361302	2.504804	2.445993	158.161019	-77.752980	-80.818047			
40991	11.496774	-0.887301	-4.236392	2.164920	1.617038	2.170584	157.576908	-79.100189	-78.890155			
40992	11.930160	-0.032639	-4.895660	1.388157	2.673234	2.725776	156.975396	-80.518821	-76.848449			
40993	12.070291	-0.529874	-5.989367	1.924968	4.015794	2.915009	156.259629	-82.198976	-74.451606			
40994	11.618909	0.033804	-5.062672	1.020755	3.705361	2.263474	153.874676	-84.427333	-70.253606			
40995	10.381826	0.699215	-3.115517	-0.055766	2.409771	0.777537	146.298569	-86.520751	-61.525039			
40996	10.401097	0.768000	-3.646555	-0.166807	3.306764	0.727572	127.267290	-88.141297	-42.131560			
40997	11.198013	-0.070472	-5.082187	0.738259	4.967390	1.412257	67.363956	-88.925842	17.723672			
40998	11.397860	-1.093923	-6.030069	1.771246	6.147244	1.435937	13.031085	-87.868924	72.072054			
40999	10.389623	-1.755093	-5.280143	2.257773	5.629223	0.292165	-1.349921	-86.314065	86.868356			
41000	10.278052	-1.173363	-4.813302	1.510000	5.500695	0.068366	-7.003498	-84.757134	93.201216			
41001	10.047335	-1.199400	-6.174939	1.460677	7.115177	-0.445430	-9.825047	-83.148260	96.975886			
41002	8.740184	0.008483	-5.573430	0.050303	6.675393	-1.882963	-10.732013	-81.512832	99.118190			
41003	7.315920	1.270376	-4.870865	-1.375615	5.987405	-3.400635	-10.919366	-79.964718	100.533710			
41004	6.106158	1.473717	-4.732204	-1.694304	5.761295	-4.734972	-10.602838	-78.487318	101.453667			
41005	5.246951	2.202713	-3.660503	-2.501282	4.602530	-5.530205	-10.024185	-77.078209	102.042131			
41006	4.670268	2.207653	-3.167548	-2.556809	4.042652	-6.092909	-9.596941	-75.799572	102.588327			
41007	4.455312	2.436995	-2.975745	-2.837329	3.825423	-6.354579	-9.469160	-74.690483	103.240845			
41008	4.869691	2.538863	-3.040593	-3.027242	4.018243	-6.058548	-9.707208	-73.713135	103.968742			
41009	4.857228	2.584445	-2.877458	-3.110055	3.888922	-6.103922	-10.198673	-72.868809	104.751525			
41010	4.932714	2.503583	-2.911765	-3.077321	3.984160	-6.106751	-10.969121	-72.148139	105.616172			
41011	4.562189	2.179953	-2.597472	-2.732625	3.637597	-6.404913	-12.091087	-71.582733	106.577448			
41012	4.432204	1.379511	-3.082430	-1.973461	4.157770	-6.671501	-13.490207	-71.133978	107.639221			
41013	4.067000	1.300954	-2.639922	-1.844200	3.655471	-6.907779	-15.081314	-70.775737	108.783447			
41014	3.992136	0.614344	-2.678630	-1.162604	3.738461	-6.955792	-16.756601	-70.510141	109.976366			
41015	3.985137	0.185504	-3.105471	-0.758092	4.178485	-7.069474	-18.305060	-70.315029	111.167170			
41016	3.811789	-0.102437	-2.910149	-0.454142	3.958844	-7.142390	-19.793141	-70.210759	112.375401			
41017	3.755388	-0.792346	-3.223764	0.214989	4.277538	-7.208881	-21.055100	-70.188758	113.572721			
41018	4.024906	-0.472016	-2.030410	-0.138885	3.200816	-6.606348	-21.858071	-70.247984	114.695593			
41019	4.865541	-0.306335	-1.808813	-0.444714	3.223492	-5.756781	-22.645857	-70.363434	115.644050			
41020	6.110733	-0.368486	-1.433079	-0.581009	3.225594	-4.447208	-22.952148	-70.584282	116.470590			
41021	8.156316	0.216031	-0.177361	-1.434490	2.555274	-2.195848	-23.006053	-70.844431	117.073150			
41022	8.908122	0.952650	1.381509	-2.196169	1.169703	-1.096094	-22.671885	-71.140603	117.565329			
41023	10.750554	2.003802	3.777823	-3.318085	-0.764904	1.244706	-22.167327	-71.435941	117.829884			
41024	12.850542	2.772476	7.079533	-4.055192	-3.480952	4.129337	-21.611996	-71.630346	117.947393			
41025	15.076964	2.642759	10.533770	-3.908271	-6.162085	7.275713	-21.680459	-71.581077	118.015750			
41026	14.999649	-0.814805	12.372838	-0.372673	-7.430048	8.170475	-21.741792	-71.138089	118.046319			
41027	12.287598	-0.939545	13.631539	0.234963	-9.257978	6.059281	-21.604743	-70.629476	118.271305			
41028	10.048994	-0.973830	13.491648	0.584315	-9.686848	3.963317	-22.172282	-70.325610	118.965281			
41029	8.284989	-2.485514	11.213927	2.069196	-7.853252	1.789661	-23.557618	-70.363702	120.053994			
41030	8.062244	-4.157941	8.484741	3.421958	-5.190895	0.940103	-24.960172	-70.624325	121.117333			
41031	8.647656	-3.687310	7.358982	2.723908	-4.113016	1.059084	-25.846271	-71.001169	121.876766			
41032	8.844851	-2.582242	5.950647	1.500455	-2.937839	0.648036	-26.139454	-71.422894	122.218018			
41033	8.769031	-1.441784	3.311071	0.221327	-0.664611	-0.355089	-26.303207	-72.074758	122.651649			
41034	13.074761	0.763855	2.391693	-2.655426	0.904868	3.201868	-26.079323	-72.986779	122.987725			
41035	13.129990	3.981072	-1.841053	-6.118384	4.313729	1.831302	-24.860360	-74.235131	122.658725			
41036	12.978054	6.900702	-3.264806	-8.960271	4.943495	1.231170	-22.113145	-75.716702	120.677663			
41037	16.373780	6.625462	1.730725	-8.227425	0.741222	5.895507	-18.911087	-76.053889	117.894808			
41038	15.667283	0.023661	8.354635	-0.721430	-4.606372	7.319616	-20.491606	-75.027877	119.386887			
41039	13.105203	-10.608353	10.521233	9.993317	-5.416111	6.489332	-25.716013	-74.248652	124.393603			
41040	10.672282	-11.880379	1.591831	10.165588	2.798770	2.286959	-28.029763	-74.692131	127.315024			
41041	12.226313	0.706136	-5.160477	-3.376279	7.313501	0.757119	-25.502457	-75.808724	126.496660			
41042	10.377068	7.292058	-3.158559	-9.117626	3.415501	-1.093810	-21.099687	-76.910768	124.355776			
41043	7.559595	10.595080	-1.159776	-11.389372	-0.155615	-3.410519	-16.635311	-78.166970	121.340843			
41044	5.790301	13.072889	-2.906411	-13.893582	0.534601	-5.391436	-15.954884	-79.386992	119.158487			
41045	4.722504	5.815067	-5.558647	-7.226379	4.844391	-6.447931	-24.614458	-80.106247	125.358233			
41046	4.595301	0.297733	-5.376833	-1.662101	5.773965	-6.069514	-41.063835	-80.381279	139.453492			
41047	9.068103	-6.587441	-12.235763	3.872572	13.780182	-1.422904	-55.120005	-80.054205	150.344815			
41048	12.384052	-10.859257	-7.997159	8.208774	9.897603	3.221349	-59.052080	-79.570183	152.786732			
41049	6.006830	-4.966214	-2.870851	3.761266	3.695608	-3.395339	-61.075243	-80.189235	155.458112			
41050	7.341923	-1.298201	-3.878369	-0.083189	4.381386	-2.641768	-67.590333	-82.006383	162.842964			
41051	13.344522	0.497623	-6.606103	-2.733329	6.946229	3.080373	-72.762602	-83.505426	168.503836			
41052	11.055356	1.451203	-1.673630	-2.811701	1.706068	0.972035	-78.300604	-83.743180	174.012474			
41053	9.002282	-0.898362	-1.961684	-0.294073	2.067026	-0.794089	-87.385571	-83.397195	-177.819978			
41054	9.414600	-5.225968	-5.564574	3.634863	5.857618	0.156417	-92.500030	-82.944945	-173.560038			
41055	7.415104	-6.151379	-3.226627	4.959589	3.507706	-1.668209	-95.472785	-82.853294	-170.597303			
41056	6.307187	-4.311301	-1.720915	3.392429	1.845475	-2.999857	-103.572569	-83.111171	-161.858051			
41057	8.374773	-2.766383	-3.203874	1.563015	3.001364	-1.060558	-116.844106	-83.264153	-147.825567			
41058	10.655926	-0.895899	-3.365506	-0.441815	2.657283	1.069273	-127.657302	-83.193334	-136.291206			
41059	9.732049	0.290155	-1.524315	-1.255740	0.604695	-0.056895	-134.959550	-82.788657	-128.733505			
41060	9.684863	-0.807797	-1.846743	-0.152612	0.880760	0.039119	-140.455017	-82.109971	-123.485316			
41061	10.042050	-2.526214	-2.165486	1.520526	1.169531	0.590778	-144.301286	-81.502249	-119.806374			
41062	9.551165	-2.489400	-0.970270	1.687217	-0.083560	-0.039853	-148.175995	-80.993104	-115.711532			
41063	9.033275	-1.132319	-0.974453	0.437646	-0.268775	-0.671244	-152.834335	-80.355022	-110.489460			
41064	9.085004	0.402254	-1.416889	-1.055138	-0.164107	-0.671390	-157.680203	-79.621019	-104.839469			
41065	9.370499	1.990886	-1.367855	-2.527286	-0.630950	-0.493254	-162.159238	-78.945339	-99.537036			
41066	9.392395	3.257942	-1.135428	-3.628463	-1.201429	-0.565626	-165.838495	-78.330200	-95.300876			
41067	9.266122	3.728202	-0.846983	-3.946630	-1.661435	-0.749581	-168.430062	-77.665288	-92.642716			
41068	8.914988	3.032542	-0.506519	-3.148409	-1.921308	-1.133688	-169.934991	-76.806312	-91.713624			
41069	8.971396	1.161925	-1.602189	-1.437188	-0.736448	-0.768711	-170.850870	-75.750544	-91.943302			
41070	9.532703	-1.074039	-3.168560	0.598872	0.738952	0.245052	-171.233965	-74.776365	-92.879400			
41071	9.362379	-3.192318	-3.465508	2.712664	1.093160	0.252024	-171.822618	-74.114341	-93.582752			
41072	8.534194	-4.246293	-2.947657	3.866697	0.734110	-0.644284	-172.778237	-73.540648	-93.589142			
41073	7.757313	-4.515644	-3.574375	4.165194	1.416648	-1.211226	-174.210002	-72.771374	-92.637854			
41074	8.014346	-3.362212	-4.165794	3.038851	1.701206	-0.826177	-175.606299	-71.848510	-91.203366			
41075	8.517252	-1.919216	-3.843609	1.667610	1.022935	-0.476141	-176.724784	-70.921811	-89.785661			
41076	8.935387	-0.654012	-3.494829	0.477576	0.342344	-0.213963	-177.650662	-70.049314	-88.568938			
41077	8.963950	0.352186	-3.058288	-0.444088	-0.279276	-0.349466	-178.529539	-69.232581	-87.511893			
41078	8.896680	0.932939	-2.690329	-0.941958	-0.766277	-0.550768	-179.434951	-68.467919	-86.590418			
41079	9.091861	0.952097	-2.221505	-0.868925	-1.391903	-0.549332	179.735380	-67.730547	-85.950609			
41080	9.187978	0.198026	-2.255509	-0.064519	-1.463618	-0.464013	178.992736	-66.971741	-85.553063			
41081	9.173549	-0.682223	-2.692158	0.839703	-1.123279	-0.331189	178.287163	-66.236370	-85.170842			
41082	8.990633	-1.166644	-2.626794	1.370324	-1.204569	-0.551894	177.664644	-65.465029	-84.724033			
41083	9.270474	-1.257011	-3.148549	1.497882	-0.971157	-0.104622	177.197278	-64.619146	-84.196473			
41084	9.743591	-0.427327	-3.133747	0.741660	-1.369835	0.312145	176.816781	-63.803846	-83.506210			
41085	10.271099	0.498582	-1.403900	-0.022747	-3.339830	0.013724	176.637331	-63.073278	-82.912955			
41086	10.716373	0.723017	0.148124	-0.091137	-5.054443	-0.334915	176.527470	-62.399958	-82.534053			
41087	10.612057	0.536630	0.307935	0.137959	-5.239436	-0.564630	176.237973	-61.746182	-82.291608			
41088	10.559711	0.148541	-0.224096	0.525731	-4.816317	-0.426240	175.766831	-61.132670	-82.113158			
41089	10.219946	-0.266321	-0.410661	0.936894	-4.551392	-0.697147	175.062115	-60.593187	-81.984094			
41090	10.168362	-1.144180	-0.689535	1.820841	-4.307393	-0.685231	174.483508	-60.169032	-81.978201			
41091	10.024112	-1.633219	-1.204377	2.300725	-3.836263	-0.615408	174.101795	-59.781673	-82.031815			
41092	10.600029	-1.705328	-0.858768	2.438085	-4.493374	-0.332662	173.633188	-59.359197	-81.925661			
41093	10.988891	-1.425316	-1.043590	2.218275	-4.612124	0.070799	173.046806	-59.004125	-81.648772			
41094	10.742111	-0.864219	-1.872165	1.685686	-3.847796	0.286685	172.365589	-58.760131	-81.250348			
41095	10.305583	-0.308313	-3.137264	1.164254	-2.590663	0.583226	171.539613	-58.592189	-80.742086			
41096	10.580580	0.206937	-4.077023	0.757729	-1.952995	1.332929	170.664080	-58.567655	-80.319680			
41097	11.117585	0.078225	-3.639732	0.996745	-2.584117	1.553178	169.690487	-58.674359	-80.138371			
41098	12.497669	-0.244825	-3.166277	1.480662	-3.658550	2.463279	168.682423	-58.884555	-80.200756			
41099	13.631890	-1.129943	-2.527372	2.460009	-4.724318	3.037268	167.669240	-59.349673	-80.278994			
41100	13.499875	-2.851948	-0.895827	4.063156	-6.009208	1.958552	166.928846	-59.891881	-80.079385			
41101	13.921155	-2.160767	2.142633	3.214793	-8.760861	0.956247	166.383737	-60.165849	-79.457033			
41102	15.606660	-0.692061	3.418702	1.872208	-10.604470	2.009909	165.898256	-60.355676	-78.948544			
41103	17.505617	-1.418578	3.191664	2.820902	-11.247232	3.758795	165.202310	-60.957656	-78.591816			
41104	18.243274	-3.159971	4.773357	4.479098	-12.813647	3.652851	164.599694	-62.252098	-78.166653			
41105	14.959240	-3.725186	3.997484	4.816124	-10.296801	1.340512	163.965977	-64.054550	-77.120489			
41106	11.664837	-1.413756	3.895659	2.315845	-8.406694	-1.026529	163.780374	-65.440277	-75.686891			
41107	13.253349	1.543583	5.243110	-0.364137	-10.028173	0.425388	163.189510	-66.524057	-74.019059			
41108	13.769332	0.297148	2.908248	1.140516	-7.809435	1.842413	161.970687	-67.912113	-72.513066			
41109	12.496065	-2.563982	-1.295900	3.998054	-3.094523	1.970218	160.757202	-69.265453	-71.374078			
41110	13.782893	-3.399189	-3.609566	5.039318	-1.039442	3.901129	159.492713	-70.560407	-70.446904			
41111	14.391671	-4.173384	-6.165215	5.965445	1.496088	5.177816	158.158943	-71.719991	-69.475625			
41112	14.121905	-2.158592	-7.138306	3.978234	2.792146	5.399647	157.036608	-72.647917	-68.494125			
41113	13.957784	0.177653	-7.521722	1.637088	3.429773	5.581536	156.813007	-73.229182	-68.318127			
41114	14.353182	1.307018	-8.134397	0.543053	4.072772	6.218730	156.803560	-73.780032	-68.552473			
41115	14.917853	0.629429	-9.874633	1.308225	5.842032	7.057238	155.776657	-74.968709	-67.644639			
41116	12.924414	-0.007626	-6.733396	1.477170	3.644061	4.219398	155.651040	-76.704348	-66.710497			
41117	11.513009	0.025457	-3.703772	1.061806	1.354972	2.157856	154.926199	-78.284553	-65.005205			
41118	11.551329	0.465987	-4.145630	0.508313	2.085406	2.279527	153.785133	-79.599846	-62.943084			
41119	11.947414	0.209375	-4.657653	0.657881	2.811058	2.682697	152.727020	-80.890694	-60.737832			
41120	11.773472	0.428544	-4.955674	0.246358	3.408550	2.502654	150.780244	-82.276971	-57.375337			
41121	12.506522	1.432813	-5.950084	-0.976875	4.586602	3.296798	146.049253	-84.078847	-51.159527			
41122	10.533165	1.055874	-3.822627	-0.791357	3.037037	0.995154	136.061919	-86.046692	-39.849134			
41123	9.882560	1.442748	-3.556254	-1.354299	3.078368	0.240873	115.001203	-87.376165	-18.233042			
41124	11.912574	0.560613	-6.802753	-0.906020	6.685175	2.144517	74.437479	-87.916027	22.462896			
41125	10.756546	0.673795	-3.970035	-0.851424	4.179727	0.850831	31.941883	-87.103228	64.964571			
41126	10.030251	0.000113	-4.141350	-0.344746	4.674732	-0.026023	15.142753	-86.069206	81.792722			
41127	10.622117	0.132596	-5.801963	-0.824937	6.568443	0.320176	5.725518	-84.734160	91.788854			
41128	8.354043	1.919021	-4.622242	-2.609916	5.159099	-1.976641	0.705355	-83.265468	97.570398			
41129	7.519758	1.527459	-5.290071	-2.462206	5.912438	-3.042157	-2.005227	-81.883761	101.115594			
41130	7.049062	1.740562	-4.782962	-2.732880	5.423414	-3.591019	-3.195932	-80.498217	103.323602			
41131	7.016521	1.958881	-4.102737	-2.965533	4.812196	-3.652642	-3.786028	-79.122481	104.827108			
41132	6.869311	1.523575	-3.674531	-2.569662	4.547526	-3.835655	-4.085297	-77.823243	106.004782			
41133	7.286007	1.925070	-3.186611	-2.994740	4.172579	-3.443631	-4.303249	-76.566773	106.972565			
41134	6.448264	3.314976	-1.049054	-3.921274	1.732808	-3.872182	-4.709845	-75.439788	107.862420			
41135	6.943350	2.702585	-2.184504	-3.671545	3.141248	-3.735101	-5.567476	-74.471676	108.820609			
41136	6.253398	2.488210	-1.853268	-3.388609	2.780690	-4.379929	-6.651003	-73.613087	109.834504			
41137	6.167400	1.861893	-2.194433	-2.893909	3.287869	-4.603716	-7.928223	-72.851243	110.896947			
41138	5.746823	1.563507	-2.261601	-2.614228	3.359357	-5.072926	-9.408173	-72.209147	111.989764			
41139	5.423154	0.998201	-2.571613	-2.119053	3.728450	-5.496656	-10.974243	-71.654757	113.097041			
41140	5.051522	0.969526	-2.277255	-2.011612	3.388388	-5.798244	-12.615272	-71.173218	114.191350			
41141	4.584245	0.281862	-2.221678	-1.286540	3.367910	-6.202626	-14.190718	-70.837410	115.277046			
41142	4.753913	0.235169	-2.574761	-1.337911	3.767935	-6.166180	-15.642796	-70.619513	116.324483			
41143	4.943020	-0.233371	-2.780218	-0.953885	4.112314	-6.018418	-16.926691	-70.481555	117.298529			
41144	5.252613	-0.277650	-2.683492	-0.959908	4.119082	-5.692025	-17.973667	-70.405505	118.232764			
41145	5.409905	-0.235897	-2.255990	-0.983636	3.749036	-5.409355	-18.837051	-70.390946	119.121683			
41146	5.629864	-0.334755	-1.732734	-0.870841	3.330226	-5.020930	-19.514869	-70.413764	119.992320			
41147	5.874385	-0.457146	-1.517427	-0.789769	3.207449	-4.703051	-19.948514	-70.492374	120.831966			
41148	6.277766	-0.166521	-1.001911	-1.088798	2.756812	-4.186298	-20.176588	-70.654112	121.695370			
41149	7.460762	0.244884	0.113567	-1.522840	1.925966	-2.762346	-20.432446	-70.827421	122.383236			
41150	7.780847	0.066894	0.766944	-1.295076	1.404622	-2.230873	-20.610110	-71.090665	122.976090			
41151	8.841825	0.020284	1.788233	-1.235481	0.704428	-0.904646	-20.571622	-71.379691	123.427597			
41152	9.579173	0.233582	3.891457	-1.121917	-1.158669	0.402837	-20.220384	-71.651335	123.705860			
41153	10.893541	0.552199	5.672314	-1.235553	-2.586380	2.142775	-19.850671	-71.821077	123.657598			
41154	11.332725	-0.676640	6.874515	0.178418	-3.288035	3.044381	-19.333586	-71.872125	123.430770			
41155	12.018004	-1.053151	8.246140	0.785252	-4.254514	4.145181	-18.465466	-71.786726	123.040557			
41156	12.343460	-0.614961	10.158659	0.821327	-5.974635	5.005037	-17.390391	-71.521049	122.479177			
41157	11.977210	-0.762426	10.748219	1.232053	-6.459581	4.894903	-16.483027	-71.171977	121.966390			
41158	10.315851	-0.383652	9.670108	0.950138	-5.934777	2.991608	-15.780715	-71.002531	121.609714			
41159	9.473100	0.310693	8.816739	0.281732	-5.546868	1.880199	-15.309198	-71.052116	121.497492			
41160	8.605675	1.330613	8.082025	-0.661383	-5.424023	0.736688	-15.013414	-71.315902	121.514966			
41161	7.639348	2.321864	6.140351	-1.871945	-4.258742	-0.878898	-14.789663	-71.856958	121.564284			
41162	8.972922	4.328840	7.676202	-3.523336	-5.993528	0.667721	-14.602013	-72.432727	121.408485			
41163	7.182727	4.506166	7.823430	-3.328015	-6.685498	-1.018851	-14.031481	-72.584623	120.740898			
41164	-1.535446	3.694064	-2.184576	-3.874764	0.522590	-12.155527	-13.983036	-73.727919	121.107277			
41165	3.881814	6.103727	-7.840673	-8.522080	6.264100	-8.426881	-14.455045	-76.167911	121.926701			
41166	13.411809	10.569558	-9.571860	-14.235699	8.320271	0.735534	-12.345320	-78.865315	118.862009			
41167	25.101973	7.255826	0.618802	-9.071195	1.502465	14.653465	-14.546155	-79.768373	119.262604			
41168	20.563840	-0.948413	6.838691	0.345827	-3.097121	11.652472	-24.234371	-78.557209	126.524530			
41169	19.282720	-15.152871	8.158101	13.278329	-1.688969	12.289218	-36.679605	-75.489125	135.934618			
41170	-0.266883	-36.795243	0.161348	35.833454	6.270264	-4.279969	-38.937360	-74.940326	138.344507			
41171	11.842795	-3.269275	0.094314	1.007450	2.491719	2.175631	-35.886955	-76.877934	139.187688			
41172	15.246247	8.057433	0.817186	-9.869677	-0.759619	4.328370	-27.992404	-78.705420	134.927625			
41173	13.146632	13.877072	3.449718	-13.707291	-5.771610	2.678483	-17.959787	-79.867543	127.079140			
41174	9.763281	15.008065	0.922985	-14.880452	-4.349610	-0.809169	-16.889467	-80.509734	124.895472			
41175	6.806884	2.648575	-3.140062	-4.119673	3.058584	-3.739657	-26.543569	-80.500008	132.598715			
41176	5.317521	-2.735303	-5.782976	0.512850	6.848447	-5.118990	-41.150043	-80.023779	144.974601			
41177	4.307384	-8.418840	-8.481248	5.749561	10.436188	-5.416231	-57.139151	-79.112873	157.615946			
41178	5.485547	-17.336309	-13.433679	13.773445	16.561007	-2.950920	-60.251082	-79.184865	158.905911			
41179	8.067642	-7.297060	-3.180319	5.164182	4.890337	-0.988841	-62.265575	-79.652227	163.354426			
41180	7.843623	0.097842	-3.328715	-2.059454	3.548099	-2.344205	-64.872947	-81.043367	168.475869			
41181	10.555867	3.121959	-3.502048	-5.306857	2.841138	0.045701	-67.668717	-82.961771	173.109225			
41182	12.827500	4.587190	-2.887394	-6.568601	1.652521	2.354253	-68.296583	-84.485895	174.926394			
41183	11.408191	5.850096	-1.849705	-7.125546	0.123154	1.003925	-69.198726	-85.281206	176.728417			
41184	9.901574	5.854513	-0.015306	-6.352651	-1.747434	-0.383687	-74.376256	-85.609825	-177.932490			
41185	9.425963	3.881562	-0.237034	-4.477014	-1.025375	-0.709077	-86.066440	-85.599870	-166.905495			
41186	9.713276	2.006495	-1.699101	-3.129438	0.806446	-0.282965	-99.456577	-85.197100	-154.733311			
41187	9.652144	-0.318945	-3.753265	-1.415906	3.282447	-0.087920	-108.989249	-84.581441	-146.757659			
41188	9.237698	-2.331361	-4.071119	0.545382	3.950683	-0.250466	-115.031315	-83.875157	-142.161149			
41189	8.176760	-3.628519	-3.768456	2.024142	3.849122	-1.134477	-119.814949	-83.327079	-138.543320			
41190	7.608651	-4.133467	-3.219235	2.739510	3.304635	-1.632661	-125.530676	-82.868513	-133.523674			
41191	8.136150	-3.753487	-3.452061	2.350406	3.260968	-1.092531	-133.150956	-82.414286	-126.259255			
41192	9.315762	-2.345608	-3.798712	0.911656	3.057540	0.012399	-140.920816	-81.909069	-118.568810			
41193	10.041819	-0.685148	-3.058033	-0.519341	1.787662	0.540601	-147.252795	-81.390304	-112.253287			
41194	9.638504	0.230786	-2.254508	-1.148991	0.754246	-0.007297	-151.942738	-80.805587	-107.809414			
41195	9.324073	0.157138	-2.153062	-0.967766	0.583151	-0.308993	-155.484284	-80.079036	-104.880233			
41196	9.266646	-0.895907	-2.683745	0.048956	1.140680	-0.191347	-158.422432	-79.338005	-102.742847			
41197	8.852231	-1.621172	-2.814030	0.835612	1.309991	-0.512550	-161.231058	-78.656531	-100.675099			
41198	8.638492	-1.875350	-2.692591	1.194765	1.132566	-0.719929	-164.206417	-77.970979	-98.261906			
41199	9.241384	-1.737824	-2.694225	1.129482	0.857209	-0.134401	-167.031409	-77.267619	-95.867590			
41200	9.563611	-1.666675	-2.182445	1.201890	0.146780	0.063316	-169.299162	-76.580667	-94.028786			
41201	9.604798	-2.210713	-2.340801	1.800016	0.212959	0.153813	-171.268297	-75.869388	-92.575709			
41202	9.591616	-2.513250	-2.476713	2.159415	0.237381	0.173712	-172.936163	-75.185991	-91.416744			
41203	9.402611	-2.405735	-2.472117	2.120985	0.137318	-0.025510	-174.380750	-74.532472	-90.471557			
41204	8.887275	-2.117203	-2.397964	1.899293	0.054769	-0.560405	-175.557529	-73.886314	-89.753951			
41205	8.151328	-1.898982	-2.351552	1.732707	0.078135	-1.293866	-176.570237	-73.120727	-89.027654			
41206	8.311601	-1.348063	-2.734164	1.203095	0.220211	-1.044699	-177.618310	-72.125950	-87.982511			
41207	9.113019	-0.075628	-3.094510	-0.020653	0.066410	-0.188687	-178.900813	-71.152788	-86.564068			
41208	9.009116	1.236566	-2.486586	-1.207468	-0.729074	-0.491498	179.851473	-70.240700	-85.265381			
41209	9.229980	1.841519	-2.177224	-1.708295	-1.276423	-0.390646	178.801001	-69.415968	-84.498322			
41210	9.151992	1.353545	-1.905057	-1.152567	-1.580860	-0.571925	178.034309	-68.652568	-84.385076			
41211	8.934547	-0.001564	-2.207682	0.212210	-1.240756	-0.695984	177.310389	-67.931263	-84.515848			
41212	8.640751	-1.032427	-2.067681	1.273845	-1.320454	-1.058473	176.540815	-67.258991	-84.523980			
41213	8.675614	-1.410305	-1.358134	1.712499	-2.088453	-1.338960	175.668024	-66.531773	-84.220744			
41214	9.370723	-1.383354	-0.895674	1.769900	-2.910762	-0.929024	174.855381	-65.717472	-83.665632			
41215	10.019042	-1.146501	-0.882971	1.623682	-3.316703	-0.387368	174.184791	-64.933582	-82.941558			
41216	10.341256	-1.031112	-1.372493	1.590267	-3.120374	0.067669	173.599862	-64.286840	-82.134214			
41217	10.463038	-0.984612	-1.514233	1.618020	-3.124243	0.205194	173.147540	-63.860308	-81.361846			
41218	10.066467	-0.671392	-0.908076	1.341375	-3.560524	-0.424813	173.012397	-63.538382	-80.884324			
41219	10.335094	-0.740826	-0.519827	1.470876	-4.070093	-0.383809	172.791729	-63.201940	-80.663379			
41220	10.775560	-1.200962	-0.589054	1.980306	-4.238485	-0.013953	172.559503	-62.849419	-80.655556			
41221	10.495248	-2.019489	-1.215235	2.781429	-3.569426	-0.054205	172.303239	-62.601484	-80.565821			
41222	9.464560	-1.587670	-1.901565	2.292231	-2.547483	-0.649154	171.930569	-62.367868	-80.160446			
41223	8.960521	-0.279345	-2.396566	0.989486	-1.975710	-0.799946	171.394554	-62.002660	-79.439892			
41224	9.001350	1.165479	-3.085697	-0.385160	-1.514793	-0.354344	170.634098	-61.530464	-78.409419			
41225	9.598662	2.525496	-3.474909	-1.596517	-1.594446	0.458396	169.765579	-61.146698	-77.238478			
41226	11.046016	3.297879	-2.058516	-2.093708	-3.634010	1.120629	169.220302	-60.832373	-76.403135			
41227	12.315938	3.313397	-0.261485	-1.859247	-5.856775	1.366329	168.678105	-60.617564	-76.011804			
41228	12.149833	1.648480	0.233096	-0.189318	-6.106407	0.820573	167.824015	-60.493653	-75.977178			
41229	12.918079	0.032805	-0.479939	1.508222	-5.759046	1.661930	166.671021	-60.454253	-76.091528			
41230	13.689785	-1.089119	-1.913405	2.761524	-4.806225	2.896811	165.110619	-60.792146	-76.027557			
41231	13.547719	-2.784387	-2.182107	4.477465	-4.383337	2.708976	163.486151	-61.621326	-75.673439			
41232	12.380256	-4.124395	0.239202	5.525316	-5.886502	0.441948	162.634580	-62.297623	-75.322110			
41233	11.779804	-4.002707	1.457369	5.260043	-6.653316	-0.594522	162.459366	-62.195708	-75.005683			
41234	15.181393	-1.780069	2.811526	3.410290	-9.368351	2.110054	161.712758	-62.163609	-74.513993			
41235	15.346952	-3.836341	1.181932	5.619747	-7.956687	2.707354	160.860274	-62.740706	-74.043692			
41236	15.304335	-4.942952	3.616404	6.508175	-9.978580	1.580225	160.295878	-63.770469	-73.468706			
41237	16.625063	-5.382195	7.663963	6.831244	-13.941414	1.280048	159.870187	-65.070435	-72.466016			
41238	14.158578	-4.670088	11.173267	5.753383	-15.811803	-1.814942	159.357703	-66.823613	-70.836447			
41239	10.841401	-0.936352	5.418272	2.119468	-8.971137	-1.888633	158.959189	-67.842914	-69.451282			
41240	14.114657	-0.561085	0.387640	2.432134	-5.220382	3.091407	158.704214	-68.719883	-68.196932			
41241	14.464524	-0.588783	3.908115	2.518385	-8.358289	2.378468	157.541386	-70.146385	-66.266830			
41242	14.725216	-3.173168	0.303815	5.157787	-4.542894	3.594020	155.800673	-71.542443	-64.385362			
41243	15.592388	-4.709722	-3.984444	6.766522	-0.260256	5.527341	154.123538	-72.828330	-63.020245			
41244	16.669130	-4.623428	-5.767772	6.771615	1.525380	7.048820	152.871017	-74.056482	-61.880835			
41245	17.265033	-2.006454	-6.106433	4.181792	2.014330	8.015257	151.156077	-75.340754	-60.183135			
41246	15.402805	-0.560718	-6.595184	2.433196	3.205813	6.461603	150.262075	-76.375181	-59.488784			
41247	15.673301	-0.491264	-6.625054	2.272864	3.399759	6.711726	151.250885	-77.202738	-60.644803			
41248	15.611563	-0.502798	-6.900292	2.119978	3.825853	6.693471	152.713660	-77.902948	-62.459285			
41249	16.178031	-2.166168	-10.545543	3.662410	7.547878	7.715347	153.490936	-79.189164	-63.224510			
41250	13.239657	-3.247273	-7.834174	4.208606	5.770513	4.193378	154.160814	-80.947105	-62.783057			
41251	13.634454	-1.358599	-7.446547	1.998382	5.729516	4.551950	154.541949	-82.752999	-61.442133			
41252	14.770074	-1.115229	-9.908806	1.187352	8.559711	5.770511	154.198131	-85.065673	-58.926630			
41253	12.555967	0.883435	-1.412012	-0.581457	0.690715	2.819658	139.292098	-87.931989	-42.052018			
41254	10.660982	0.558557	-1.426650	-0.529324	1.262665	0.869856	62.319791	-89.033935	35.892657			
41255	13.525147	-1.188706	-6.027650	0.360554	6.467769	3.554840	7.711898	-87.750318	91.275201			
41256	11.791469	-1.089530	-4.522710	0.231475	5.281030	1.707689	-3.273313	-85.842408	103.170981			
41257	11.297152	-0.591187	-4.769263	-0.546843	5.737668	1.026395	-7.567587	-84.019980	108.338421			
41258	10.978642	0.036480	-5.077618	-1.468305	6.172150	0.485285	-9.541231	-82.232385	111.367936			
41259	10.164202	1.391240	-4.410644	-2.871437	5.371270	-0.453539	-10.485841	-80.478156	113.481432			
41260	9.709450	1.926326	-4.440942	-3.608339	5.384205	-1.112874	-10.938274	-78.772265	115.190116			
41261	8.640908	1.914562	-4.124231	-3.654050	5.030552	-2.284452	-11.132017	-77.120263	116.590938			
41262	7.427992	1.342286	-4.279422	-3.219774	5.191118	-3.650740	-11.179582	-75.508454	117.831090			
41263	6.348349	1.146346	-3.781225	-2.941725	4.621783	-4.724020	-11.163031	-73.952591	118.905990			
41264	6.206885	0.969983	-3.826592	-2.915230	4.745821	-5.008092	-11.090895	-72.491891	119.819561			
41265	5.777632	1.086153	-3.142936	-2.881307	4.028975	-5.351535	-11.006636	-71.133892	120.572998			
41266	5.757327	1.569975	-2.558388	-3.251611	3.378679	-5.321926	-10.986207	-69.919971	121.266736			
41267	5.589284	1.885656	-2.584503	-3.607321	3.279428	-5.604756	-11.098215	-68.774513	121.888559			
41268	4.952318	2.213495	-2.389144	-3.793525	2.823695	-6.239442	-11.436416	-67.782188	122.540830			
41269	4.771965	2.254848	-2.398490	-3.849748	2.782760	-6.489472	-11.893567	-66.905380	123.190030			
41270	4.298323	2.402377	-2.454940	-3.942634	2.642909	-7.029907	-12.622041	-66.122849	123.873419			
41271	4.007759	2.030395	-2.322974	-3.520590	2.594193	-7.271795	-13.571650	-65.516856	124.592068			
41272	4.361807	1.469863	-2.972649	-3.307695	3.505977	-7.207013	-14.573689	-65.015238	125.299831			
41273	4.462391	0.643438	-3.344925	-2.698443	4.184279	-7.219316	-15.488996	-64.633114	126.000650			
41274	4.918973	0.126550	-3.920238	-2.528907	5.034710	-7.013261	-16.099933	-64.332616	126.655205			
41275	4.278073	1.120439	-3.520148	-3.182788	4.093596	-7.563017	-16.732611	-64.186845	127.309187			
41276	4.772336	-0.206511	-4.400439	-2.376703	5.508972	-7.325898	-17.198386	-64.127482	127.956096			
41277	3.619905	1.857308	-2.785475	-3.503942	2.930143	-7.955595	-17.665400	-64.190584	128.547654			
41278	4.270970	-0.025716	-3.777034	-2.256843	4.706997	-7.519520	-18.378113	-64.379925	129.107113			
41279	3.606218	1.222208	-2.545796	-2.859066	2.936853	-7.768115	-18.698803	-64.508837	129.576071			
41280	3.136059	2.093049	-1.719415	-3.283663	1.727622	-7.967429	-19.467336	-64.785353	130.058991			
41281	3.692677	-0.277718	-2.503430	-1.490612	3.472425	-7.425134	-20.130801	-65.103303	130.547902			
41282	3.504927	0.225071	-1.459576	-1.592160	2.296783	-7.232907	-20.549356	-65.497939	131.084003			
41283	4.712044	-0.874204	-1.159154	-0.820230	2.789657	-5.830730	-21.395743	-66.076616	131.789079			
41284	7.509366	-1.282633	0.060811	-0.824314	2.656401	-2.720236	-21.931031	-66.673915	132.420845			
41285	10.500426	-1.536472	1.588968	-0.897728	2.182549	0.655055	-22.589988	-67.330192	132.964550			
41286	13.684502	-2.295250	3.319512	-0.447954	1.698193	4.345912	-22.776619	-68.036148	133.536452			
41287	15.854554	0.665439	6.590443	-2.612313	-1.898893	7.063601	-23.446790	-68.751281	134.336304			
41288	15.998552	-0.802335	7.649792	-0.956455	-2.435954	7.744806	-24.796387	-69.018459	135.188471			
41289	12.876114	-2.066032	10.538833	1.808771	-5.455701	5.938267	-25.683225	-69.019518	135.858294			
41290	11.313878	-2.159516	13.759139	3.210944	-8.765495	5.511694	-26.375740	-69.089419	136.461329			
41291	10.899130	-3.499017	13.903933	4.563006	-8.604853	5.336150	-27.227482	-69.397586	137.107481			
41292	11.342713	-4.709600	12.616105	5.203929	-7.012971	5.475848	-27.707413	-69.824888	137.707414			
41293	10.644923	-2.666216	12.355951	3.547123	-7.733468	4.354225	-27.441847	-70.233032	138.045121			
41294	9.226956	0.035871	10.724522	1.114623	-7.615496	2.057892	-27.094886	-70.834621	138.579152			
41295	10.266864	2.562153	7.516667	-2.277058	-5.578343	1.683584	-27.065070	-71.777247	139.366298			
41296	11.477025	4.642559	4.996145	-5.077998	-4.095601	1.834871	-27.075896	-73.184037	140.096496			
41297	11.322502	7.165280	-0.639746	-9.079688	-0.386038	0.053234	-27.208571	-75.499258	140.727695			
41298	17.958092	11.967655	-0.834065	-14.302272	-1.484378	6.298782	-24.771954	-78.131917	138.475407			
41299	20.984251	12.144819	7.596545	-11.232138	-8.823301	11.199672	-20.777115	-78.378348	134.036565			
41300	13.582504	3.590363	14.163753	-0.190215	-12.203347	5.966055	-24.096204	-76.820559	135.483120			
41301	11.101233	-9.969410	10.870282	10.763511	-4.837222	4.379510	-34.757101	-75.653538	143.322548			
41302	10.746039	-17.745322	-3.105249	13.425610	10.086302	2.756626	-43.108026	-75.688534	151.011825			
41303	11.932139	-2.837986	-8.399663	-2.372378	10.176153	0.760873	-42.025238	-76.762982	151.340264			
41304	9.871346	6.944100	-4.277781	-9.710114	2.589214	-1.877880	-37.725818	-77.902189	148.943211			
41305	7.069599	10.123368	-0.676800	-10.743737	-2.421627	-4.189630	-34.032362	-78.939273	146.171759			
41306	4.491671	12.126485	-3.541237	-13.132337	-0.729648	-7.211834	-37.464983	-80.027979	147.749841			
41307	5.526666	2.946573	-6.243610	-5.553820	5.351991	-5.486610	-50.049123	-80.195644	157.365163			
41308	7.396559	-5.830747	-10.072998	1.638783	11.609577	-2.557144	-67.718170	-79.086364	171.567125			
41309	11.400717	-20.791104	-16.666945	14.347561	20.932160	4.179599	-73.172063	-77.729928	173.132166			
41310	4.666125	-17.961540	-5.495170	15.326229	8.839519	-1.967596	-71.507169	-77.709923	172.518025			
41311	3.905915	-3.293588	-2.115314	1.935691	2.820593	-5.468067	-76.761671	-79.081771	-179.795567			
41312	10.550742	0.641215	-8.554193	-4.521238	7.950441	0.248357	-86.432794	-81.230944	-167.998689			
41313	15.853083	4.298836	-4.082021	-7.395290	2.179450	5.254107	-88.691141	-82.617126	-164.055350			
41314	9.118923	4.287275	0.565225	-4.970703	-2.160726	-1.299346	-90.358687	-83.047581	-161.674666			
41315	8.316087	1.980095	0.385101	-2.697895	-1.354622	-1.805736	-98.775006	-82.813990	-153.643784			
41316	10.479197	-0.982102	-5.147063	-1.788879	4.503821	0.854122	-106.968037	-82.065444	-146.184161			
41317	10.195452	-3.199055	-3.775533	0.771166	3.684906	0.876638	-109.420125	-81.687185	-144.271206			
41318	7.848164	-2.367424	-0.652627	1.166795	0.582837	-1.693405	-113.110640	-81.642991	-140.462525			
41319	8.096754	-1.173974	-0.324823	0.168318	-0.172033	-1.628483	-120.580932	-81.593360	-132.551658			
41320	9.827338	-0.041538	-1.691472	-1.373795	0.482300	0.052206	-127.849509	-81.311855	-124.902453			
41321	9.997458	0.161813	-1.303253	-1.374002	-0.117088	0.175817	-132.856326	-80.853664	-120.057550			
41322	9.752955	-0.927048	-1.181357	-0.234047	-0.033910	0.052261	-136.278038	-80.129030	-117.206202			
41323	9.657658	-2.127862	-1.808557	0.761786	0.749497	0.183550	-138.850918	-79.386493	-115.339528			
41324	9.179204	-2.278502	-1.372052	1.092914	0.308832	-0.323716	-141.292113	-78.805503	-113.458591			
41325	8.699694	-1.863183	-0.849367	0.914192	-0.330219	-0.928353	-144.286724	-78.263239	-110.771053			
41326	8.773459	-1.233406	-1.382050	0.228351	-0.115067	-0.849557	-147.839413	-77.658733	-107.195918			
41327	9.124709	-0.154003	-1.860964	-0.873125	-0.128438	-0.540892	-151.304410	-77.053756	-103.447654			
41328	9.255252	0.929244	-2.145741	-1.902988	-0.287318	-0.462743	-154.415103	-76.510169	-100.096212			
41329	9.374021	1.453710	-2.085735	-2.307056	-0.613679	-0.398051	-156.852191	-75.996652	-97.757000			
41330	9.464852	0.710859	-1.795330	-1.453579	-0.813834	-0.297654	-158.458239	-75.406216	-96.727613			
41331	9.839505	-1.211882	-2.330615	0.291178	-0.041158	0.367125	-159.439331	-74.801948	-96.661907			
41332	9.702904	-3.121485	-2.757461	2.073713	0.710447	0.516265	-160.071813	-74.323636	-96.979403			
41333	9.138296	-4.147540	-2.874187	3.101839	1.074857	0.096585	-160.923458	-73.949912	-96.826746			
41334	8.518813	-4.043107	-3.115533	3.014328	1.349426	-0.447042	-162.111787	-73.426155	-95.813632			
41335	8.699850	-2.646563	-3.404219	1.634450	1.188693	-0.315602	-163.608060	-72.706575	-94.011470			
41336	8.937451	-0.882980	-3.166560	0.019326	0.420040	-0.299208	-165.100171	-71.966080	-91.979642			
41337	8.773424	0.798014	-2.643599	-1.431217	-0.489389	-0.740257	-166.478481	-71.327155	-90.154822			
41338	8.655222	1.733928	-1.948831	-2.114623	-1.404747	-1.136788	-167.617844	-70.703584	-88.905216			
41339	8.401832	1.429677	-1.595420	-1.694104	-1.674051	-1.475607	-168.291801	-70.010680	-88.540917			
41340	8.188504	-0.034210	-2.037204	-0.349660	-0.983002	-1.439315	-168.691286	-69.226558	-88.741668			
41341	8.521028	-1.474470	-2.554625	0.964207	-0.452463	-0.858790	-169.101737	-68.473867	-88.942876			
41342	8.857675	-2.069880	-2.002043	1.692020	-1.082831	-0.717945	-169.814942	-67.832848	-88.651400			
41343	9.176082	-1.227005	-0.870825	1.139171	-2.493899	-0.927540	-170.720059	-67.160039	-87.846676			
41344	9.835558	0.238532	-0.441014	-0.134221	-3.524524	-0.617732	-171.744055	-66.358483	-86.679849			
41345	10.422095	1.546317	-1.279563	-1.469582	-3.375813	0.141731	-172.917549	-65.692743	-85.278810			
41346	9.841699	2.641397	-1.606854	-2.526034	-3.150327	-0.319978	-173.915023	-65.336886	-84.055119			
41347	8.920177	2.818098	-1.168097	-2.581248	-3.249150	-1.347731	-174.579249	-65.001268	-83.394133			
41348	8.681712	1.606286	-1.630517	-1.456026	-2.549048	-1.327827	-175.295040	-64.515025	-83.192409			
41349	8.898148	-0.181572	-3.006983	0.083664	-1.152316	-0.489791	-175.912092	-63.969011	-83.588414			
41350	9.426095	-2.456408	-3.870908	2.233532	-0.318706	0.423416	-176.304809	-63.596055	-84.411868			
41351	9.286975	-3.991865	-2.577243	3.956824	-1.261640	-0.243143	-176.636213	-63.468479	-85.138888			
41352	8.510180	-4.090441	-1.451294	4.186144	-1.977741	-1.456527	-177.184013	-63.294922	-85.275790			
41353	8.884382	-2.919379	-1.791777	3.032263	-2.064005	-1.025772	-178.060558	-62.865421	-84.812641			
41354	10.118862	-1.741013	-2.900170	1.854960	-1.866129	0.526995	-179.035472	-62.424414	-84.168667			
41355	10.577539	-0.719386	-2.562646	0.966266	-2.558511	0.746140	-179.767149	-62.129753	-83.791095			
41356	10.626390	-0.567952	-1.813979	0.932747	-3.302157	0.422486	179.650680	-61.916683	-83.779048			
41357	10.753786	-1.130689	-1.709534	1.528772	-3.437516	0.467926	178.985152	-61.744214	-83.893966			
41358	11.141505	-1.290123	-1.926548	1.711805	-3.454063	0.894700	178.237700	-61.635490	-83.947385			
41359	10.950750	-0.916154	-1.424065	1.384588	-3.856565	0.482748	177.452890	-61.628375	-83.909728			
41360	10.579186	-0.507955	-1.020719	1.001450	-4.064411	-0.030219	176.540103	-61.693029	-83.800126			
41361	11.337579	-0.550095	-0.842558	1.116713	-4.563253	0.554702	175.427537	-61.823732	-83.558451			
41362	12.358255	-0.692948	-0.856765	1.357546	-4.995853	1.462899	174.308173	-62.005636	-83.067201			
41363	13.731738	1.098300	1.200538	-0.300496	-7.489591	1.807289	173.676566	-62.028449	-82.821835			
41364	14.423710	0.661945	1.495258	0.195188	-8.048158	2.266484	172.716795	-62.028529	-82.497877			
41365	15.486953	0.332708	2.339444	0.592606	-9.263121	2.807641	171.814411	-62.138610	-82.213155			
41366	17.326243	-0.419279	3.986593	1.412485	-11.491320	3.686189	170.890197	-62.655277	-81.935270			
41367	19.230250	-2.375858	6.317718	3.376173	-14.229066	4.381719	170.487437	-63.858110	-81.737743			
41368	17.346484	-2.598512	9.441788	3.369218	-15.880413	1.729658	169.826379	-65.719415	-80.974893			
41369	13.357955	-0.878925	8.771519	1.496697	-13.321130	-1.069833	168.797512	-67.237948	-79.660905			
41370	13.421982	0.325589	4.156369	0.536388	-8.837816	1.101915	167.686248	-68.359757	-78.240934			
41371	15.087190	-0.344773	1.902429	1.465772	-7.041191	3.589582	165.986004	-69.789632	-76.641621			
41372	14.838083	-2.456155	0.567347	3.614819	-5.328707	3.790552	164.030199	-71.416223	-75.448460			
41373	15.739990	-4.460335	-5.146053	5.928550	0.131417	6.279291	162.091534	-72.766744	-74.844495			
41374	17.317401	-4.892975	-7.183802	6.654360	1.895535	8.285948	160.912897	-73.988539	-74.797022			
41375	17.186506	-3.585857	-6.618510	5.309872	1.738156	8.098657	160.300503	-75.096353	-74.871970			
41376	15.812933	-2.246813	-6.682967	3.850253	2.479397	6.884123	160.512529	-75.899489	-75.349705			
41377	15.408932	0.353704	-7.824802	1.304068	4.065871	6.937031	160.546843	-76.571044	-75.829646			
41378	15.801744	-1.043879	-11.443119	3.059967	7.626957	7.912594	160.180975	-77.715402	-75.925409			
41379	14.568258	-3.500061	-8.785491	5.032890	5.513980	5.868572	160.681969	-79.578605	-75.444712			
41380	12.037916	-2.997880	-5.731471	3.941764	3.502118	2.793965	160.336037	-81.076243	-73.470321			
41381	13.861415	-0.984212	-7.508378	1.887495	5.531222	4.860448	159.259952	-82.607541	-70.338797			
41382	13.484443	0.899391	-6.853294	-0.339147	5.432344	4.327605	156.411378	-84.708026	-65.174562			
41383	11.421792	1.918649	-4.023998	-1.680287	3.215337	1.898335	147.227345	-87.043025	-53.735708			
41384	10.443146	3.252383	-2.298275	-3.112794	1.830751	0.764030	98.881601	-88.523020	-4.145422			
41385	10.500607	3.718807	-2.666370	-3.693717	2.503102	0.736310	35.990765	-87.730119	59.219564			
41386	9.827137	2.526064	-3.416472	-2.672942	3.657333	-0.112406	15.193966	-86.191809	80.081940			
41387	10.144190	1.654993	-4.444841	-1.992491	5.066777	-0.027564	6.197400	-84.631729	89.088214			
41388	10.084470	2.194293	-4.225507	-2.617872	5.061446	-0.226977	0.602342	-83.039865	94.729363			
41389	10.130506	1.559402	-4.265218	-2.114036	5.416544	-0.355730	-3.466367	-81.455103	98.884156			
41390	9.942366	1.095021	-3.972280	-1.761200	5.377376	-0.658302	-6.457985	-79.901689	102.132045			
41391	9.331867	0.184606	-4.710246	-1.051304	6.300095	-1.536214	-8.605837	-78.305512	104.570593			
41392	8.355973	-0.475135	-4.270715	-0.441488	5.947862	-2.552627	-9.948754	-76.651434	106.268061			
41393	6.605603	-0.518896	-3.712401	-0.343074	5.188048	-4.276654	-10.635889	-75.072830	107.378978			
41394	6.356201	-0.640258	-4.092242	-0.342007	5.634726	-4.744439	-10.897150	-73.626157	108.141180			
41395	6.098084	-0.043624	-3.520138	-0.931974	5.048405	-4.993726	-10.868581	-72.275513	108.615915			
41396	5.965422	0.966588	-2.734966	-1.896039	4.211130	-5.051345	-10.732980	-71.078061	109.001254			
41397	6.376794	2.108361	-2.493518	-3.098669	4.008070	-4.747256	-10.724018	-70.000664	109.416156			
41398	5.969577	2.673244	-2.476004	-3.661101	3.831358	-5.248850	-11.023493	-69.013698	109.910911			
41399	5.892497	2.771451	-2.720303	-3.824582	4.072334	-5.501060	-11.605704	-68.123429	110.469225			
41400	5.087444	2.215246	-2.357198	-3.161356	3.599866	-6.153191	-12.384334	-67.333805	111.125382			
41401	4.317157	1.827298	-2.611700	-2.729700	3.660783	-6.994036	-13.278024	-66.620903	111.778195			
41402	3.829699	1.176587	-2.719664	-2.044225	3.717668	-7.478728	-14.291061	-66.021314	112.437512			
41403	3.628365	0.631320	-2.413076	-1.447652	3.473627	-7.526943	-15.420288	-65.536993	113.066096			
41404	3.923794	-0.175948	-2.966252	-0.754653	4.232757	-7.416862	-16.448813	-65.132793	113.597672			
41405	4.066918	-0.638206	-3.016047	-0.326596	4.412713	-7.270060	-17.239984	-64.823685	114.080549			
41406	4.269024	-0.530210	-2.778661	-0.451314	4.264849	-7.013755	-17.937836	-64.652685	114.556824			
41407	4.168416	-0.173084	-2.523544	-0.772648	3.943373	-7.051033	-18.505763	-64.577860	115.067428			
41408	3.596574	-0.050131	-1.684380	-0.738973	2.934319	-7.240012	-19.024489	-64.654098	115.662799			
41409	3.444567	-0.511607	-1.188466	-0.236529	2.479820	-7.104599	-19.310031	-64.835861	116.285336			
41410	3.990652	0.334750	0.489434	-1.042082	1.011051	-6.048557	-19.741609	-65.137772	116.908525			
41411	5.364513	-0.739355	1.320747	-0.190535	0.900590	-4.315274	-20.365042	-65.375280	117.410763			
41412	5.535177	-1.553849	2.343372	0.650518	0.118168	-3.639617	-20.783659	-65.610488	117.904110			
41413	6.289991	-1.950910	3.745661	1.012709	-0.869016	-2.354866	-21.131426	-65.924274	118.485033			
41414	7.601402	-1.970897	4.736059	0.886919	-1.357037	-0.786757	-21.306072	-66.368639	119.151894			
41415	9.817645	-1.142961	6.152625	-0.170099	-2.098797	1.637747	-21.499437	-66.852922	119.827020			
41416	12.311412	-1.322204	6.709542	-0.382039	-1.826490	4.146332	-21.802460	-67.219731	120.407267			
41417	11.907043	-0.913946	7.532314	-0.577607	-2.871225	3.999292	-21.968079	-67.453982	120.854971			
41418	11.159413	-0.689437	8.640268	-0.483985	-4.229479	3.660958	-21.935483	-67.598002	121.071740			
41419	10.038044	-0.321561	9.323801	-0.490461	-5.310037	2.811167	-21.563479	-67.659411	120.966083			
41420	9.376875	-0.574662	9.511947	-0.036901	-5.639443	2.308707	-21.019696	-67.649638	120.625494			
41421	8.892201	-1.646960	8.847845	1.073393	-4.960803	1.776357	-20.431470	-67.732927	120.334420			
41422	9.583569	-1.744127	7.965900	0.998516	-3.900554	2.109149	-19.825315	-67.985061	120.216231			
41423	9.475453	-1.946290	6.730599	1.135350	-2.771911	1.584670	-19.218477	-68.329031	120.263999			
41424	9.378738	-1.026885	5.796248	0.221217	-2.178177	1.041664	-18.640168	-68.857346	120.415981			
41425	12.165811	0.370712	6.637297	-1.363079	-2.462834	3.762004	-17.673506	-69.274868	120.315050			
41426	7.844234	1.664687	8.988396	-1.207862	-6.246413	0.415334	-15.408908	-69.032514	119.342725			
41427	-5.848017	3.743379	-0.283188	-2.651090	-2.524626	-15.719486	-14.129162	-69.815691	119.218501			
41428	1.124722	4.208044	-9.241830	-6.437361	7.611937	-12.047076	-14.247355	-71.656105	120.250839			
41429	9.161378	8.568743	-12.662529	-12.811079	11.460837	-5.110523	-13.607194	-75.313998	120.415766			
41430	29.406028	16.770716	-5.895564	-20.605404	6.469037	16.905272	-6.298531	-79.109568	112.538295			
41431	32.694803	13.071974	7.823042	-12.751117	-4.982938	23.557329	-3.521510	-78.537053	108.355713			
41432	18.240531	3.302748	21.417982	0.250644	-17.247257	12.648612	-9.023127	-75.514061	111.489164			
41433	4.296442	-18.637834	22.082945	21.667491	-16.334396	0.999378	-19.420547	-74.720172	118.988670			
41434	15.037339	-22.672871	-1.722445	19.884564	8.730114	6.662183	-29.788375	-76.738997	129.361238			
41435	13.285368	-5.875691	-6.428011	2.741032	9.598464	2.544362	-27.836099	-78.096936	130.138618			
41436	11.134119	8.220871	-2.324221	-9.795305	1.879348	0.057763	-19.010179	-79.507411	124.885079			
41437	12.972047	18.409467	6.664161	-16.913515	-9.755270	3.236677	-11.069835	-80.849762	118.427637			
41438	8.977635	17.585590	0.590416	-17.386874	-4.270989	-1.469105	-16.035408	-81.764375	120.697244			
41439	4.086357	4.256375	-4.412486	-5.426750	3.783351	-6.570277	-33.795250	-82.104853	134.354466			
41440	2.285179	-3.284042	-10.849077	1.460393	11.364042	-8.276653	-56.945423	-81.625512	153.045018			
41441	4.055137	-19.251728	-21.046245	17.014870	22.628314	-4.515493	-70.637065	-80.165789	162.680748			
41442	7.854927	-28.727639	-8.363532	26.771705	9.832819	2.167032	-70.580613	-79.728768	162.328409			
41443	5.937580	-8.016210	-2.000237	6.807276	2.746105	-2.768006	-73.027686	-80.570360	167.864106			
41444	8.173386	-0.232761	-4.893654	-1.500879	5.042025	-1.867659	-81.054269	-82.122533	178.581911			
41445	11.614350	2.578459	-6.466303	-4.905405	5.880002	1.353824	-92.003585	-84.127274	-167.677132			
41446	13.862234	5.338452	-4.020495	-7.189844	2.572180	3.547675	-96.932953	-85.690020	-160.704234			
41447	10.853248	6.119334	-0.376323	-6.750480	-1.249791	0.591524	-97.955512	-86.266635	-158.747298			
41448	9.171795	3.736266	0.576540	-4.062326	-1.693436	-0.922107	-105.043499	-85.837693	-151.370571			
41449	8.785002	1.649976	-1.666255	-2.566450	0.836838	-1.130218	-116.713358	-84.934720	-140.002968			
41450	9.743971	-0.781215	-5.545815	-1.178697	4.958861	0.203817	-121.682884	-84.440986	-135.248035			
41451	7.170654	-0.302391	-1.680055	-0.571785	1.185679	-2.560154	-126.041381	-84.303779	-130.604301			
41452	7.204385	0.419480	-1.160959	-1.104378	0.433096	-2.600322	-135.772105	-84.007628	-120.535850			
41453	9.303017	0.533454	-3.573295	-1.817470	2.414966	-0.301613	-144.641285	-83.400719	-111.522324			
41454	9.590516	0.372762	-3.110368	-1.495884	1.815531	-0.001703	-148.751000	-82.627221	-107.538642			
41455	9.280800	-0.721155	-3.002392	-0.366566	1.849787	-0.215325	-151.106803	-81.721058	-105.605939			
41456	9.294064	-1.248523	-2.492666	0.288114	1.317597	-0.203804	-153.387563	-80.860190	-103.675123			
41457	9.043402	-0.646030	-1.710708	-0.072376	0.320286	-0.592213	-156.443802	-80.037137	-100.740842			
41458	9.303521	0.362714	-1.648881	-0.984275	-0.151915	-0.409948	-159.847017	-79.187462	-97.339621			
41459	9.561409	1.070157	-1.809006	-1.636331	-0.349269	-0.167152	-162.780328	-78.365513	-94.486965			
41460	9.390767	1.168909	-1.707593	-1.634877	-0.570003	-0.353864	-164.941071	-77.577610	-92.649836			
41461	9.030618	0.484510	-1.399210	-0.843857	-0.764748	-0.732687	-166.494889	-76.806695	-91.709139			
41462	8.961553	-0.789856	-1.339069	0.453321	-0.681858	-0.754307	-167.702528	-75.969583	-91.366977			
41463	9.329607	-2.176908	-2.143270	1.696739	0.088428	-0.143953	-168.760171	-75.068777	-91.328958			
41464	9.565621	-3.535260	-3.179673	2.912478	1.051306	0.410725	-170.019058	-74.265496	-91.064313			
41465	9.314510	-4.101102	-3.501211	3.493933	1.333256	0.279385	-171.198303	-73.566849	-90.517834			
41466	9.051960	-3.921322	-3.472743	3.387181	1.205569	0.008022	-172.402747	-72.805627	-89.525982			
41467	9.424015	-3.287196	-4.231277	2.714904	1.588666	0.561556	-173.512732	-71.992611	-88.313178			
41468	9.426858	-1.992573	-3.642808	1.566469	0.725107	0.342361	-174.242029	-71.223467	-87.250736			
41469	8.880234	-0.761894	-2.304096	0.573634	-0.652084	-0.647961	-174.671567	-70.401496	-86.317163			
41470	8.644646	0.489506	-2.098653	-0.590652	-1.087230	-0.989933	-175.317865	-69.499012	-85.129613			
41471	8.832984	1.789450	-2.214880	-1.820420	-1.403141	-0.821348	-176.181653	-68.592913	-83.733987			
41472	9.582039	2.993807	-2.025201	-2.858305	-2.202896	-0.228602	-177.256213	-67.805569	-82.355265			
41473	10.235855	3.326644	-1.739041	-3.017287	-2.882384	0.259563	-178.205899	-67.237488	-81.479383			
41474	9.937968	2.258147	-1.125525	-1.826291	-3.210105	-0.247711	-178.805237	-66.782281	-81.288614			
41475	9.906695	0.710385	-0.527829	-0.189903	-3.543775	-0.521249	-179.239175	-66.246604	-81.455039			
41476	9.846183	-0.441531	-0.355094	0.968573	-3.589661	-0.677961	-179.476156	-65.553417	-81.858288			
41477	9.950253	-1.501171	-0.954370	1.934872	-3.061648	-0.375914	-179.665575	-64.820468	-82.273763			
41478	9.585323	-2.210996	-1.320273	2.568233	-2.613298	-0.588618	-179.633124	-64.119521	-82.633417			
41479	9.238636	-2.487678	-2.031397	2.741851	-1.904485	-0.619112	-179.661302	-63.510465	-82.634354			
41480	8.463627	-2.033902	-3.315120	2.112751	-0.566613	-0.758707	-179.857105	-63.026593	-82.285827			
41481	8.472547	-1.321485	-3.076314	1.464252	-0.950026	-0.871383	179.941283	-62.485388	-81.867461			
41482	9.438276	-0.712100	-2.853480	0.993283	-1.755325	-0.134785	179.500643	-61.909203	-81.334880			
41483	9.870843	-0.008059	-2.551306	0.419409	-2.395860	0.088126	178.951011	-61.510890	-80.814309			
41484	9.370101	0.518766	-1.810276	-0.001963	-2.933260	-0.716496	178.462509	-61.191527	-80.517143			
41485	9.435237	0.503456	-1.706073	0.067264	-3.098372	-0.725163	177.822268	-60.835782	-80.375884			
41486	9.416064	-0.079108	-2.685278	0.575043	-2.213417	-0.291713	177.154186	-60.485146	-80.370654			
41487	9.303294	-0.454495	-3.143748	0.934808	-1.769053	-0.187867	176.571163	-60.162867	-80.378858			
41488	9.501663	-0.237214	-3.048512	0.783002	-2.026207	-0.070391	176.060598	-59.848110	-80.343378			
41489	9.980932	0.073480	-2.934197	0.557719	-2.441778	0.284855	175.601549	-59.594524	-80.332255			
41490	10.447039	0.325981	-2.654770	0.393110	-2.967959	0.547395	175.079674	-59.493124	-80.396002			
41491	10.578628	0.066996	-2.255503	0.701733	-3.356105	0.446127	174.484421	-59.537249	-80.607731			
41492	10.598805	-0.578362	-2.013482	1.370842	-3.505417	0.314308	173.523298	-59.747489	-80.765103			
41493	10.938206	-1.369538	-1.583971	2.205846	-3.972789	0.354914	172.722911	-59.999772	-81.019149			
41494	11.911237	-1.643831	-1.276429	2.564050	-4.694868	1.031337	171.719803	-60.172018	-81.055290			
41495	13.104952	-1.827158	-1.380796	2.868717	-5.189321	2.096388	170.786457	-60.165279	-80.823061			
41496	14.464540	-0.065574	0.278512	1.219893	-7.354689	2.585905	170.065311	-60.060733	-80.621402			
41497	15.536824	0.004952	0.509491	1.257579	-8.067614	3.415473	168.937632	-60.260713	-80.281751			
41498	15.459368	-0.764957	0.990749	1.998330	-8.346405	3.106299	168.158216	-60.963781	-80.171815			
41499	15.464728	-2.127151	3.693463	3.161589	-10.575679	1.826839	167.822985	-61.869354	-80.188730			
41500	17.086294	-2.708600	6.924984	3.636406	-13.988746	1.947919	167.350610	-63.102892	-79.840714			
41501	14.706923	-2.587584	8.330259	3.246804	-13.912276	-0.417633	166.512977	-64.820690	-78.983803			
41502	11.843333	-1.071311	4.146634	1.816432	-8.629068	-0.821615	165.617555	-66.047098	-77.760312			
41503	14.912666	0.375087	2.078145	0.847090	-7.673030	3.119592	164.932063	-67.254096	-76.358547			
41504	14.061059	0.071410	3.756451	1.088120	-8.588091	1.886635	163.771309	-68.879075	-74.807098			
41505	13.170094	-2.126858	0.943662	3.321471	-5.309430	2.003972	162.108745	-70.406677	-73.667689			
41506	14.360651	-4.882135	-4.762123	6.417446	-0.010450	4.732075	160.705369	-71.799979	-72.957092			
41507	15.131727	-3.795971	-6.415909	5.480738	1.696348	6.049691	159.848081	-73.184269	-72.357809			
41508	14.438421	-1.820654	-6.245378	3.394846	2.114173	5.510017	159.421958	-74.300621	-71.923187			
41509	14.364419	1.322651	-5.066829	0.143992	1.321336	5.418519	159.378558	-74.944056	-72.138775			
41510	14.791809	2.594721	-6.326932	-1.058082	2.623363	6.235907	159.993945	-75.376843	-73.515773			
41511	14.904526	0.193924	-11.168326	1.675609	7.308837	7.236776	160.182216	-76.077350	-74.541645			
41512	14.085701	-1.693850	-9.848114	3.312955	6.413297	5.875918	160.216550	-77.722885	-73.968440			
41513	11.366758	-0.366664	-5.458013	1.341490	3.139192	2.330766	160.418642	-79.055450	-72.824938			
41514	12.790084	0.623890	-5.610717	0.278379	3.374850	3.751151	159.730955	-80.382826	-70.609021			
41515	12.209462	1.850527	-4.870886	-1.149522	3.071100	3.050289	157.958593	-81.995867	-67.380506			
41516	11.724492	2.264370	-5.102394	-1.749913	3.695705	2.511742	155.316447	-83.783007	-63.654538			
41517	11.358201	1.263634	-5.660518	-0.973826	4.682922	2.008911	151.225162	-85.807947	-58.592604			
41518	10.910915	0.742710	-6.484003	-0.704514	5.961806	1.393575	132.687232	-87.877415	-39.445968			
41519	10.981103	1.000615	-5.230493	-1.043368	5.140102	1.205959	48.375014	-88.414709	45.167437			
41520	8.410926	1.078705	-1.117964	-1.022136	1.348574	-1.428954	14.381588	-86.990231	79.130986			
41521	11.006046	0.390820	-5.860009	-0.696715	6.516526	0.801731	3.705822	-85.622291	89.852545			
41522	9.544840	0.532186	-4.737614	-0.870712	5.541515	-0.737618	-1.852169	-83.943195	95.409371			
41523	8.321835	-0.013411	-4.724152	-0.405901	5.659408	-2.107391	-5.206501	-82.455779	98.879955			
41524	7.682760	0.780517	-4.456049	-1.265074	5.434283	-2.858989	-7.202621	-81.010962	101.244069			
41525	6.730810	1.414354	-4.244832	-1.951134	5.170856	-3.915666	-8.509589	-79.665590	102.998318			
41526	6.451052	1.948678	-4.012039	-2.545475	4.954619	-4.291860	-9.391552	-78.389682	104.362905			
41527	6.063570	1.751848	-3.519592	-2.372491	4.502518	-4.682382	-10.054114	-77.196824	105.488517			
41528	6.074836	1.463413	-3.434145	-2.152541	4.529865	-4.744780	-10.536314	-76.054774	106.374347			
41529	5.375051	1.109822	-2.522200	-1.729652	3.594766	-5.277341	-10.899073	-75.053321	107.085961			
41530	5.417728	1.365276	-2.452452	-2.028598	3.563669	-5.294423	-11.393194	-74.265793	107.840514			
41531	5.728541	1.526144	-3.142685	-2.326706	4.330728	-5.246244	-12.073241	-73.580477	108.614034			
41532	5.590133	1.577446	-2.905884	-2.375550	4.103789	-5.374524	-12.939957	-72.950215	109.364178			
41533	5.578196	1.696080	-2.390952	-2.466979	3.639182	-5.298313	-13.981876	-72.380599	110.109140			
41534	4.905574	1.470686	-2.180108	-2.171558	3.318205	-5.907055	-15.192377	-71.813584	110.818948			
41535	4.327088	0.623862	-2.432493	-1.297292	3.518328	-6.500863	-16.526281	-71.333777	111.632096			
41536	4.342108	-0.161629	-2.916397	-0.557760	4.083397	-6.587764	-17.976071	-70.962535	112.557132			
41537	4.487503	-0.834831	-3.088865	0.078992	4.362657	-6.445686	-19.470666	-70.719539	113.579193			
41538	4.621763	-0.950865	-3.276112	0.158139	4.590325	-6.362813	-20.700622	-70.586558	114.602300			
41539	4.673546	-0.434209	-2.652492	-0.353310	3.964743	-6.176455	-21.566969	-70.543982	115.580063			
41540	4.329017	0.743362	-1.528926	-1.440426	2.678603	-6.294054	-22.367786	-70.605043	116.530267			
41541	5.106207	0.215525	-1.593921	-1.059867	3.001210	-5.508072	-23.197563	-70.744714	117.481948			
41542	5.650026	-0.078210	-0.947562	-0.839538	2.546361	-4.749301	-23.909744	-70.981555	118.349785			
41543	7.444386	-0.269554	-0.654183	-0.928905	2.762424	-2.926074	-24.298237	-71.271548	119.105816			
41544	8.298986	0.561248	1.375471	-1.762772	0.925278	-1.620238	-24.563004	-71.632367	119.797398			
41545	9.877818	2.602261	4.149727	-3.821210	-1.598302	0.405251	-25.204201	-72.082772	120.551465			
41546	11.215205	2.760926	5.752112	-4.099488	-2.877383	2.078669	-26.577508	-72.391238	121.361909			
41547	11.646273	0.995931	7.259083	-2.436789	-4.094031	3.095481	-28.273870	-72.530552	122.203138			
41548	12.350069	-1.461054	8.019939	-0.236270	-4.483275	4.287687	-29.720781	-72.472872	122.869948			
41549	12.078266	-3.272996	9.537994	1.482914	-5.908269	4.694594	-30.789987	-72.232583	123.230235			
41550	11.357282	-5.516703	10.359869	3.647130	-6.777074	4.592687	-32.109940	-72.010732	123.777830			
41551	10.340494	-7.918694	9.962228	6.007428	-6.602916	3.941842	-33.527273	-71.899464	124.654062			
41552	9.525100	-8.332199	9.891137	6.444269	-6.804611	3.231678	-34.800152	-71.967792	125.796768			
41553	9.774126	-6.981293	9.417934	5.031545	-6.411560	3.092520	-35.961350	-72.205495	127.093561			
41554	10.409097	-5.704647	8.111487	3.677693	-5.110125	3.112066	-36.554583	-72.502141	127.987843			
41555	10.247269	-4.076030	7.077283	2.181656	-4.260374	2.385545	-36.164791	-72.870157	128.254417			
41556	9.599829	-1.974804	4.224756	0.317872	-1.802197	0.701794	-35.453253	-73.512150	128.570794			
41557	10.803593	1.095358	1.266476	-2.888815	0.971165	0.686229	-35.393827	-74.688825	129.773395			
41558	16.326130	4.489539	-1.278771	-7.158003	3.883304	5.086522	-35.024971	-76.362481	131.096842			
41559	20.714263	8.152860	0.957468	-10.913151	1.513696	9.552966	-30.899027	-77.663808	129.189597			
41560	15.463085	9.451543	3.034361	-10.767840	-1.856303	4.960021	-22.596771	-77.527016	122.770205			
41561	9.010740	7.597762	9.135361	-6.866548	-8.515151	0.321572	-17.030613	-76.533729	118.313368			
41562	10.816144	2.022802	10.870652	-1.200894	-8.627706	2.969011	-18.586144	-76.582342	119.975506			
41563	13.639711	-1.884077	0.586223	0.312847	2.458849	3.744096	-22.132335	-77.160743	123.789277			
41564	10.898189	1.423538	-6.220536	-3.946975	7.610332	-0.539438	-23.534370	-77.754364	125.818549			
41565	8.391016	6.274023	-6.494502	-8.434601	6.264598	-3.365793	-23.362858	-78.212794	125.838470			
41566	4.131542	9.537781	-5.504635	-10.845726	3.947620	-7.549426	-25.193535	-78.742465	126.443592			
41567	1.299052	9.260504	-6.546539	-10.298649	4.881275	-10.440086	-31.810224	-79.638641	130.642651			
41568	3.424262	4.021041	-6.469670	-5.161707	6.235068	-7.757714	-45.135939	-80.204487	141.055517			
41569	6.234268	-1.799511	-8.127867	0.306241	8.770191	-4.232987	-63.261513	-79.818695	156.008877			
41570	13.260742	-11.896421	-15.060025	9.275757	16.094154	4.292428	-74.572221	-78.571304	163.294514			
41571	11.878970	-18.963336	-10.647490	16.733963	10.751584	4.967105	-74.052520	-77.756312	160.867069			
41572	3.330029	-11.956600	-2.689340	11.181001	2.447944	-4.310883	-74.218538	-78.170795	162.298950			
41573	5.844383	-4.342052	-2.360096	3.227977	2.555697	-3.360709	-81.565885	-79.666564	171.358919			
41574	12.796764	-2.890606	-7.700305	0.654344	7.858090	3.195565	-91.469222	-81.420056	-176.608644			
41575	13.178128	1.802569	-4.129889	-3.809140	3.821326	3.026604	-95.617379	-82.799220	-169.951299			
41576	8.678106	4.037362	-1.323397	-5.100129	0.737106	-1.639455	-100.359448	-83.792183	-163.825744			
41577	8.584379	3.421073	-1.655360	-4.422686	0.981695	-1.590161	-107.594449	-83.901203	-156.234063			
41578	9.065120	1.307634	-2.529655	-2.475744	1.908213	-0.839808	-114.462132	-83.101101	-149.589410			
41579	9.974449	-2.085579	-4.406832	0.540883	3.913115	0.562890	-117.202940	-82.339673	-147.514779			
41580	8.603485	-3.596943	-2.834093	2.317490	2.477863	-0.676005	-118.880590	-82.024383	-146.262403			
41581	7.686410	-3.336675	-0.991702	2.337930	0.618826	-1.728859	-123.498279	-81.780348	-141.388479			
41582	8.546138	-2.551261	-1.315277	1.484032	0.675336	-0.946217	-131.741085	-81.389054	-132.607483			
41583	10.379619	-1.679197	-2.666588	0.380385	1.547058	0.916920	-139.404633	-80.889801	-124.289681			
41584	10.627068	-0.004739	-1.571247	-1.083058	0.075517	0.874774	-144.439141	-80.410903	-118.738319			
41585	9.827226	0.631210	-0.863381	-1.492517	-0.725329	-0.067805	-147.932504	-79.867122	-115.009008			
41586	9.479343	0.761324	-0.936227	-1.558576	-0.747307	-0.414555	-150.728168	-79.257008	-112.035054			
41587	9.344359	0.915933	-1.169474	-1.687053	-0.644271	-0.525020	-153.570250	-78.664882	-108.929548			
41588	9.747292	1.556246	-1.333848	-2.307630	-0.768335	-0.153834	-156.296928	-78.138780	-105.784286			
41589	9.588271	2.171773	-0.429956	-2.701943	-1.812518	-0.525644	-158.975462	-77.728710	-102.781835			
41590	9.508810	2.500426	0.066675	-2.868371	-2.422970	-0.725640	-161.707225	-77.233410	-100.085979			
41591	10.113870	2.245334	0.437877	-2.533197	-2.979181	-0.209042	-163.664266	-76.534404	-98.715009			
41592	10.077522	0.736610	-0.064146	-1.108886	-2.415476	-0.063974	-164.755957	-75.656124	-98.903908			
41593	10.514281	-1.931612	-2.347214	1.231459	-0.218330	1.060339	-164.959450	-74.730472	-100.380909			
41594	10.158904	-4.996920	-4.362169	4.126949	1.825171	1.449386	-164.957687	-74.258511	-102.033529			
41595	8.615903	-5.768107	-3.538957	5.068671	1.308689	-0.188573	-165.401595	-74.120591	-102.692498			
41596	7.415012	-5.229027	-2.951127	4.662548	0.945178	-1.542206	-166.361189	-73.734741	-102.057961			
41597	8.078907	-3.859464	-3.217974	3.281907	0.902271	-0.928230	-167.882273	-73.016029	-100.203250			
41598	8.996726	-2.180522	-3.228513	1.601742	0.487922	-0.152790	-169.466801	-72.108333	-97.805767			
41599	9.741410	-0.059148	-3.286476	-0.485946	0.086637	0.456357	-171.184242	-71.333738	-95.253257			
41600	9.531792	1.930342	-2.620762	-2.334002	-0.724497	-0.041544	-172.829674	-70.790963	-93.096559			
41601	8.811755	2.773040	-2.276027	-3.054266	-0.963541	-0.853934	-174.242704	-70.378619	-91.697402			
41602	8.194596	2.510610	-1.467944	-2.677000	-1.563324	-1.688724	-175.124504	-69.845334	-91.276532			
41603	8.186517	1.446491	-1.391736	-1.590167	-1.646313	-1.700439	-175.877357	-69.022842	-91.407028			
41604	9.016676	-0.383807	-3.184722	0.160103	-0.323056	-0.249325	-176.425104	-68.053518	-91.865959			
41605	9.357153	-2.033828	-3.767819	1.809496	-0.029852	0.317065	-176.855172	-67.307540	-92.304488			
41606	8.763733	-2.718933	-2.916504	2.546139	-0.723823	-0.555616	-177.525780	-66.679089	-92.265112			
41607	8.539564	-2.755602	-2.301358	2.621102	-1.328721	-1.027670	-178.162207	-65.900791	-91.863662			
41608	8.783851	-2.072414	-2.489396	1.971616	-1.387618	-0.766501	-178.814382	-65.000357	-91.078223			
41609	9.418819	-0.637557	-2.592551	0.582162	-1.697644	-0.188801	-179.479772	-64.177760	-90.084706			
41610	10.129228	0.562988	-2.160042	-0.555356	-2.522290	0.232831	179.924631	-63.621707	-89.205835			
41611	9.843348	0.762758	-0.995162	-0.695971	-3.517192	-0.560213	179.645371	-63.314724	-88.735436			
41612	9.316419	0.083080	0.116711	0.022168	-4.310309	-1.552137	179.334553	-63.013678	-88.440196			
41613	9.522392	-0.462967	0.409397	0.591376	-4.708575	-1.533979	178.949633	-62.579067	-88.287664			
41614	9.402634	-1.529486	-0.239564	1.655926	-4.143349	-1.392720	178.718074	-61.973984	-88.360869			
41615	9.489573	-3.211037	-2.557657	3.346805	-2.221530	-0.285515	178.266980	-61.418461	-88.132017			
41616	9.580501	-2.523692	-2.458812	2.699763	-2.436437	-0.274590	177.843292	-60.990916	-87.542348			
41617	9.398349	-0.851605	-2.005433	1.079316	-2.828936	-0.652598	177.263059	-60.465580	-86.729982			
41618	10.169547	0.364441	-3.030904	-0.037353	-2.418609	0.525898	176.396379	-59.929440	-85.752069			
41619	10.886101	1.529541	-2.901110	-1.086907	-2.989714	1.102552	175.664884	-59.575221	-84.979494			
41620	11.015893	2.270304	-1.604392	-1.756576	-4.235854	0.582023	175.058031	-59.377985	-84.625923			
41621	10.892798	1.867364	-1.045238	-1.333198	-4.659778	0.174387	174.330292	-59.257946	-84.650155			
41622	10.836599	0.680971	-1.977407	-0.112151	-3.814463	0.543131	173.305201	-59.248255	-84.749300			
41623	11.536127	0.036951	-2.819919	0.626398	-3.427588	1.540488	172.321352	-59.455278	-84.943372			
41624	12.432196	-1.094816	-2.616747	1.809976	-4.034911	2.147602	171.358884	-59.890805	-85.156500			
41625	13.122725	-2.370343	-2.034272	3.086807	-4.875775	2.379962	170.336543	-60.386050	-85.139911			
41626	13.089920	-1.921901	-0.132295	2.471597	-6.430078	1.483434	169.693614	-60.669794	-85.098548			
41627	13.857193	-1.646803	1.161655	2.097407	-7.892095	1.562677	168.764257	-60.731256	-84.884347			
41628	15.504033	-1.887753	0.916579	2.446453	-8.473178	3.110103	167.754355	-61.055423	-84.622068			
41629	15.763169	-2.526327	1.350384	3.036563	-8.945149	3.127368	167.100689	-61.676071	-84.452933			
41630	16.328026	-2.500902	2.411490	2.900298	-9.974841	3.254822	166.367892	-62.569515	-83.975634			
41631	17.334098	-2.426819	4.793259	2.599438	-12.241122	3.329296	165.447468	-64.129847	-82.909491			
41632	12.833158	-1.148481	6.119949	1.044051	-11.000853	-0.794230	164.539291	-65.989454	-81.293343			
41633	11.483855	0.609891	3.240663	-0.246770	-7.435236	-0.463670	164.171053	-66.957167	-79.837122			
41634	14.289834	0.823933	2.189097	0.007236	-7.309493	2.686513	162.870386	-68.217685	-77.749477			
41635	13.046476	-0.309215	2.608522	1.123022	-7.014638	1.440383	160.754160	-69.717376	-75.605080			
41636	13.272680	-3.790286	-0.779855	4.990068	-3.832204	2.497685	158.842954	-71.073676	-74.306636			
41637	14.231329	-5.199678	-4.501201	6.895474	-0.425854	4.403200	157.319204	-72.423609	-73.254948			
41638	14.686705	-3.181446	-5.938773	5.095860	1.306597	5.464939	156.496699	-73.654872	-72.493878			
41639	13.960652	-0.781989	-6.127945	2.653575	2.192617	5.060379	155.640147	-74.643301	-71.664173			
41640	14.234717	1.173992	-7.114016	0.818477	3.487870	5.736449	155.409618	-75.431016	-71.494623			
41641	14.259865	1.478963	-7.223012	0.448006	3.827100	5.770968	156.128353	-76.331150	-72.250667			
41642	13.753601	0.176478	-6.361444	1.473639	3.222241	4.921581	157.178288	-77.487679	-73.361281			
41643	12.632315	-1.372290	-6.377245	2.797870	3.582210	3.658008	158.427205	-78.718556	-74.452205			
41644	12.392393	-2.786378	-7.710173	4.177462	5.105582	3.500850	158.648890	-80.064931	-73.831980			
41645	11.200461	-0.737659	-5.381309	1.694547	3.528047	2.003533	158.210017	-81.413666	-71.753149			
41646	11.269220	0.926157	-4.061311	-0.184781	2.594735	1.916515	156.137324	-82.635982	-68.040221			
41647	11.722206	2.418622	-4.722034	-1.738003	3.502017	2.445564	151.877187	-84.023161	-62.429635			
41648	11.769135	2.053482	-6.064556	-1.467161	5.145122	2.470219	143.349947	-85.603794	-53.150757			
41649	11.798642	1.388541	-7.044584	-0.934299	6.524594	2.323836	119.904346	-87.277981	-28.953673			
41650	10.196425	1.598712	-3.446690	-1.283615	3.379425	0.449825	65.718581	-87.757782	25.932760			
41651	9.496049	1.958455	-2.566245	-1.742915	2.791422	-0.338501	34.429445	-86.985691	57.752213			
41652	10.782956	1.342860	-4.910401	-1.286008	5.465426	0.706525	17.523884	-85.818940	74.853504			
41653	9.730842	0.545947	-4.334153	-0.597190	5.106865	-0.467759	8.439592	-84.388946	84.209468			
41654	8.545578	0.624562	-4.037021	-0.775737	4.921592	-1.757581	3.166064	-82.900095	89.732968			
41655	7.693528	0.610499	-3.728227	-0.837049	4.699724	-2.694366	-0.105415	-81.492260	93.295690			
41656	7.465195	0.395715	-4.266694	-0.737609	5.372472	-3.128477	-2.267922	-80.075477	95.803825			
41657	6.963896	0.712433	-3.936973	-1.110504	5.085266	-3.696576	-3.850363	-78.753166	97.754200			
41658	6.849880	0.575749	-3.694280	-1.038837	4.955038	-3.874179	-4.997314	-77.550540	99.360696			
41659	7.010734	0.672407	-3.710042	-1.229375	5.102706	-3.828079	-5.803748	-76.420996	100.721367			
41660	6.762774	1.058381	-3.618091	-1.684986	5.014214	-4.159168	-6.309681	-75.341343	101.848009			
41661	6.503356	1.670777	-3.038749	-2.308034	4.406360	-4.374426	-6.723441	-74.349325	102.774096			
41662	6.381927	1.964792	-3.319540	-2.686130	4.674508	-4.660868	-7.198232	-73.452284	103.612944			
41663	6.116393	2.347543	-3.230295	-3.091531	4.527424	-4.985683	-7.816346	-72.636325	104.360698			
41664	5.617623	2.597485	-3.003108	-3.315223	4.191669	-5.481208	-8.638070	-71.881767	105.081487			
41665	4.817739	2.299417	-2.400316	-2.917760	3.466938	-6.107828	-9.724032	-71.241662	105.862631			
41666	4.281022	2.232915	-2.138947	-2.792580	3.106172	-6.581432	-11.073233	-70.746509	106.683270			
41667	3.962306	1.638289	-2.116901	-2.172289	3.086994	-6.877288	-12.626677	-70.388061	107.510323			
41668	3.701495	1.050663	-2.219736	-1.562881	3.184457	-7.138972	-14.205678	-70.171050	108.337032			
41669	3.950133	0.164499	-2.633577	-0.720061	3.741362	-6.975429	-15.724557	-70.130653	109.174118			
41670	4.304758	0.088283	-2.957752	-0.684393	4.164579	-6.734556	-17.067354	-70.193679	109.968938			
41671	4.514864	-0.406330	-2.946872	-0.208380	4.243893	-6.469179	-18.267725	-70.342628	110.762080			
41672	4.532662	-0.356090	-2.256494	-0.246132	3.574243	-6.217174	-19.219147	-70.582391	111.612750			
41673	5.049560	-0.741658	-1.736801	0.069711	3.236485	-5.501687	-20.132359	-70.939449	112.624391			
41674	6.067665	-0.529597	-0.681440	-0.263758	2.482096	-4.215305	-21.003792	-71.411536	113.772985			
41675	8.379439	0.756800	1.273202	-1.799248	1.143471	-1.574757	-21.898075	-71.800600	114.785476			
41676	9.590237	-0.124377	1.716354	-1.090321	1.049230	-0.187521	-22.869393	-72.135388	115.706944			
41677	11.003603	0.049096	4.161110	-1.400594	-0.987599	1.825999	-23.779893	-72.379112	116.699896			
41678	13.752384	0.457967	7.300370	-2.146673	-3.344904	5.248370	-25.112150	-72.394578	117.721401			
41679	13.861153	-2.974966	8.046946	1.121212	-3.818771	5.995313	-26.358506	-72.012139	118.641536			
41680	12.699954	-3.141285	10.260059	1.359175	-6.182919	5.560902	-27.179917	-71.466867	119.526059			
41681	11.042091	-2.695859	11.800188	1.060596	-8.060604	4.411885	-28.339695	-70.898604	120.471647			
41682	9.127608	-4.191344	11.004010	2.666118	-7.712923	2.652005	-29.814747	-70.519169	121.507140			
41683	8.149571	-4.929850	10.557109	3.409539	-7.546533	1.745638	-31.158220	-70.414597	122.502261			
41684	8.295128	-4.275584	9.593932	2.639102	-6.673965	1.484461	-32.319955	-70.525413	123.327887			
41685	8.836834	-4.271837	8.400220	2.481490	-5.445662	1.636694	-33.078010	-70.678804	123.810925			
41686	8.136708	-3.124567	7.388004	1.478642	-4.754578	0.471235	-33.207049	-70.832601	123.960015			
41687	7.126398	-1.215252	5.181018	-0.154201	-3.018930	-1.448048	-33.213627	-71.234049	124.285685			
41688	7.596248	-0.290483	2.566637	-1.084517	-0.482993	-1.877654	-33.410682	-71.853826	124.974093			
41689	8.199685	1.151913	-0.359699	-2.585097	2.320504	-2.287920	-33.879538	-72.690620	125.946330			
41690	11.306362	3.350175	-2.626224	-5.287125	4.949675	-0.143470	-34.674433	-73.998640	127.339319			
41691	11.278393	5.354162	-5.106092	-7.249648	6.932357	-0.795695	-35.170873	-76.002119	128.419967			
41692	13.306365	6.743993	-4.351538	-8.713517	6.088026	1.520834	-34.701869	-78.451289	128.494814			
41693	22.532954	5.157468	4.884811	-7.503580	-1.653200	12.528991	-31.199541	-78.676397	125.547057			
41694	19.728296	-2.020417	13.817740	0.419477	-9.811467	12.270599	-29.315320	-76.056141	123.419787			
41695	6.625924	-16.643732	10.678742	16.012968	-7.637511	1.148944	-33.258852	-74.236101	127.057774			
41696	10.057553	-11.622245	-2.713304	9.622471	5.870699	0.982322	-33.965206	-75.627074	130.155168			
41697	14.595014	3.709810	-5.180952	-6.435223	7.146848	2.880120	-26.873248	-77.145668	126.894718			
41698	12.060928	10.858412	1.538719	-11.707257	-1.652491	1.406399	-16.588044	-78.055927	120.423718			
41699	8.259410	18.651889	5.696594	-17.521206	-8.582938	-1.573011	-12.943603	-79.271667	116.956943			
41700	7.675164	9.053297	-2.094639	-9.925325	1.160307	-3.075139	-22.128671	-80.550027	123.429743			
41701	4.299663	0.828759	-6.564217	-2.280458	6.783246	-6.490672	-42.373406	-81.504769	139.905156			
41702	4.161167	-7.016246	-21.346922	4.348181	22.222450	-6.768418	-63.443054	-81.122136	157.567755			
41703	9.247991	-12.478013	-8.754378	10.433710	10.010913	0.616199	-68.147847	-79.575032	160.235304			
41704	5.854254	-10.145566	-1.658629	8.921348	2.461764	-2.443526	-68.312948	-79.304878	160.704640			
41705	4.258310	-3.301610	-1.100964	2.474715	1.494534	-5.134233	-73.988186	-80.369594	167.757599			
41706	8.303295	-1.958169	-7.255284	0.157853	7.511476	-1.508664	-86.966324	-82.330081	-178.033753			
41707	16.233386	0.449883	-7.336680	-3.140934	7.070934	6.239658	-92.797915	-83.745895	-170.600110			
41708	10.410479	3.077811	-0.310665	-4.139113	-0.273758	0.224168	-95.276633	-84.310313	-167.220496			
41709	9.405411	1.876650	-0.258605	-2.788756	-0.252647	-0.636182	-102.819037	-84.168588	-159.783565			
41710	10.085842	-0.515386	-3.756976	-0.966961	3.344587	0.384382	-110.184931	-83.385879	-152.752065			
41711	9.635828	-3.343942	-4.375539	1.738141	4.187136	0.317571	-112.151096	-82.828601	-150.946715			
41712	7.923155	-3.470817	-2.565455	2.239506	2.454131	-1.424225	-114.560742	-82.738167	-148.076287			
41713	7.788741	-2.383711	-1.239075	1.375628	0.970590	-1.747518	-120.757841	-82.759235	-140.893877			
41714	8.988583	-1.529237	-1.796537	0.401441	1.209410	-0.607528	-129.240454	-82.663057	-131.339999			
41715	10.588602	-0.701389	-2.210885	-0.533343	1.198933	0.947162	-135.817481	-82.447400	-123.811298			
41716	10.598976	-0.211654	-0.733823	-0.678321	-0.457812	0.782155	-139.496292	-82.097324	-119.628602			
41717	9.937590	-0.940596	-0.446064	0.163740	-0.634719	0.157704	-141.881824	-81.567170	-117.219918			
41718	9.741004	-1.787124	-1.275646	0.855088	0.244518	0.132979	-144.075315	-81.024697	-115.032731			
41719	9.576675	-1.207175	-1.067063	0.361229	-0.145044	-0.109279	-146.751180	-80.557406	-112.040320			
41720	9.673203	0.188151	-0.873843	-0.919134	-0.714751	-0.168374	-150.005875	-80.111755	-108.230129			
41721	9.792396	1.251799	-0.707250	-1.851819	-1.212410	-0.166057	-153.229124	-79.759195	-104.402233			
41722	9.731351	2.062387	-0.542223	-2.514928	-1.626946	-0.311451	-156.128522	-79.458531	-101.023259			
41723	9.912210	2.348577	-0.448260	-2.702561	-1.896584	-0.165567	-158.315209	-79.102281	-98.668222			
41724	10.113445	1.836861	-0.385208	-2.154169	-1.964528	0.051581	-159.520998	-78.597631	-97.733993			
41725	10.063098	0.433728	-1.383386	-0.998734	-0.790413	0.274173	-160.240891	-77.969298	-97.762101			
41726	9.850246	-1.277797	-3.694142	0.204900	1.708375	0.644145	-160.507483	-77.432826	-98.382287			
41727	8.937771	-2.174345	-3.247996	1.217201	1.558314	-0.260165	-160.552750	-77.111710	-99.027482			
41728	8.182089	-2.361502	-2.753907	1.533454	1.214034	-1.078759	-161.078752	-76.738760	-98.886053			
41729	8.249897	-2.115023	-3.511045	1.178400	1.810617	-0.857579	-162.254949	-76.268452	-97.772044			
41730	8.785176	-1.144514	-3.627940	0.221864	1.555911	-0.369150	-163.604697	-75.803666	-96.279868			
41731	8.948861	-0.290256	-3.219995	-0.510065	0.904848	-0.354613	-164.816851	-75.374667	-94.993590			
41732	9.013776	0.060954	-2.861856	-0.754266	0.412467	-0.394487	-165.783566	-74.937295	-94.126872			
41733	8.867705	-0.247632	-2.862431	-0.414923	0.427886	-0.510257	-166.595643	-74.475479	-93.545979			
41734	8.672409	-0.601263	-3.147997	-0.077892	0.729897	-0.596257	-167.512521	-73.980219	-92.898947			
41735	8.532198	-0.659212	-3.846418	-0.093810	1.357929	-0.529673	-168.529709	-73.476069	-92.118821			
41736	8.374399	-0.473363	-4.246341	-0.295449	1.670395	-0.565643	-169.448230	-72.983321	-91.350568			
41737	8.431204	-0.336976	-4.016283	-0.352191	1.334518	-0.570200	-170.273258	-72.469262	-90.615671			
41738	8.812045	-0.409596	-3.891843	-0.220835	1.021793	-0.227671	-171.099274	-71.875221	-89.864199			
41739	8.953982	-0.464188	-3.806329	-0.109697	0.803110	-0.106026	-171.914287	-71.245090	-89.142314			
41740	8.764304	-0.308950	-3.679656	-0.196246	0.612664	-0.324105	-172.784769	-70.555605	-88.405758			
41741	8.819847	-0.093949	-3.673422	-0.354309	0.440307	-0.274781	-173.684400	-69.811259	-87.675599			
41742	8.857833	-0.083180	-3.487089	-0.281074	0.131652	-0.297954	-174.530985	-69.069453	-87.024035			
41743	8.752463	-0.535193	-3.016560	0.282490	-0.317713	-0.549336	-175.234479	-68.362945	-86.549358			
41744	8.861985	-1.117175	-2.422121	0.987099	-0.938800	-0.658858	-175.832329	-67.651179	-86.170417			
41745	9.069035	-1.497444	-1.876196	1.481872	-1.578062	-0.684576	-176.383282	-66.955780	-85.734796			
41746	9.361750	-1.297083	-1.316979	1.409922	-2.336029	-0.668667	-176.975446	-66.266845	-85.109898			
41747	9.939014	-0.592266	-0.583773	0.881787	-3.430151	-0.489024	-177.555863	-65.581001	-84.381355			
41748	10.460591	0.009715	0.050117	0.452704	-4.401242	-0.333799	-178.115050	-64.933667	-83.678833			
41749	10.448794	0.276797	0.207221	0.266761	-4.667582	-0.461839	-178.581435	-64.375128	-83.141606			
41750	10.239091	0.279791	-0.399964	0.221916	-4.120001	-0.429043	-179.015902	-63.855499	-82.688451			
41751	10.038694	0.218813	-1.858167	0.127430	-2.804849	0.005252	-179.507100	-63.399100	-82.192757			
41752	9.626636	0.312864	-2.918101	-0.082355	-1.758776	0.096142	-179.927806	-63.087882	-81.758392			
41753	9.086357	0.516383	-2.655543	-0.248608	-1.821681	-0.512155	179.692695	-62.813797	-81.514469			
41754	9.243616	0.162932	-2.773871	0.129443	-1.783139	-0.327504	179.227869	-62.479933	-81.413577			
41755	9.272422	-0.691555	-3.093103	0.972657	-1.445834	-0.169732	178.751762	-62.216982	-81.418415			
41756	9.125494	-1.421385	-2.770342	1.753423	-1.609851	-0.469057	178.210457	-62.026389	-81.469645			
41757	8.966628	-2.157550	-2.941988	2.488619	-1.339624	-0.554037	177.603691	-61.862469	-81.545883			
41758	8.956410	-2.485537	-3.084921	2.836405	-1.219214	-0.518606	177.036220	-61.709716	-81.601336			
41759	8.950272	-2.006078	-2.520892	2.435015	-1.800299	-0.795147	176.474847	-61.565938	-81.576144			
41760	8.865744	-0.973390	-1.987204	1.465606	-2.355450	-1.106275	175.893228	-61.431811	-81.520329			
41761	8.882306	-0.124829	-1.694014	0.662600	-2.714084	-1.211800	175.273399	-61.306869	-81.507930			
41762	9.448358	0.262109	-1.733773	0.334940	-2.996132	-0.688156	174.637293	-61.163452	-81.603994			
41763	10.254893	0.217780	-2.058989	0.442619	-3.112237	0.165674	173.933863	-61.036849	-81.778288			
41764	10.424331	-0.092673	-2.401810	0.778352	-2.893837	0.456868	173.175361	-60.974942	-81.977260			
41765	10.248665	-0.346417	-2.622903	1.044887	-2.618021	0.389707	172.361990	-60.958109	-82.163530			
41766	10.757583	-0.405411	-2.842443	1.173294	-2.676703	0.931053	171.467567	-60.973567	-82.316238			
41767	11.851002	-0.403009	-2.591911	1.268121	-3.421283	1.763723	170.544894	-61.050698	-82.438541			
41768	13.270915	-0.180847	-2.043179	1.137675	-4.559613	2.766658	169.610809	-61.238091	-82.494276			
41769	14.323535	0.125742	-1.363745	0.867835	-5.588330	3.418184	168.721183	-61.615551	-82.536852			
41770	14.487247	0.131444	-0.927485	0.842447	-5.939795	3.407191	167.656380	-62.186746	-82.479466			
41771	15.063498	-0.155526	-1.259918	1.216658	-5.747065	4.115926	166.348789	-63.136478	-82.086911			
