// General information: 
//  MT Manager version: 2022.0.0 
//  XDA version: 2022.0.0 build 7085 rev 119802 built on 2022-11-08
// Device information: 
//  DeviceId: 00B4938D
//  ProductCode: MTW2-3A7G6
//  Firmware Version: 4.6.0
//  Hardware Version: 2.0.0
// Device settings: 
//  Filter Profile: human(46.1)
//  Option Flags: Orientation Smoother Disabled, Position/Velocity Smoother Disabled, Continuous Zero Rotation Update Disabled, AHS Disabled, ICC Disabled
// Coordinate system: ENU
PacketCounter	Acc_X	Acc_Y	Acc_Z	FreeAcc_E	FreeAcc_N	FreeAcc_U	Roll	Pitch	Yaw	Vel_E	Vel_N	Vel_U
40738	9.453616	-1.972297	1.767168	0.129977	-0.063661	0.003765	-50.779739	-74.822067	-148.948744			
40739	9.512163	-1.988143	1.799885	0.152331	-0.069889	0.068884	-50.834626	-74.822882	-148.870790			
40740	9.668857	-2.053108	1.637227	-0.010931	0.023710	0.206389	-50.902134	-74.826321	-148.764510			
40741	9.558631	-1.993408	1.569768	-0.065872	0.003403	0.076747	-50.984857	-74.814045	-148.656315			
40742	9.320664	-1.996802	1.521699	-0.056116	0.050385	-0.160130	-51.106276	-74.794544	-148.512816			
40743	9.397815	-1.985158	1.532218	-0.066524	0.018891	-0.086296	-51.244780	-74.780140	-148.340510			
40744	9.410933	-1.936507	1.421462	-0.186928	0.004338	-0.101801	-51.338574	-74.759927	-148.212388			
40745	9.455317	-1.962505	1.224114	-0.372063	0.085055	-0.086062	-51.423151	-74.733936	-148.115355			
40746	9.476580	-1.990803	1.210638	-0.383013	0.107391	-0.061981	-51.495495	-74.702222	-148.037929			
40747	9.558855	-2.106238	1.267403	-0.316598	0.178334	0.050487	-51.522820	-74.667092	-147.995983			
40748	9.527709	-2.204195	1.067793	-0.469451	0.338168	0.007758	-51.529256	-74.619665	-147.986257			
40749	9.482952	-2.338465	0.948421	-0.534447	0.505191	-0.027319	-51.557178	-74.569253	-147.963481			
40750	9.612732	-2.431371	1.004790	-0.490122	0.547789	0.126401	-51.579235	-74.514612	-147.936769			
40751	9.601323	-2.386767	1.084760	-0.435451	0.474766	0.119268	-51.573698	-74.457371	-147.918261			
40752	9.503971	-2.387454	1.010497	-0.490534	0.509560	0.013106	-51.575998	-74.400119	-147.889044			
40753	9.463431	-2.334931	1.073469	-0.446934	0.439645	-0.026588	-51.582845	-74.352722	-147.836693			
40754	9.462228	-2.322816	1.049573	-0.479851	0.432359	-0.034465	-51.567353	-74.307537	-147.792552			
40755	9.455299	-2.311514	1.106735	-0.435987	0.399512	-0.034092	-51.542924	-74.265343	-147.748415			
40756	9.453335	-2.316663	1.112733	-0.436084	0.399550	-0.034097	-51.495321	-74.223302	-147.716778			
40757	9.512073	-2.299180	1.093932	-0.479320	0.378696	0.015298	-51.456973	-74.187785	-147.668865			
40758	9.488016	-2.280798	1.112870	-0.468668	0.356449	-0.008797	-51.410090	-74.154008	-147.619127			
40759	9.415767	-2.177032	1.039621	-0.556404	0.293104	-0.113128	-51.391185	-74.129629	-147.529358			
40760	9.347476	-2.112508	1.082895	-0.524272	0.226304	-0.185404	-51.367412	-74.109204	-147.438699			
40761	9.266051	-1.975583	1.250685	-0.393920	0.053492	-0.264452	-51.325257	-74.097199	-147.350840			
40762	9.336152	-1.887909	1.310604	-0.383221	-0.058365	-0.205641	-51.268705	-74.088841	-147.274204			
40763	9.267383	-1.744489	1.175482	-0.536651	-0.136282	-0.325706	-51.202448	-74.086071	-147.213274			
40764	9.228351	-1.700748	1.263464	-0.460685	-0.198939	-0.357554	-51.127925	-74.081785	-147.159418			
40765	9.730840	-1.729750	1.264593	-0.567610	-0.244850	0.132077	-51.056487	-74.094571	-147.102928			
40766	9.823006	-1.678645	1.340030	-0.534858	-0.327115	0.222844	-50.914921	-74.092935	-147.130311			
40767	9.875835	-1.776544	1.388428	-0.479387	-0.253142	0.302749	-50.682745	-74.079848	-147.255148			
40768	9.842423	-1.817664	1.472880	-0.392068	-0.228115	0.293785	-50.347371	-74.046908	-147.507788			
40769	9.816587	-2.018487	1.446678	-0.369082	-0.016852	0.306404	-49.942608	-74.001700	-147.867507			
40770	9.683555	-2.122982	1.437420	-0.336327	0.115892	0.198200	-49.494473	-73.940890	-148.295592			
40771	9.494661	-2.178113	1.336644	-0.390997	0.240339	0.009160	-49.013502	-73.875500	-148.770288			
40772	9.305042	-2.339727	1.333907	-0.325365	0.434108	-0.140921	-48.500459	-73.804441	-149.289548			
40773	9.226894	-2.419678	1.383766	-0.259435	0.520344	-0.191508	-47.952408	-73.748588	-149.841723			
40774	9.239961	-2.535800	1.576606	-0.073197	0.586254	-0.120231	-47.278319	-73.695871	-150.515018			
40775	9.213825	-2.584723	1.828819	0.156503	0.582118	-0.088673	-46.456967	-73.648557	-151.310959			
40776	9.357593	-2.648995	2.101526	0.364840	0.569986	0.114042	-45.512687	-73.608551	-152.206105			
40777	9.452591	-2.712570	2.152561	0.376896	0.640945	0.226732	-44.468006	-73.564241	-153.193097			
40778	9.517880	-2.693104	1.951962	0.137152	0.722332	0.242767	-43.339717	-73.515599	-154.253457			
40779	9.690367	-2.695838	2.108281	0.203770	0.703437	0.438113	-42.117461	-73.451654	-155.390419			
40780	9.710802	-2.556977	2.620834	0.596117	0.462887	0.537992	-40.841699	-73.377299	-156.537346			
40781	9.841470	-2.120686	3.049652	0.801956	-0.041839	0.675733	-39.638687	-73.313567	-157.583776			
40782	9.844336	-1.584768	3.500025	1.039111	-0.632715	0.684560	-38.490738	-73.253781	-158.547248			
40783	9.380904	-0.781180	3.062452	0.520210	-1.162174	0.004072	-37.577495	-73.246849	-159.275002			
40784	9.268908	-0.106318	2.894658	0.210262	-1.700107	-0.254010	-36.866795	-73.313630	-159.784566			
40785	9.821438	0.484016	3.778199	0.732932	-2.540275	0.384340	-36.189306	-73.402452	-160.224159			
40786	10.219361	1.283833	4.241841	0.860481	-3.433996	0.748745	-35.475232	-73.466599	-160.688028			
40787	10.629357	1.804360	4.058953	0.455330	-3.874943	1.026658	-34.783413	-73.500610	-161.207828			
40788	10.420704	1.680235	3.852482	0.345992	-3.641363	0.811649	-34.060100	-73.487434	-161.883539			
40789	9.790141	1.508061	3.742626	0.443030	-3.357082	0.220357	-33.392967	-73.474584	-162.597118			
40790	10.262841	0.998783	3.621183	0.316931	-2.848988	0.733364	-32.906971	-73.492614	-163.209180			
40791	11.245762	0.371267	3.369240	-0.035199	-2.237131	1.717740	-32.573056	-73.490098	-163.692824			
40792	11.934550	-0.280945	3.000554	-0.421357	-1.546326	2.391694	-32.201485	-73.358384	-164.231075			
40793	11.481736	-0.507327	2.682259	-0.585132	-1.189418	1.914403	-31.775905	-73.066244	-164.857953			
40794	10.678294	-0.484948	2.617156	-0.501328	-1.122959	1.123387	-31.399246	-72.676701	-165.509138			
40795	9.685478	-0.416027	2.743957	-0.200036	-1.151377	0.194540	-31.084749	-72.245460	-166.124308			
40796	8.844376	-0.446764	2.795651	0.025822	-1.078454	-0.589127	-30.815572	-71.830502	-166.694951			
40797	7.965783	-0.608594	2.967938	0.427309	-0.919128	-1.350711	-30.586782	-71.462685	-167.212348			
40798	7.293738	-0.821398	3.029100	0.698794	-0.693971	-1.933684	-30.413745	-71.174330	-167.647623			
40799	6.852859	-0.966500	3.074070	0.883679	-0.545112	-2.311515	-30.293260	-70.976812	-167.987961			
40800	6.772395	-1.050127	3.079525	0.916540	-0.466176	-2.369960	-30.247670	-70.875949	-168.206549			
40801	6.749391	-1.000901	3.156679	0.970727	-0.539580	-2.377148	-30.263799	-70.862193	-168.302838			
40802	7.180562	-0.985928	3.459833	1.102964	-0.684995	-1.886957	-30.350497	-70.909882	-168.281037			
40803	7.662243	-1.099912	3.686468	1.192948	-0.687593	-1.350187	-30.435448	-70.950199	-168.205701			
40804	8.066821	-0.898460	3.100137	0.483728	-0.716081	-1.167174	-30.609387	-70.995968	-168.037833			
40805	8.576553	-0.887068	2.876744	0.125645	-0.695796	-0.750686	-30.821652	-71.039587	-167.819344			
40806	9.070981	-0.865458	3.002922	0.083422	-0.799759	-0.252213	-30.975482	-71.060566	-167.636308			
40807	9.133523	-0.618040	3.015462	0.005486	-1.046471	-0.231399	-31.022364	-71.049772	-167.549958			
40808	8.990445	-0.612034	3.066322	0.091944	-1.059882	-0.353659	-30.991751	-71.017718	-167.570916			
40809	8.780985	-0.417948	3.202436	0.220641	-1.271615	-0.546065	-30.940748	-71.000459	-167.621607			
40810	8.679937	-0.499408	3.080125	0.166183	-1.145607	-0.661849	-30.921845	-71.026595	-167.642023			
40811	8.768174	-0.494592	3.105282	0.166582	-1.162374	-0.572049	-30.911584	-71.091042	-167.647679			
40812	8.820328	-0.606409	3.234598	0.309267	-1.099571	-0.467965	-30.878691	-71.154174	-167.663603			
40813	8.805538	-0.542821	3.178833	0.254309	-1.136338	-0.507787	-30.837512	-71.206301	-167.682540			
40814	8.589891	-0.404235	2.944918	0.077734	-1.172524	-0.799291	-30.830892	-71.248128	-167.681609			
40815	8.695167	-0.158748	3.012445	0.043457	-1.433104	-0.721468	-30.901747	-71.314574	-167.595749			
40816	9.106329	-0.129793	3.101194	0.000830	-1.520239	-0.312775	-31.042337	-71.402269	-167.411172			
40817	8.994146	0.308198	3.369407	0.171235	-2.018471	-0.419128	-31.256125	-71.508781	-167.128903			
40818	9.377495	0.234621	3.462951	0.183815	-2.015157	-0.020356	-31.559657	-71.638609	-166.759625			
40819	9.559208	0.372607	3.474836	0.128708	-2.176071	0.129135	-31.977607	-71.773384	-166.291536			
40820	9.528116	0.602504	3.178259	-0.168194	-2.314311	-0.021625	-32.515334	-71.889481	-165.739621			
40821	9.551490	0.815049	2.861299	-0.497242	-2.440892	-0.123675	-33.202143	-71.996691	-165.092045			
40822	9.779965	0.779765	3.066749	-0.344038	-2.524494	0.145682	-33.941175	-72.078307	-164.423064			
40823	10.111595	0.572844	3.568226	0.094722	-2.556443	0.616129	-34.682477	-72.130484	-163.758504			
40824	10.265295	0.227294	3.733236	0.315792	-2.335316	0.855557	-35.373620	-72.155416	-163.155622			
40825	10.724462	-0.397703	4.109635	0.715166	-1.949260	1.489975	-35.970882	-72.134735	-162.638840			
40826	10.600924	-0.523644	3.850421	0.551861	-1.768273	1.325001	-36.469852	-72.063930	-162.197069			
40827	10.450165	-0.656709	3.288430	0.116389	-1.478056	1.061716	-37.035323	-71.966217	-161.736175			
40828	10.397160	-0.717657	3.167332	0.029032	-1.412572	0.987850	-37.588649	-71.850384	-161.261380			
40829	10.407276	-0.569497	3.244937	0.038314	-1.616644	0.983153	-38.108812	-71.699964	-160.807701			
40830	10.360051	-0.360419	3.402273	0.111874	-1.897943	0.930736	-38.571336	-71.517163	-160.428720			
40831	10.480642	-0.195254	3.740929	0.306512	-2.217279	1.089884	-38.983252	-71.319607	-160.140292			
40832	10.884623	-0.255625	3.591741	0.035250	-2.190132	1.440883	-39.371026	-71.123250	-159.914530			
40833	11.425003	-0.348956	3.423891	-0.289470	-2.142672	1.921894	-39.749136	-70.909810	-159.760973			
40834	12.122585	-0.802436	3.674313	-0.185565	-1.925068	2.731670	-40.074975	-70.671911	-159.696433			
40835	12.713160	-1.208956	3.294787	-0.637785	-1.522295	3.272308	-40.407680	-70.412447	-159.615787			
40836	13.247761	-1.511798	2.549228	-1.440144	-1.074809	3.643077	-40.600978	-70.121329	-159.608252			
40837	12.089666	-1.582660	2.183190	-1.442876	-0.767618	2.465732	-40.594477	-69.784158	-159.760751			
40838	10.075610	-1.325016	2.740172	-0.438283	-0.982143	0.657513	-40.409184	-69.454227	-160.033593			
40839	8.409549	-1.351779	3.878241	1.082591	-1.181559	-0.592040	-40.243126	-69.211606	-160.247310			
40840	7.317072	-1.149536	4.412102	1.829050	-1.436913	-1.511034	-40.155617	-69.079123	-160.357208			
40841	7.023157	-1.031559	4.682828	2.121193	-1.614850	-1.737384	-40.247279	-69.062184	-160.300237			
40842	7.464654	-1.034580	4.890184	2.165782	-1.748689	-1.271214	-40.507372	-69.155613	-160.068850			
40843	7.907247	-1.358785	4.600599	1.887151	-1.408046	-0.868845	-40.962128	-69.322669	-159.593165			
40844	8.290500	-1.644825	4.247873	1.575070	-1.075061	-0.547404	-41.537137	-69.526670	-158.886375			
40845	8.398281	-1.771187	4.153525	1.544093	-0.953166	-0.451759	-42.233293	-69.748185	-157.962521			
40846	9.050413	-2.345513	4.175837	1.584367	-0.532282	0.289550	-42.955234	-69.961188	-156.968691			
40847	10.337409	-3.491932	4.130535	1.534810	0.352740	1.747446	-43.582923	-70.122787	-156.049316			
40848	11.115992	-4.636355	3.976198	1.527119	1.342337	2.706785	-44.028839	-70.189261	-155.314348			
40849	11.747196	-5.686931	3.419945	1.148260	2.399375	3.414492	-44.470565	-70.185335	-154.578451			
40850	11.101476	-5.970276	2.223974	0.332388	3.139654	2.591546	-44.885879	-70.110205	-153.830818			
40851	10.157365	-5.703633	1.508280	-0.130210	3.240806	1.477061	-45.338353	-69.992387	-153.018071			
40852	8.913713	-5.339983	1.590341	0.189204	3.034470	0.249860	-45.648535	-69.812148	-152.370652			
40853	7.251519	-4.959465	2.167395	1.085450	2.733073	-1.255210	-45.830043	-69.624059	-151.918490			
40854	6.590531	-4.602309	2.558333	1.526469	2.368794	-1.861581	-46.087657	-69.537818	-151.427169			
40855	6.810870	-3.849730	2.365198	1.083026	1.680965	-1.887795	-46.566173	-69.578652	-150.747539			
40856	7.469562	-3.236545	1.744240	0.173187	1.179121	-1.573055	-47.214870	-69.703851	-149.927647			
40857	8.094958	-2.725567	1.365781	-0.462912	0.693401	-1.202971	-47.870171	-69.834642	-149.138903			
40858	8.586830	-2.734889	1.112885	-0.810553	0.675534	-0.793909	-48.371295	-69.929564	-148.532054			
40859	8.715327	-2.652813	1.353092	-0.625792	0.487168	-0.636838	-48.682237	-69.997400	-148.141113			
40860	8.761347	-2.594502	1.552673	-0.452177	0.356091	-0.562166	-48.899222	-70.083230	-147.870457			
40861	8.850404	-2.309479	1.561025	-0.520344	0.069456	-0.548535	-49.126779	-70.212255	-147.601665			
40862	8.974820	-2.135420	1.721425	-0.424075	-0.162141	-0.439081	-49.329219	-70.385832	-147.359236			
40863	9.269581	-2.275678	1.575853	-0.573877	-0.031720	-0.155736	-49.503718	-70.602394	-147.143074			
40864	9.753282	-2.302529	1.346268	-0.877388	-0.009659	0.260571	-49.624071	-70.844355	-146.954663			
40865	9.914027	-2.248723	1.025584	-1.192985	0.027828	0.334842	-49.654653	-71.105454	-146.838743			
40866	9.482037	-2.035803	1.074965	-1.043716	-0.086891	-0.111554	-49.652151	-71.383183	-146.727286			
40867	9.400733	-2.105802	0.977792	-1.053351	0.042947	-0.187061	-49.786992	-71.667071	-146.485291			
40868	9.214215	-2.039487	1.104132	-0.858280	-0.008964	-0.349947	-50.051288	-71.947966	-146.117905			
40869	9.196811	-2.076976	1.280772	-0.628626	-0.014499	-0.318484	-50.557960	-72.245245	-145.499146			
40870	9.275917	-2.075306	1.381096	-0.497639	-0.057402	-0.220726	-51.236264	-72.536286	-144.695306			
40871	9.362639	-2.057332	1.647887	-0.214083	-0.170986	-0.089940	-51.981766	-72.792365	-143.816544			
40872	9.532577	-1.995976	1.870161	-0.007494	-0.329577	0.099051	-52.680472	-72.985393	-142.993138			
40873	9.319812	-1.743306	1.718610	-0.119824	-0.497392	-0.190330	-53.291012	-73.100991	-142.297246			
40874	8.903252	-1.601590	1.633210	-0.111825	-0.545217	-0.637147	-53.769729	-73.142852	-141.780214			
40875	8.214410	-1.328425	1.309400	-0.312826	-0.600805	-1.416443	-54.118156	-73.121919	-141.441167			
40876	7.931653	-1.329684	0.982455	-0.553300	-0.468945	-1.743094	-54.398736	-73.064844	-141.226654			
40877	7.926420	-1.324013	0.498463	-1.010801	-0.348816	-1.832324	-54.644546	-72.990587	-141.055966			
40878	8.012197	-1.207733	0.297032	-1.251894	-0.429006	-1.813259	-54.845683	-72.905842	-140.912327			
40879	8.411947	-1.411475	0.153562	-1.433538	-0.284706	-1.407892	-55.048364	-72.809530	-140.727178			
40880	8.651233	-1.622431	0.178917	-1.419653	-0.155454	-1.125426	-55.240642	-72.697296	-140.503895			
40881	8.892122	-1.626678	0.082834	-1.571578	-0.189707	-0.912300	-55.476485	-72.579756	-140.215486			
40882	9.051895	-1.515317	0.143549	-1.583857	-0.364994	-0.778767	-55.765930	-72.464734	-139.871441			
40883	9.211521	-1.284825	0.541149	-1.303477	-0.751107	-0.618533	-56.133325	-72.361112	-139.466156			
40884	9.333665	-1.053433	1.110689	-0.849168	-1.179112	-0.466607	-56.484669	-72.275211	-139.082946			
40885	9.853011	-1.009671	1.614185	-0.500299	-1.489487	0.098818	-56.828546	-72.217526	-138.711852			
40886	10.193958	-1.030989	1.757691	-0.434203	-1.596126	0.450501	-57.026952	-72.172175	-138.480043			
40887	10.064919	-0.808579	1.699644	-0.513636	-1.773413	0.258874	-57.083910	-72.115469	-138.425211			
40888	9.547119	-0.858649	1.834955	-0.263667	-1.667922	-0.200179	-57.088646	-72.038880	-138.495134			
40889	9.433154	-1.066317	2.050259	0.000226	-1.522234	-0.220620	-57.069243	-71.924235	-138.641765			
40890	9.086428	-1.184214	1.402547	-0.521722	-1.166248	-0.631169	-57.043589	-71.776734	-138.849709			
40891	8.785761	-1.488487	1.011441	-0.768665	-0.720541	-0.906616	-57.037097	-71.593582	-139.070599			
40892	8.382561	-1.966070	1.129399	-0.469169	-0.244005	-1.145014	-57.042309	-71.383543	-139.221857			
40893	8.343335	-2.234004	1.286498	-0.269708	-0.056020	-1.084508	-57.139858	-71.159895	-139.210417			
40894	8.354526	-2.415488	1.397719	-0.147746	0.049973	-1.005767	-57.239823	-70.907925	-139.131351			
40895	8.638885	-2.505047	1.584696	-0.048221	-0.014338	-0.679552	-57.325600	-70.642582	-139.011984			
40896	9.049865	-2.111214	1.779181	-0.096936	-0.557113	-0.367962	-57.290304	-70.374319	-138.946442			
40897	9.322242	-1.257674	1.724862	-0.457053	-1.418950	-0.366068	-57.183353	-70.121861	-138.941000			
40898	9.149845	-0.741905	1.717581	-0.573794	-1.877959	-0.682293	-57.062445	-69.900376	-138.964465			
40899	9.179488	-0.544524	1.622717	-0.740054	-2.058829	-0.734901	-57.059184	-69.726094	-138.882894			
40900	9.405033	-0.160483	1.301890	-1.202693	-2.390339	-0.701426	-57.177034	-69.598585	-138.701884			
40901	9.565856	0.068193	1.137902	-1.456336	-2.611850	-0.655048	-57.422303	-69.498676	-138.430156			
40902	10.042156	0.000933	1.428675	-1.291592	-2.767487	-0.140109	-57.704524	-69.428910	-138.128210			
40903	10.318310	-0.233756	1.643472	-1.102883	-2.697453	0.223772	-57.965252	-69.391439	-137.878222			
40904	10.312483	-0.414528	2.035254	-0.686622	-2.656269	0.342812	-58.134714	-69.390434	-137.759497			
40905	10.407387	-0.501566	2.069691	-0.652445	-2.610709	0.463858	-58.239870	-69.449973	-137.767399			
40906	10.832566	-0.654646	2.072560	-0.714598	-2.560673	0.911157	-58.298267	-69.574597	-137.895612			
40907	11.800372	-1.049528	2.216372	-0.717743	-2.445868	1.967171	-58.417931	-69.775330	-138.045585			
40908	12.802536	-1.711938	2.246983	-0.749243	-2.044121	3.115750	-58.605846	-70.058980	-138.180525			
40909	13.892481	-2.513784	1.791944	-1.191714	-1.371244	4.302203	-58.910147	-70.398531	-138.236794			
40910	14.885215	-3.481578	1.175669	-1.685958	-0.461310	5.419421	-59.312914	-70.741392	-138.226953			
40911	15.639020	-4.414740	0.285518	-2.354827	0.557611	6.258814	-59.920361	-71.064697	-138.041392			
40912	15.743621	-5.075946	-1.261121	-3.529222	1.682106	6.309695	-60.592055	-71.352407	-137.777305			
40913	14.947507	-5.620634	-2.015291	-3.781971	2.633353	5.609442	-61.231349	-71.595896	-137.531314			
40914	14.199823	-6.105448	-2.186265	-3.535387	3.322473	5.024860	-61.684351	-71.804454	-137.383066			
40915	13.277215	-6.688829	-1.586598	-2.526325	3.872352	4.405766	-61.888555	-71.970771	-137.424158			
40916	11.760512	-7.181166	-0.695049	-1.172163	4.363600	3.223676	-61.540054	-72.071105	-137.928491			
40917	10.098045	-7.506909	0.595195	0.505304	4.592063	1.906354	-60.847798	-72.132887	-138.784104			
40918	7.836340	-7.503822	0.762434	1.175730	5.026102	-0.239146	-59.945092	-72.187175	-139.834103			
40919	6.576579	-6.667779	1.287272	1.693908	4.359130	-1.597075	-59.086439	-72.277707	-140.808597			
40920	5.034106	-6.052342	1.488985	2.051402	4.053713	-3.213506	-58.099213	-72.403473	-141.860099			
40921	3.742736	-5.241189	2.468170	3.004300	3.236046	-4.514380	-57.063767	-72.583880	-142.824133			
40922	4.935265	-4.500926	2.760589	2.757132	2.283016	-3.534010	-56.065835	-72.898059	-143.575409			
40923	6.475474	-3.861361	2.559300	2.012749	1.564222	-2.269917	-54.750163	-73.277886	-144.553607			
40924	6.984904	-3.308697	2.767120	1.919821	0.983330	-1.891833	-53.094118	-73.648420	-145.858069			
40925	7.588528	-2.941846	2.775234	1.678080	0.639344	-1.403369	-51.366302	-74.006023	-147.204225			
40926	8.394687	-2.652408	2.734125	1.372948	0.359017	-0.704074	-49.803069	-74.348719	-148.364773			
40927	9.486575	-2.284732	2.772225	1.067649	-0.061763	0.274730	-48.629492	-74.694282	-149.117729			
40928	10.735503	-2.026479	2.608297	0.590405	-0.345741	1.398569	-47.962696	-75.016487	-149.389770			
40929	11.951552	-2.225940	1.850737	-0.293332	-0.031631	2.480901	-47.710666	-75.275123	-149.285245			
40930	12.382309	-2.364811	1.246028	-0.887388	0.257062	2.821112	-47.487615	-75.409403	-149.192007			
40931	12.257403	-2.616221	0.746226	-1.264166	0.678085	2.660782	-46.996943	-75.387519	-149.433634			
40932	10.998769	-2.393629	1.218038	-0.640672	0.508009	1.479665	-46.136680	-75.231970	-150.114387			
40933	9.913309	-1.993617	1.800436	-0.008421	0.118360	0.457435	-45.126182	-75.034658	-151.039694			
40934	8.863614	-1.588559	2.201701	0.449634	-0.228308	-0.556333	-44.087167	-74.831459	-152.124321			
40935	7.991636	-1.044660	2.672376	0.906097	-0.754125	-1.403808	-43.089539	-74.654573	-153.282512			
40936	7.561287	-0.731998	2.826427	1.030344	-1.026420	-1.838837	-42.164494	-74.518065	-154.470105			
40937	7.148472	-0.586322	2.923655	1.146412	-1.130722	-2.236456	-41.302659	-74.405722	-155.686996			
40938	7.097329	-0.838594	2.967987	1.237519	-0.887742	-2.225550	-40.567903	-74.320432	-156.829204			
40939	7.090951	-1.156302	2.751042	1.101405	-0.510647	-2.215783	-39.968552	-74.247786	-157.819271			
40940	7.243261	-1.363648	2.778262	1.127255	-0.332290	-2.024109	-39.481843	-74.170568	-158.658047			
40941	7.196346	-1.498085	2.815987	1.194706	-0.209847	-2.035152	-39.116957	-74.078066	-159.329121			
40942	7.513662	-1.479875	2.883737	1.152139	-0.279128	-1.716039	-38.843376	-73.976393	-159.857098			
40943	7.557577	-1.547687	2.766878	1.033870	-0.182165	-1.684600	-38.610558	-73.847457	-160.307931			
40944	7.612103	-1.476109	2.616685	0.837091	-0.204240	-1.674656	-38.308788	-73.693257	-160.788477			
40945	7.184738	-1.659218	2.486591	0.860373	0.053050	-2.078770	-37.903597	-73.512483	-161.368289			
40946	6.628361	-1.729623	2.494307	1.011701	0.171722	-2.594984	-37.443598	-73.336261	-161.974147			
40947	6.236073	-1.927377	2.205176	0.894107	0.496681	-2.999462	-37.026445	-73.203001	-162.506749			
40948	6.277113	-1.465410	1.855211	0.408077	0.188874	-3.120216	-36.743023	-73.156076	-162.843380			
40949	6.448612	-1.126608	1.326741	-0.227486	0.045459	-3.137340	-36.662267	-73.191609	-162.956916			
40950	6.412152	-0.707304	1.227036	-0.430434	-0.306888	-3.267298	-36.786770	-73.301186	-162.822885			
40951	6.654360	-0.434193	1.188652	-0.597147	-0.573776	-3.089886	-37.238039	-73.491210	-162.353418			
40952	6.958348	-0.268371	1.299103	-0.598852	-0.804369	-2.800374	-37.948335	-73.737913	-161.604460			
40953	7.131953	-0.304600	1.246026	-0.641048	-0.785872	-2.637636	-38.913645	-74.013164	-160.578469			
40954	7.193133	-0.066469	1.491405	-0.460307	-1.122003	-2.567078	-40.032103	-74.280897	-159.362600			
40955	7.186654	0.333903	2.074540	-0.000049	-1.721929	-2.525857	-41.252979	-74.528370	-158.057235			
40956	7.556242	0.750198	2.502855	0.222000	-2.322353	-2.165401	-42.531973	-74.757221	-156.746464			
40957	8.285289	1.004015	2.865447	0.350329	-2.790660	-1.448836	-43.875638	-74.973996	-155.456199			
40958	9.305217	0.887899	3.537415	0.812222	-3.055708	-0.331580	-45.092417	-75.161000	-154.362494			
40959	10.158635	0.629428	4.098682	1.254289	-3.134717	0.627301	-46.038472	-75.310544	-153.575517			
40960	10.747535	0.569133	3.966886	1.050675	-3.123654	1.174049	-46.673097	-75.446170	-153.116639			
40961	11.431129	0.283935	3.330506	0.427992	-2.726545	1.772921	-47.046264	-75.586852	-152.966905			
40962	12.125490	-0.000476	3.023680	0.098950	-2.430384	2.445109	-47.043723	-75.692597	-153.254637			
40963	12.453156	-0.266988	2.985970	0.072722	-2.193310	2.806839	-46.719292	-75.704169	-153.964876			
40964	12.306322	-0.457413	2.476760	-0.326127	-1.800432	2.614745	-46.354304	-75.647058	-154.821369			
40965	12.323800	-0.736750	1.334921	-1.309065	-1.109580	2.485929	-46.266266	-75.566947	-155.450947			
40966	12.537081	-0.631303	0.607333	-2.081186	-0.945612	2.545316	-46.375324	-75.480049	-155.826686			
40967	12.252129	-0.232767	0.899209	-1.915906	-1.394854	2.243890	-46.551858	-75.390998	-156.003222			
40968	11.772251	-0.005946	2.266626	-0.673692	-2.093950	1.972261	-46.577782	-75.320897	-156.201321			
40969	12.151782	-0.117377	3.549358	0.415230	-2.536654	2.583701	-46.292945	-75.287777	-156.629782			
40970	13.556338	-0.305185	4.540950	1.021141	-2.878196	4.157306	-45.527413	-75.247798	-157.562143			
40971	15.647279	-0.677098	3.626435	-0.200695	-2.330402	6.092509	-44.598621	-75.182850	-158.782357			
40972	16.748616	-0.836661	2.463244	-1.505935	-1.757775	6.977948	-43.719218	-75.065815	-159.996261			
40973	15.094765	-1.443038	2.456490	-0.946652	-1.018572	5.485502	-43.231842	-74.881056	-160.879346			
40974	14.053138	-3.246300	3.312285	0.700387	0.348975	4.965258	-43.060037	-74.608090	-161.443414			
40975	14.231623	-5.194429	3.255506	1.280608	2.097185	5.486998	-42.687252	-74.169502	-162.152812			
40976	13.209922	-5.921102	2.056793	0.661160	3.335220	4.408062	-42.161545	-73.601322	-163.003901			
40977	11.202548	-6.319377	2.092273	1.279631	3.825736	2.578219	-41.793712	-73.026254	-163.708463			
40978	8.993794	-6.936783	2.899784	2.769207	4.175126	0.785206	-41.863701	-72.589616	-163.857092			
40979	8.562906	-7.036003	2.840547	2.834585	4.289747	0.407898	-42.347053	-72.362583	-163.365259			
40980	7.833155	-6.638745	2.979104	2.975891	3.912195	-0.318214	-42.741679	-72.234440	-162.808872			
40981	6.690314	-5.806447	2.953861	2.934323	3.275100	-1.574734	-43.024677	-72.215923	-162.298856			
40982	5.755084	-5.168181	3.541648	3.461090	2.537676	-2.467253	-43.273894	-72.311525	-161.840211			
40983	5.353550	-4.372814	3.519458	3.260124	1.881225	-3.030277	-43.796950	-72.574186	-161.053257			
40984	5.935972	-3.285265	2.616294	1.917446	1.241149	-2.909323	-44.765363	-72.986544	-159.740933			
40985	6.945284	-2.408179	1.520523	0.395939	0.802282	-2.359673	-46.169084	-73.439228	-157.976609			
40986	8.613333	-1.804250	0.547742	-1.064312	0.450920	-1.071518	-47.782647	-73.822604	-155.970785			
40987	10.130942	-1.886195	-0.339737	-2.142706	0.661366	0.251102	-49.294689	-74.020593	-154.112318			
40988	10.779233	-2.097974	-0.547823	-2.375826	0.795782	0.893166	-50.276636	-73.988911	-152.834968			
40989	11.050604	-2.554801	-0.326215	-2.084380	1.031997	1.293138	-50.733745	-73.766479	-152.274759			
40990	10.129181	-2.882878	0.227951	-1.278563	1.188754	0.575533	-50.807059	-73.436004	-152.314418			
40991	8.906609	-2.935089	0.996621	-0.305226	1.059007	-0.446747	-50.909737	-73.125958	-152.466767			
40992	8.367716	-2.944266	1.692985	0.430421	0.826830	-0.830229	-51.184911	-72.908876	-152.537772			
40993	7.974254	-3.150372	2.063940	0.932168	0.881463	-1.087585	-51.655261	-72.821437	-152.442734			
40994	8.035371	-3.225820	1.766129	0.695094	1.039368	-1.064615	-52.271815	-72.887346	-152.131716			
40995	7.520300	-3.110396	1.481542	0.561450	1.109975	-1.634847	-52.799345	-73.016565	-151.832141			
40996	7.049516	-3.352030	1.321196	0.663003	1.448999	-2.057812	-53.247108	-73.152626	-151.526254			
40997	6.555546	-3.326103	0.780151	0.325577	1.719937	-2.630588	-53.711608	-73.290118	-151.103450			
40998	6.684707	-3.393521	0.322934	-0.062640	1.950690	-2.567247	-54.288045	-73.405172	-150.536051			
40999	6.857844	-3.556857	0.231068	-0.101795	2.097407	-2.374603	-54.985814	-73.490881	-149.815644			
41000	7.111235	-3.301701	0.007225	-0.442535	1.910515	-2.221577	-55.814700	-73.562527	-148.869446			
41001	7.683300	-3.281943	-0.005706	-0.582324	1.789882	-1.672576	-56.638631	-73.616040	-147.852229			
41002	8.366421	-3.052640	0.233649	-0.607391	1.356160	-1.028494	-57.233833	-73.637572	-146.999228			
41003	9.110262	-2.997222	0.460546	-0.595900	1.076465	-0.290166	-57.567544	-73.623060	-146.391960			
41004	9.215140	-2.905552	0.543841	-0.586949	0.929159	-0.197651	-57.600772	-73.549203	-146.088799			
41005	8.953117	-2.785509	0.576293	-0.557657	0.839144	-0.472757	-57.535653	-73.442611	-145.909111			
41006	8.524130	-2.510457	0.371725	-0.759957	0.734254	-0.981795	-57.518829	-73.338647	-145.700387			
41007	8.429413	-2.241624	0.257421	-0.950351	0.541348	-1.155326	-57.661944	-73.267722	-145.362800			
41008	8.340453	-2.071866	0.253215	-0.997794	0.390531	-1.282049	-57.891462	-73.239301	-144.930371			
41009	8.610194	-1.942313	0.713070	-0.685560	0.030348	-0.984009	-58.276026	-73.265794	-144.313971			
41010	9.307755	-1.760605	0.941887	-0.687958	-0.356130	-0.324748	-58.732874	-73.330875	-143.595364			
41011	10.004268	-1.487239	1.181697	-0.703045	-0.830358	0.312027	-59.151662	-73.388972	-142.933968			
41012	10.575231	-1.111533	1.488329	-0.666627	-1.399294	0.811987	-59.315491	-73.396629	-142.546769			
41013	10.578825	-0.665384	1.728892	-0.600434	-1.900854	0.740491	-59.093632	-73.339528	-142.585931			
41014	10.311448	-0.404116	1.557487	-0.802018	-2.020420	0.394645	-58.577093	-73.248648	-142.952150			
41015	9.800652	-0.132211	1.433586	-0.917548	-2.121166	-0.180237	-57.948807	-73.130819	-143.491523			
41016	9.258357	-0.138474	1.290119	-0.951216	-1.956814	-0.720562	-57.371593	-73.007015	-144.018847			
41017	8.750352	-0.180710	1.247140	-0.886378	-1.807993	-1.204430	-56.926541	-72.868767	-144.491980			
41018	8.396558	-0.423166	1.076886	-0.903624	-1.460704	-1.512646	-56.646744	-72.721604	-144.839675			
41019	8.034514	-0.390048	1.066480	-0.861995	-1.428976	-1.871789	-56.489443	-72.553592	-145.082236			
41020	7.925484	-0.575286	1.070223	-0.793337	-1.252992	-1.932954	-56.482798	-72.374359	-145.184721			
41021	7.781615	-0.565333	1.201248	-0.664111	-1.301809	-2.055090	-56.535394	-72.180318	-145.203562			
41022	7.683489	-0.562360	1.496551	-0.393743	-1.417283	-2.103722	-56.598272	-71.990840	-145.182847			
41023	7.717586	-0.560686	1.527715	-0.394091	-1.452978	-2.070406	-56.652449	-71.812977	-145.129585			
41024	8.028237	-0.651626	1.496882	-0.489362	-1.429733	-1.760719	-56.703316	-71.641434	-145.077670			
41025	8.270120	-1.064627	1.686690	-0.262960	-1.189923	-1.393181	-56.702907	-71.434711	-145.099881			
41026	8.822976	-1.368524	2.046556	-0.006003	-1.173611	-0.728159	-56.700971	-71.223254	-145.092432			
41027	9.370407	-1.593472	2.005173	-0.141191	-1.075133	-0.159271	-56.686300	-71.006050	-145.069450			
41028	9.702219	-1.562044	2.018346	-0.261088	-1.189753	0.145371	-56.583711	-70.773183	-145.129325			
41029	10.003608	-1.631328	2.029335	-0.346166	-1.207126	0.447648	-56.480481	-70.539975	-145.209170			
41030	10.306466	-1.843043	1.715298	-0.677361	-0.971892	0.730499	-56.458842	-70.331442	-145.200508			
41031	10.317645	-2.019166	1.132605	-1.172418	-0.613197	0.678403	-56.629601	-70.180359	-144.967632			
41032	10.512875	-2.202776	0.609259	-1.645323	-0.312492	0.814595	-57.029272	-70.102791	-144.456226			
41033	10.596299	-2.613583	0.736420	-1.408225	-0.043260	1.034873	-57.626284	-70.081568	-143.708497			
41034	10.676806	-2.747538	0.841781	-1.264310	-0.017495	1.171516	-58.353280	-70.125603	-142.745392			
41035	11.031332	-3.105991	1.541506	-0.572338	-0.067305	1.736398	-59.028534	-70.200126	-141.753537			
41036	11.861525	-3.112994	2.259803	-0.093711	-0.527378	2.645487	-59.557346	-70.300203	-140.831552			
41037	12.458030	-3.139318	2.235071	-0.221963	-0.632874	3.210501	-59.882196	-70.408387	-140.140602			
41038	12.705002	-3.010856	1.866089	-0.625345	-0.668412	3.345073	-60.058212	-70.544813	-139.658422			
41039	13.106144	-2.728288	2.317553	-0.359272	-1.157623	3.719359	-60.086092	-70.721232	-139.371243			
41040	13.508390	-3.071734	2.474299	-0.175578	-0.953648	4.226322	-59.988112	-70.942278	-139.327904			
41041	12.993095	-3.469769	1.930127	-0.393230	-0.245178	3.765608	-59.828362	-71.214590	-139.460650			
41042	12.356887	-3.976938	0.238417	-1.595596	0.992403	3.033873	-59.896746	-71.578712	-139.554935			
41043	12.163197	-4.890293	-0.235481	-1.637044	2.089225	3.027411	-60.024381	-71.991708	-139.657232			
41044	12.057345	-5.690108	-0.837320	-1.832662	3.113864	3.048188	-60.245601	-72.432981	-139.689016			
41045	11.906973	-6.444039	-1.254032	-1.855755	4.039096	3.037029	-60.377551	-72.831604	-139.752682			
41046	11.006184	-7.452741	-1.264097	-1.278353	5.193661	2.421224	-60.110954	-73.145091	-140.064968			
41047	9.947329	-7.331942	-0.343730	-0.208478	5.008651	1.487510	-59.402591	-73.379166	-140.652420			
41048	7.889047	-7.420130	0.836077	1.351287	5.103915	-0.319636	-58.272235	-73.547313	-141.573547			
41049	6.153093	-6.984792	2.338034	2.953364	4.547370	-1.893553	-56.921527	-73.705578	-142.516235			
41050	6.529038	-6.261913	3.176186	3.383598	3.612078	-1.601037	-55.667400	-73.969226	-143.117198			
41051	7.199614	-5.308565	3.828722	3.527937	2.508886	-1.098780	-54.277430	-74.315118	-143.710144			
41052	7.104049	-3.786968	4.422431	3.656554	1.041928	-1.451527	-52.725314	-74.714647	-144.412175			
41053	7.296629	-2.221662	4.118091	2.916726	-0.238971	-1.653665	-51.340941	-75.178813	-145.019503			
41054	7.944699	-1.004188	3.502380	1.925949	-1.197878	-1.371828	-50.415397	-75.706303	-145.284595			
41055	9.169230	-0.305718	2.924274	1.025829	-1.787267	-0.406734	-50.098342	-76.264553	-145.069749			
41056	10.898600	0.055890	2.597637	0.385704	-2.216254	1.163133	-50.372235	-76.793050	-144.388567			
41057	12.665204	-0.171642	2.004218	-0.348957	-2.039985	2.843121	-51.077798	-77.200024	-143.395462			
41058	13.876660	-0.959586	1.486616	-0.790767	-1.300216	4.093294	-51.679801	-77.400620	-142.583209			
41059	13.336174	-1.948323	0.711249	-1.182223	-0.088699	3.631637	-51.726598	-77.356783	-142.422382			
41060	12.063344	-2.577078	0.144291	-1.390653	0.818751	2.417680	-51.134963	-77.141077	-142.953186			
41061	10.548026	-2.780268	0.905834	-0.414677	1.022905	1.077327	-49.895310	-76.805128	-144.153302			
41062	9.938768	-2.779766	1.910772	0.571724	0.860112	0.631923	-48.339272	-76.442411	-145.695725			
41063	8.416408	-2.176797	2.806176	1.495864	0.272882	-0.805123	-46.576416	-76.040800	-147.544262			
41064	7.383373	-1.954121	3.377427	2.116321	0.063973	-1.734549	-44.796997	-75.647416	-149.475662			
41065	6.399090	-1.474626	3.764717	2.513253	-0.358925	-2.681748	-43.184977	-75.292106	-151.329145			
41066	6.062444	-1.593272	3.986446	2.764784	-0.253433	-2.922483	-41.654618	-74.981113	-153.130369			
41067	5.997645	-1.674944	4.031211	2.788520	-0.170830	-2.940819	-40.269214	-74.712907	-154.795481			
41068	5.941835	-1.780493	3.358419	2.149746	0.128140	-3.095802	-39.119366	-74.478638	-156.218741			
41069	5.877368	-1.870609	2.486541	1.336773	0.469792	-3.315166	-38.346083	-74.297490	-157.250677			
41070	6.254605	-2.027243	2.016411	0.821057	0.717489	-3.022491	-37.913661	-74.190495	-157.874869			
41071	6.617328	-2.202639	1.760613	0.523259	0.924352	-2.698463	-37.681934	-74.134010	-158.192247			
41072	7.040624	-2.120411	1.580786	0.219227	0.859055	-2.344129	-37.455202	-74.097669	-158.381113			
41073	7.085174	-1.911202	1.642783	0.203656	0.645012	-2.323122	-37.120520	-74.050389	-158.590309			
41074	7.003655	-1.688651	1.744489	0.252230	0.423429	-2.416537	-36.687931	-74.007528	-158.816371			
41075	6.935192	-1.286242	2.226262	0.611692	-0.073576	-2.441938	-36.244449	-73.993048	-159.012875			
41076	7.240989	-1.066742	2.296834	0.542868	-0.317235	-2.167431	-35.914724	-74.025935	-159.086228			
41077	7.237692	-0.832667	2.426312	0.613454	-0.563189	-2.179144	-35.750340	-74.080909	-159.017685			
41078	7.389523	-0.687417	2.512771	0.632524	-0.731689	-2.037333	-35.762342	-74.174794	-158.781800			
41079	7.499940	-0.440358	2.426520	0.485737	-0.952987	-1.990486	-35.959740	-74.309818	-158.376599			
41080	7.376636	-0.034732	2.416412	0.442141	-1.327353	-2.177402	-36.295014	-74.477739	-157.809731			
41081	7.565180	0.044711	2.446721	0.441232	-1.432865	-2.004200	-36.785220	-74.689541	-157.116550			
41082	7.532463	0.266079	2.566604	0.554931	-1.676838	-2.048902	-37.378749	-74.918637	-156.304445			
41083	7.572369	0.570307	2.589824	0.547315	-1.986422	-2.058489	-38.126404	-75.160200	-155.363666			
41084	7.812078	0.610824	2.720986	0.656062	-2.092899	-1.813026	-38.983362	-75.394040	-154.336940			
41085	8.376670	0.572414	2.935006	0.790378	-2.181818	-1.226347	-39.907905	-75.617144	-153.257531			
41086	9.100367	0.448572	3.166070	0.927545	-2.212344	-0.469944	-40.793934	-75.812864	-152.229340			
41087	9.713831	0.208088	3.417042	1.132617	-2.122743	0.201749	-41.550061	-75.978213	-151.348922			
41088	10.139709	0.116868	3.337996	1.028215	-2.074769	0.608807	-42.116729	-76.124325	-150.673854			
41089	10.759025	-0.063928	3.108835	0.753490	-1.924239	1.194356	-42.512490	-76.258049	-150.210577			
41090	11.483663	-0.267645	3.177974	0.740865	-1.827336	1.941358	-42.672456	-76.369422	-150.026257			
41091	12.090891	-0.582448	2.936836	0.469990	-1.530872	2.540021	-42.621719	-76.463069	-150.113361			
41092	12.153244	-0.812054	2.765796	0.346138	-1.263798	2.608802	-42.363194	-76.493073	-150.482953			
41093	11.938904	-0.872408	2.534482	0.173065	-1.115347	2.371243	-42.096392	-76.482974	-150.936566			
41094	11.703614	-0.995282	2.222200	-0.064071	-0.889043	2.108253	-41.930441	-76.456569	-151.321632			
41095	11.853456	-0.300219	2.427513	-0.059919	-1.623092	2.181033	-41.841933	-76.417906	-151.594956			
41096	11.285141	0.161181	2.599976	0.109311	-2.047820	1.586205	-41.848141	-76.381245	-151.735777			
41097	11.420601	0.336001	3.319878	0.724875	-2.411523	1.815886	-41.953802	-76.400961	-151.726656			
41098	12.034319	-0.008439	3.975608	1.302501	-2.307078	2.581312	-41.855878	-76.456657	-151.878530			
41099	13.445362	-0.406027	3.893391	1.027777	-2.043299	4.002872	-41.539626	-76.548453	-152.271071			
41100	15.071029	-0.831440	2.840073	-0.212226	-1.520405	5.469212	-41.130823	-76.611502	-152.801360			
41101	15.993318	-1.722827	2.375990	-0.649626	-0.621622	6.422805	-40.890886	-76.600746	-153.216138			
41102	16.765761	-3.843574	3.439643	0.650858	1.070415	7.683749	-40.625598	-76.409189	-153.653048			
41103	15.795883	-5.855891	2.557760	0.385069	3.314030	6.896918	-40.007192	-75.937250	-154.401020			
41104	13.290255	-5.778009	0.673169	-1.011282	3.969943	4.104368	-39.202286	-75.315081	-155.321297			
41105	10.642881	-5.301670	1.839315	0.460863	3.467741	1.699175	-38.642407	-74.727985	-155.997530			
41106	8.690369	-5.361306	3.234595	2.168719	3.342038	0.129931	-38.497516	-74.298239	-156.155398			
41107	7.679633	-4.980262	3.334386	2.370369	3.041589	-0.866860	-38.589562	-74.058567	-155.951844			
41108	7.210071	-4.681056	3.372393	2.424897	2.789205	-1.350382	-38.654349	-73.944563	-155.732838			
41109	6.922366	-4.263640	3.421660	2.434029	2.409985	-1.684158	-38.661842	-73.923958	-155.572248			
41110	6.752227	-3.535102	3.112192	2.021913	1.815613	-2.041544	-38.772067	-74.002439	-155.350584			
41111	6.757812	-2.898867	2.556757	1.374180	1.346710	-2.269055	-39.308682	-74.190883	-154.745848			
41112	7.258491	-2.673916	1.636113	0.370309	1.294787	-2.021759	-40.440848	-74.456021	-153.523353			
41113	8.181696	-2.192298	0.627409	-0.856222	0.947146	-1.415706	-42.064208	-74.737281	-151.708898			
41114	9.145864	-2.265759	-0.654249	-2.219898	1.166531	-0.706692	-43.885994	-74.924548	-149.655063			
41115	9.916687	-2.230540	-1.093044	-2.772749	1.072456	-0.031486	-45.430491	-74.941285	-147.870202			
41116	10.223758	-2.332918	-0.967460	-2.683113	1.030834	0.318535	-46.485649	-74.780850	-146.712949			
41117	9.989563	-2.628662	-0.323365	-1.970417	1.138420	0.268335	-47.006850	-74.483481	-146.307757			
41118	9.516442	-3.084325	0.961541	-0.580275	1.291677	0.136932	-47.136613	-74.153811	-146.414537			
41119	8.940359	-3.378027	1.705023	0.283754	1.446483	-0.217104	-47.044314	-73.888312	-146.769398			
41120	8.627884	-3.525497	1.840988	0.492847	1.584925	-0.458339	-46.884168	-73.747688	-147.212716			
41121	8.271136	-3.828275	1.685290	0.489603	1.964150	-0.767800	-46.706818	-73.715902	-147.713903			
41122	7.565722	-4.148623	1.350872	0.420529	2.468165	-1.445646	-46.492786	-73.759249	-148.209109			
41123	7.018128	-4.102177	0.848151	0.081140	2.648990	-2.081091	-46.351389	-73.847396	-148.571486			
41124	6.523578	-4.128860	0.499281	-0.104021	2.849682	-2.620867	-46.399776	-73.972842	-148.694632			
41125	6.508353	-4.213203	0.312378	-0.231262	2.987149	-2.655124	-46.758731	-74.139002	-148.421913			
41126	6.795178	-4.326860	0.352472	-0.204714	3.040627	-2.347234	-47.352988	-74.319924	-147.812596			
41127	7.224496	-4.313829	0.499926	-0.137900	2.917505	-1.905636	-48.154731	-74.512183	-146.848499			
41128	7.885759	-4.256776	0.366331	-0.397476	2.788814	-1.297761	-49.087499	-74.701716	-145.617186			
41129	8.301832	-4.068167	0.099534	-0.759656	2.598483	-0.972381	-50.024199	-74.860700	-144.281670			
41130	8.908175	-3.678922	-0.079074	-1.127466	2.156971	-0.486781	-50.796152	-74.961090	-143.060011			
41131	8.920686	-2.908504	-0.173977	-1.378609	1.417769	-0.638941	-51.307112	-74.992766	-142.100357			
41132	8.794470	-2.291483	0.001852	-1.311004	0.781207	-0.853639	-51.665277	-74.988282	-141.313767			
41133	8.511683	-1.694415	0.238472	-1.145433	0.178892	-1.208467	-51.942660	-74.976231	-140.614635			
41134	8.629338	-1.519688	0.580873	-0.868011	-0.102619	-1.074933	-52.212603	-74.992904	-139.931864			
41135	8.545063	-1.279854	0.657746	-0.810329	-0.347096	-1.192268	-52.484427	-75.044777	-139.237524			
41136	8.626910	-1.132305	0.723010	-0.771078	-0.525261	-1.131793	-52.848671	-75.133862	-138.458560			
41137	9.040970	-1.120899	1.039737	-0.519644	-0.678927	-0.683309	-53.280001	-75.252159	-137.621146			
41138	9.833850	-1.035340	1.378551	-0.323427	-0.968955	0.118746	-53.687558	-75.369377	-136.843893			
41139	10.566770	-0.883101	1.666779	-0.172687	-1.299492	0.840767	-53.992575	-75.461096	-136.248938			
41140	10.798660	-0.660395	1.809514	-0.091451	-1.581402	1.041451	-54.058190	-75.488819	-135.981389			
41141	10.446976	-0.399445	2.063520	0.182345	-1.819198	0.685610	-53.944379	-75.459791	-135.952982			
41142	9.969527	-0.154840	1.706119	-0.120770	-1.906781	0.120886	-53.827022	-75.419004	-135.982917			
41143	9.411238	0.109627	1.360784	-0.402969	-2.003983	-0.525233	-53.704703	-75.358014	-136.071326			
41144	9.179938	0.163488	1.155351	-0.579873	-1.982883	-0.792448	-53.601338	-75.271010	-136.174776			
41145	8.927084	0.214021	1.137503	-0.571743	-1.992446	-1.052791	-53.562845	-75.160128	-136.230320			
41146	9.101186	0.093299	1.013732	-0.720269	-1.896849	-0.882341	-53.608251	-75.025319	-136.206389			
41147	9.065898	-0.021726	0.840971	-0.880617	-1.765556	-0.924185	-53.681164	-74.849825	-136.170208			
41148	9.007256	-0.167194	0.922130	-0.790140	-1.651943	-0.943888	-53.753339	-74.633523	-136.157686			
41149	8.936775	-0.285689	0.964117	-0.744058	-1.559458	-0.987076	-53.841222	-74.373422	-136.148636			
41150	8.856770	-0.493669	1.028850	-0.662827	-1.387524	-1.016103	-54.003233	-74.094697	-136.098174			
41151	9.093074	-0.899540	0.886340	-0.813657	-1.048853	-0.728831	-54.215354	-73.814449	-136.027680			
41152	8.831596	-1.257196	0.961242	-0.663015	-0.703502	-0.892657	-54.342584	-73.520700	-136.069637			
41153	8.903264	-1.704073	0.836000	-0.758497	-0.296724	-0.745860	-54.458580	-73.244164	-136.112959			
41154	9.158287	-2.070596	1.121093	-0.507946	-0.084393	-0.370592	-54.489388	-72.979069	-136.221418			
41155	9.197730	-2.134066	1.154507	-0.506543	-0.064895	-0.314034	-54.351750	-72.729469	-136.448323			
41156	9.485097	-2.062678	1.480923	-0.302087	-0.278762	-0.002197	-54.081139	-72.499345	-136.780661			
41157	9.616322	-1.698898	1.700920	-0.215813	-0.713032	0.071538	-53.747799	-72.297856	-137.136230			
41158	9.660925	-1.302261	1.664704	-0.359176	-1.103367	0.008416	-53.455814	-72.130698	-137.433828			
41159	9.810704	-0.942220	1.572970	-0.566258	-1.467827	0.043109	-53.291806	-71.999978	-137.612386			
41160	9.910005	-0.711199	1.340205	-0.867337	-1.670065	0.034583	-53.295756	-71.907144	-137.643088			
41161	9.822699	-0.643004	1.075519	-1.120088	-1.673050	-0.117229	-53.451926	-71.844726	-137.518166			
41162	9.798352	-0.692577	0.754122	-1.412499	-1.567313	-0.189569	-53.775319	-71.815482	-137.203575			
41163	9.658778	-1.071606	0.689457	-1.368292	-1.179943	-0.239227	-54.257143	-71.819373	-136.698854			
41164	9.767651	-1.518895	0.825454	-1.169082	-0.823418	0.003146	-54.756425	-71.854105	-136.101091			
41165	10.049438	-1.769970	1.161403	-0.845132	-0.729671	0.396433	-55.147585	-71.904702	-135.539400			
41166	10.606285	-1.874530	1.684812	-0.427282	-0.866043	1.046093	-55.349119	-71.955364	-135.133881			
41167	11.312694	-1.781566	2.317936	0.028361	-1.234376	1.806235	-55.338853	-72.009663	-134.951196			
41168	11.642500	-1.463255	2.466593	0.062885	-1.626380	2.066870	-55.211008	-72.098146	-134.957265			
41169	11.555825	-1.297057	2.253315	-0.137589	-1.703890	1.908006	-55.086638	-72.217445	-135.075350			
41170	11.669769	-1.564776	2.220902	-0.138416	-1.441159	2.081355	-55.029014	-72.380727	-135.233114			
41171	11.915860	-2.036511	1.912455	-0.392995	-0.953060	2.382790	-55.086470	-72.589897	-135.393655			
41172	11.905847	-2.679395	1.058900	-1.077237	-0.130300	2.388620	-55.222910	-72.845132	-135.619051			
41173	11.507327	-3.630776	0.396429	-1.425536	1.040267	2.130658	-55.424525	-73.130290	-135.937595			
41174	11.346821	-4.746013	0.131160	-1.386938	2.242884	2.201361	-55.627927	-73.425570	-136.382129			
41175	10.990656	-5.642749	0.043623	-1.149338	3.237588	2.054630	-55.784871	-73.718291	-136.923553			
41176	10.591026	-6.227628	0.196829	-0.715993	3.882080	1.823802	-55.840052	-73.993750	-137.572582			
41177	9.959899	-7.144030	0.244009	-0.261642	4.900634	1.421672	-55.779605	-74.243090	-138.272167			
41178	9.235896	-7.730421	0.606754	0.441368	5.529874	0.894995	-55.557021	-74.462392	-139.008839			
41179	8.684370	-8.667501	0.719263	0.939396	6.515780	0.566280	-55.207005	-74.653201	-139.707100			
41180	8.828496	-8.876982	1.388600	1.632030	6.543605	0.826338	-54.645618	-74.835018	-140.316085			
41181	8.137759	-8.485113	2.394045	2.626953	6.068344	0.198581	-53.625025	-75.008647	-141.067803			
41182	7.971764	-7.375139	3.113386	3.046931	4.929690	-0.114843	-52.267174	-75.227578	-141.893223			
41183	8.043074	-6.132671	3.294826	2.878182	3.790690	-0.299434	-50.633756	-75.487907	-142.853013			
41184	8.126985	-4.457651	3.228436	2.402064	2.302264	-0.578520	-48.961413	-75.795875	-143.785988			
41185	8.531961	-2.951159	3.243952	2.019982	0.899714	-0.478011	-47.487058	-76.154919	-144.544176			
41186	9.310706	-1.766369	3.064259	1.487387	-0.215726	0.033092	-46.456368	-76.552923	-144.932822			
41187	10.379082	-1.159016	2.685919	0.855992	-0.787842	0.907792	-45.957964	-76.978180	-144.897933			
41188	11.357748	-0.835101	2.610890	0.613572	-1.153569	1.797857	-45.953618	-77.373646	-144.490465			
41189	12.015035	-0.962817	2.274819	0.264588	-1.008402	2.409240	-46.303692	-77.700887	-143.844235			
41190	12.144653	-1.204047	2.013041	0.089634	-0.719555	2.535130	-46.726920	-77.926818	-143.189825			
41191	12.022336	-1.507953	1.522889	-0.280774	-0.310095	2.392010	-46.916575	-78.016126	-142.795931			
41192	11.856899	-1.554827	1.455855	-0.312621	-0.228988	2.227779	-46.536392	-77.931109	-143.024277			
41193	11.043794	-1.521015	1.988711	0.290775	-0.250159	1.504835	-45.478597	-77.661653	-144.022249			
41194	9.503927	-1.110973	2.415719	0.833406	-0.527392	0.006746	-44.034004	-77.282165	-145.530846			
41195	8.521717	-1.004113	2.821703	1.302719	-0.577524	-0.893124	-42.478235	-76.843401	-147.299332			
41196	7.452864	-0.994675	3.085525	1.676755	-0.502753	-1.876051	-40.977882	-76.401854	-149.101059			
41197	7.124127	-1.058407	3.207134	1.796615	-0.425477	-2.147842	-39.688910	-76.017314	-150.749556			
41198	6.823439	-1.081569	3.143378	1.741102	-0.357434	-2.433630	-38.605794	-75.703083	-152.210367			
41199	6.954389	-1.357143	2.911380	1.490447	-0.058509	-2.298932	-37.773672	-75.487305	-153.406378			
41200	7.222020	-1.351407	2.783115	1.274422	-0.064388	-2.060187	-37.106749	-75.357662	-154.360429			
41201	7.789871	-1.638439	2.869419	1.255532	0.143021	-1.445892	-36.438493	-75.265938	-155.235889			
41202	7.760035	-1.621928	2.504359	0.885619	0.222026	-1.549098	-35.661474	-75.139740	-156.133774			
41203	7.415008	-1.266792	1.901440	0.295636	0.058940	-2.059520	-34.868752	-74.975480	-157.046188			
41204	7.042568	-1.180264	1.520311	-0.024476	0.110350	-2.512737	-34.153138	-74.812857	-157.910710			
41205	6.827117	-1.134873	1.498331	-0.026930	0.105498	-2.732394	-33.547612	-74.676888	-158.652574			
41206	6.837431	-1.061852	1.510340	-0.050930	0.040728	-2.730679	-33.176965	-74.585498	-159.139346			
41207	6.701699	-1.001315	1.484197	-0.064542	0.005135	-2.876259	-33.064922	-74.537017	-159.354450			
41208	6.694285	-0.942491	1.700981	0.128825	-0.102691	-2.843618	-33.269260	-74.534483	-159.230579			
41209	6.656715	-0.644765	1.976273	0.345996	-0.460149	-2.862740	-33.758041	-74.569599	-158.788801			
41210	6.709754	-0.595926	2.444568	0.778611	-0.635551	-2.717504	-34.440665	-74.617689	-158.145925			
41211	6.844985	-0.539167	2.690617	0.983237	-0.780764	-2.545809	-35.266642	-74.677332	-157.320330			
41212	6.855282	-0.501141	3.033979	1.317833	-0.921811	-2.473441	-36.234537	-74.732206	-156.360043			
41213	7.067403	-0.554366	3.137227	1.396146	-0.944975	-2.245959	-37.309707	-74.780647	-155.285078			
41214	7.421439	-0.445325	2.786673	0.980277	-1.042003	-2.002775	-38.524244	-74.834038	-154.100315			
41215	8.016656	-0.590246	2.573466	0.694421	-0.958057	-1.455799	-39.793085	-74.905666	-152.876522			
41216	8.242332	-0.522549	1.770400	-0.100781	-0.900729	-1.414967	-41.064931	-75.034503	-151.618737			
41217	8.574024	-0.534093	1.357137	-0.522861	-0.866186	-1.174573	-42.328314	-75.226192	-150.340562			
41218	8.854520	-0.665515	1.596612	-0.278401	-0.856077	-0.835832	-43.468494	-75.443607	-149.123411			
41219	9.096130	-0.697050	1.931685	0.049537	-0.951744	-0.536462	-44.400438	-75.664773	-148.062210			
41220	9.246806	-0.558925	2.093681	0.197164	-1.150227	-0.387338	-45.114254	-75.891039	-147.203827			
41221	9.477378	-0.352412	2.172693	0.234551	-1.398352	-0.186947	-45.669079	-76.120454	-146.527803			
41222	9.930932	-0.216191	2.617462	0.590499	-1.683884	0.303484	-46.091611	-76.335760	-146.026177			
41223	10.772505	-0.164299	2.779629	0.615209	-1.873642	1.137702	-46.482951	-76.533160	-145.587117			
41224	11.626436	-0.184747	2.685278	0.403507	-1.938901	1.955770	-46.802340	-76.690485	-145.261854			
41225	12.754074	-0.297302	2.647195	0.207692	-1.965331	3.065850	-47.082072	-76.804045	-144.995921			
41226	13.532843	-0.115889	2.675226	0.074763	-2.246442	3.798191	-47.192811	-76.855063	-144.900067			
41227	13.652552	0.268326	3.062581	0.354462	-2.716339	3.910994	-47.086770	-76.840063	-145.011016			
41228	13.174741	0.421103	3.579475	0.899832	-2.912304	3.501685	-46.865366	-76.796835	-145.268240			
41229	12.866312	0.542996	3.745628	1.078335	-3.023586	3.208898	-46.675866	-76.765318	-145.511673			
41230	12.873309	0.629777	4.876960	2.128008	-3.355605	3.382572	-46.339442	-76.707257	-145.939531			
41231	12.965427	0.250857	4.906052	2.186208	-3.004432	3.545022	-45.999339	-76.671655	-146.456328			
41232	13.800872	-0.130835	3.315786	0.554828	-2.378380	4.169841	-45.884941	-76.690450	-146.834081			
41233	14.656113	-0.515762	2.259501	-0.554750	-1.870591	4.896702	-45.991195	-76.681181	-147.033829			
41234	14.621795	-1.472718	2.065069	-0.541190	-0.914293	4.989387	-46.420325	-76.612918	-146.865716			
41235	14.832239	-3.570733	2.242042	0.026398	0.991059	5.575262	-47.091121	-76.439597	-146.392613			
41236	15.368864	-5.928793	1.494965	-0.328356	3.302881	6.391314	-47.316015	-76.046688	-146.301630			
41237	14.385180	-7.221400	0.084170	-1.305705	4.952488	5.446902	-46.930762	-75.419934	-146.832746			
41238	12.417317	-7.407712	-0.103895	-1.169205	5.385949	3.555085	-46.419353	-74.725521	-147.469639			
41239	10.238204	-7.859020	0.790728	0.138284	5.843684	1.721659	-46.148586	-74.113038	-147.736399			
41240	7.884736	-7.727499	1.519055	1.239519	5.835928	-0.400175	-45.957547	-73.637167	-147.631738			
41241	6.312614	-6.624340	1.836371	1.592030	4.922506	-2.044996	-45.688173	-73.298355	-147.463773			
41242	4.994841	-5.900916	2.880273	2.688083	4.185301	-3.230713	-45.449299	-73.113093	-147.253237			
41243	4.771162	-5.007642	3.375343	3.001032	3.267281	-3.523650	-45.542809	-73.143850	-146.676380			
41244	5.077184	-3.401138	3.039690	2.300287	1.774688	-3.636575	-45.987910	-73.321157	-145.717260			
41245	5.622576	-2.116409	2.388206	1.340929	0.606681	-3.517466	-46.863742	-73.586313	-144.363501			
41246	6.272589	-1.561974	1.705936	0.485410	0.107278	-3.145753	-48.154505	-73.865243	-142.624875			
41247	7.442887	-1.380768	0.814139	-0.604269	-0.104912	-2.223921	-49.748278	-74.099593	-140.590682			
41248	9.021260	-1.589679	0.067886	-1.569865	-0.073144	-0.788023	-51.189370	-74.178387	-138.804151			
41249	9.895146	-2.300350	-0.107202	-1.779719	0.437526	0.180207	-52.103799	-74.060531	-137.707439			
41250	9.812046	-2.973414	0.476888	-1.103156	0.944519	0.347804	-52.473658	-73.797387	-137.343015			
41251	10.395060	-3.510191	1.182846	-0.483828	1.176474	1.149040	-52.723816	-73.546584	-137.193429			
41252	10.170383	-3.465020	1.201966	-0.444021	1.137243	0.929622	-52.935609	-73.374840	-137.145771			
41253	9.106333	-3.324827	1.402726	-0.050838	1.147038	-0.084938	-53.263375	-73.311757	-137.026736			
41254	8.510374	-3.252569	1.251017	-0.066381	1.210250	-0.696683	-53.759035	-73.383050	-136.703866			
41255	8.527173	-3.173291	0.803919	-0.481912	1.216904	-0.773023	-54.256205	-73.553501	-136.326110			
41256	8.069501	-3.114004	1.005815	-0.169765	1.217516	-1.192114	-54.488684	-73.754329	-136.121721			
41257	7.538496	-3.182151	1.163258	0.125877	1.370620	-1.663229	-54.559291	-73.960655	-136.000069			
41258	7.167398	-3.399600	1.029149	0.123566	1.694629	-1.995979	-54.600089	-74.137611	-135.871940			
41259	6.952377	-3.540572	0.897729	0.075166	1.910569	-2.195524	-54.716111	-74.287583	-135.611792			
41260	6.956304	-3.452499	0.917982	0.093953	1.829304	-2.210227	-55.053352	-74.433462	-135.074922			
41261	7.440858	-3.461813	0.859239	-0.034056	1.760800	-1.751224	-55.644038	-74.599362	-134.224629			
41262	8.223044	-3.092083	0.958866	-0.111480	1.236414	-1.062966	-56.320708	-74.758979	-133.242663			
41263	8.634209	-3.062601	0.923687	-0.198048	1.131934	-0.676947	-56.899924	-74.862219	-132.351825			
41264	9.167229	-2.820936	0.882548	-0.347598	0.794547	-0.219851	-57.365918	-74.898227	-131.576448			
41265	9.386505	-2.498714	0.753255	-0.545013	0.448021	-0.095710	-57.733106	-74.862685	-130.950477			
41266	9.166596	-2.217259	0.658707	-0.633858	0.215419	-0.382502	-58.026108	-74.781522	-130.411598			
41267	8.938579	-2.106367	0.449162	-0.813635	0.165311	-0.655868	-58.351379	-74.691837	-129.845705			
41268	8.620278	-1.924113	0.284367	-0.942433	0.056287	-1.026285	-58.673183	-74.607972	-129.247323			
41269	8.454251	-1.682947	0.336660	-0.888058	-0.172598	-1.233553	-59.022309	-74.545831	-128.588967			
41270	8.703981	-1.530226	0.691636	-0.589683	-0.444416	-0.979004	-59.449020	-74.509962	-127.826160			
41271	9.427968	-1.326550	1.213301	-0.204751	-0.883867	-0.257833	-59.765657	-74.483571	-127.142060			
41272	9.954577	-1.119799	1.703700	0.178924	-1.273386	0.266828	-59.816329	-74.427230	-126.776191			
41273	10.218555	-0.877302	2.076914	0.474274	-1.618252	0.514868	-59.481900	-74.329271	-126.798077			
41274	10.055159	-0.715694	2.194242	0.575173	-1.754162	0.337442	-58.777206	-74.185480	-127.282736			
41275	9.578383	-0.511088	2.250300	0.652819	-1.852228	-0.157978	-57.947845	-74.034309	-127.950436			
41276	9.258623	-0.590419	2.177999	0.600309	-1.693212	-0.453900	-57.156602	-73.891611	-128.686386			
41277	9.158363	-0.752896	1.892716	0.313094	-1.476036	-0.552664	-56.504105	-73.776793	-129.321854			
41278	9.141375	-0.872414	1.504747	-0.085403	-1.307863	-0.600074	-56.058120	-73.685074	-129.788264			
41279	9.118076	-0.795184	1.224496	-0.382885	-1.344808	-0.684933	-55.823317	-73.608015	-130.026942			
41280	9.256179	-0.696059	0.944063	-0.703623	-1.442893	-0.621629	-55.805194	-73.530648	-130.052660			
41281	9.076883	-0.404335	0.683418	-0.956817	-1.668203	-0.906401	-55.911480	-73.422528	-129.909429			
41282	8.919412	0.114670	0.710675	-0.948549	-2.159084	-1.180615	-56.095537	-73.279991	-129.677930			
41283	8.723267	0.410341	0.633234	-1.017435	-2.417402	-1.458905	-56.314475	-73.102347	-129.411074			
41284	8.678795	0.745422	0.698873	-0.979679	-2.767708	-1.581922	-56.541896	-72.890675	-129.164446			
41285	8.461876	0.708669	0.633418	-1.012488	-2.705601	-1.802615	-56.761507	-72.656606	-128.957628			
41286	8.655058	0.418982	1.074640	-0.609170	-2.555076	-1.485575	-56.982602	-72.419454	-128.764427			
41287	9.040392	-0.095286	1.271172	-0.467637	-2.206765	-0.965935	-57.126352	-72.171770	-128.643573			
41288	9.481846	-0.562061	1.454024	-0.361042	-1.917956	-0.403838	-57.125791	-71.917035	-128.661814			
41289	9.856054	-1.157066	1.497302	-0.379177	-1.471934	0.107592	-56.916424	-71.649551	-128.881702			
41290	10.039384	-1.643497	1.562969	-0.358591	-1.083156	0.416249	-56.519313	-71.378438	-129.283964			
41291	10.349223	-1.977179	1.435484	-0.573181	-0.843551	0.772012	-55.992524	-71.115215	-129.816377			
41292	10.706648	-2.080211	1.386324	-0.743570	-0.842736	1.124319	-55.453063	-70.872002	-130.353190			
41293	10.657171	-1.941638	1.318046	-0.859262	-0.967484	1.022809	-55.046760	-70.675534	-130.750449			
41294	10.412379	-1.726526	1.011157	-1.152745	-1.086641	0.671172	-54.922199	-70.545699	-130.848466			
41295	10.008160	-1.508846	1.360505	-0.748978	-1.250890	0.294990	-55.078957	-70.495782	-130.641091			
41296	9.843394	-1.339014	1.448996	-0.626324	-1.395068	0.109329	-55.438671	-70.528026	-130.182098			
41297	10.210814	-1.415954	2.431858	0.281478	-1.541930	0.662175	-55.747322	-70.592140	-129.752759			
41298	10.766551	-1.660617	3.352320	1.099165	-1.556302	1.424930	-55.863221	-70.675455	-129.538792			
41299	11.421312	-1.797178	3.464612	1.095327	-1.591833	2.101424	-55.841279	-70.787077	-129.606433			
41300	11.802045	-2.342122	3.099624	0.707148	-1.098467	2.543473	-55.733419	-70.946143	-129.921982			
41301	12.132870	-2.479175	2.411803	-0.003782	-0.931227	2.769134	-55.723547	-71.183247	-130.281725			
41302	12.294605	-2.865156	1.906354	-0.463206	-0.491837	2.936578	-55.884405	-71.485124	-130.570039			
41303	12.563227	-2.766816	1.058050	-1.292240	-0.486425	3.020948	-56.322977	-71.862623	-130.600418			
41304	12.761460	-3.136646	-0.085932	-2.327745	0.042390	3.120970	-56.970926	-72.280412	-130.475215			
41305	12.583761	-3.789345	-0.735807	-2.761965	0.872098	3.027150	-57.577439	-72.679198	-130.405968			
41306	11.950797	-5.295030	-1.344091	-2.972306	2.627292	2.714374	-57.796937	-73.005268	-130.706238			
41307	10.764531	-6.197321	-1.119025	-2.352180	3.790064	1.833609	-57.452962	-73.256672	-131.449647			
41308	9.279428	-6.705816	-0.482202	-1.349457	4.556572	0.614415	-56.585690	-73.434238	-132.695219			
41309	7.857223	-6.947302	0.237495	-0.327283	5.019521	-0.606478	-55.450396	-73.609379	-134.089052			
41310	7.841209	-6.965657	0.870414	0.295538	4.986127	-0.549140	-54.136288	-73.812879	-135.542747			
41311	9.156054	-7.157288	1.138132	0.310893	4.942497	0.762266	-52.500439	-74.058795	-137.190067			
41312	8.881654	-6.945023	1.809090	0.956213	4.762638	0.521318	-50.406759	-74.279254	-139.199949			
41313	8.849659	-6.485114	2.204941	1.232584	4.358158	0.420627	-48.123563	-74.478620	-141.252901			
41314	8.592971	-5.119557	2.655824	1.477024	3.104713	-0.051521	-45.918502	-74.670136	-143.112932			
41315	8.845391	-3.722999	3.207868	1.732828	1.713543	0.008327	-44.205459	-74.926534	-144.462488			
41316	9.621795	-2.489528	3.480033	1.672157	0.438947	0.574705	-43.217516	-75.275121	-145.122374			
41317	10.698916	-1.829301	3.159651	1.095432	-0.240860	1.436222	-43.019707	-75.684781	-145.075683			
41318	11.640509	-1.463596	2.446584	0.237086	-0.576088	2.155630	-43.370706	-76.079754	-144.557399			
41319	11.972896	-1.727721	1.837383	-0.312830	-0.246597	2.416462	-43.902292	-76.402868	-143.929850			
41320	11.857821	-2.276180	1.187319	-0.798063	0.417233	2.286381	-44.287797	-76.623171	-143.494770			
41321	11.475540	-2.640252	0.996489	-0.836462	0.866786	1.943201	-44.282880	-76.730184	-143.485452			
41322	10.705667	-2.606321	1.107171	-0.591171	0.937306	1.205569	-43.729723	-76.700045	-144.064500			
41323	9.936234	-2.582517	1.625427	0.024552	0.959919	0.537092	-42.742017	-76.566526	-145.131775			
41324	8.823386	-2.323555	1.985420	0.507389	0.819015	-0.524823	-41.474147	-76.338847	-146.543288			
41325	7.750709	-1.821427	2.375318	0.978802	0.423898	-1.572835	-40.047428	-76.053535	-148.186966			
41326	6.853234	-1.175745	2.812293	1.444035	-0.149559	-2.454003	-38.516322	-75.720610	-149.990392			
41327	6.487562	-0.598185	3.101884	1.665125	-0.707563	-2.827392	-37.102126	-75.389236	-151.753394			
41328	6.443098	-0.401675	3.319573	1.797026	-0.925488	-2.840726	-35.768125	-75.066709	-153.505030			
41329	6.628910	-0.232244	3.388267	1.735930	-1.119050	-2.656522	-34.522531	-74.783237	-155.190804			
41330	6.986772	-0.935639	2.973579	1.304465	-0.387695	-2.284047	-33.396189	-74.532719	-156.808715			
41331	7.224599	-1.201075	2.575147	0.862870	-0.064432	-2.097770	-32.365158	-74.335699	-158.278356			
41332	7.391819	-1.426744	2.140518	0.408383	0.242787	-2.000481	-31.452092	-74.166443	-159.618667			
41333	7.462772	-1.685402	1.883553	0.161586	0.561286	-1.955203	-30.602381	-74.013433	-160.835928			
41334	7.238776	-1.729164	1.670956	0.000294	0.690240	-2.216277	-29.796810	-73.859022	-161.949421			
41335	7.041444	-1.460516	1.563775	-0.121498	0.489654	-2.470628	-29.078400	-73.732590	-162.895695			
41336	6.846240	-1.259062	1.499825	-0.186030	0.341519	-2.702524	-28.533545	-73.636228	-163.646042			
41337	6.481895	-0.981717	1.505512	-0.147007	0.112273	-3.088769	-28.195933	-73.593976	-164.148967			
41338	6.399270	-0.880739	1.430835	-0.217234	0.043688	-3.200233	-28.141969	-73.618891	-164.383449			
41339	6.220310	-0.716353	1.593333	-0.041880	-0.139249	-3.353355	-28.339923	-73.700616	-164.373661			
41340	6.373597	-0.571465	1.876791	0.168811	-0.363369	-3.156030	-28.794693	-73.845171	-164.129547			
41341	6.601899	-0.529943	2.338707	0.558287	-0.541919	-2.832000	-29.468855	-74.057412	-163.659456			
41342	7.052185	-0.480043	2.657324	0.764152	-0.719019	-2.334450	-30.313228	-74.328707	-163.007729			
41343	7.740866	-0.332507	2.851137	0.782501	-0.985117	-1.653182	-31.278408	-74.629150	-162.227250			
41344	8.465112	-0.330462	2.767295	0.569546	-1.051141	-0.981170	-32.283418	-74.901199	-161.413509			
41345	9.081612	-0.372396	2.773490	0.477210	-1.091625	-0.384696	-33.235468	-75.092737	-160.658942			
41346	9.282138	-0.457513	2.488049	0.210777	-0.984896	-0.244865	-34.095514	-75.198488	-160.007517			
41347	9.319382	-0.423075	2.031692	-0.213905	-0.933554	-0.313199	-34.875801	-75.270734	-159.438514			
41348	9.493447	-0.527300	2.012947	-0.230279	-0.866857	-0.135342	-35.491069	-75.343448	-159.018614			
41349	9.514697	-0.585704	2.447657	0.205196	-0.939537	-0.017858	-35.804709	-75.422779	-158.852722			
41350	9.473116	-0.530157	2.914581	0.656583	-1.113147	0.028326	-35.794074	-75.520634	-158.961842			
41351	9.446150	-0.542084	2.948180	0.711850	-1.098001	0.010907	-35.583049	-75.648653	-159.278005			
41352	9.724314	-0.565336	2.848056	0.575028	-1.056701	0.264315	-35.313639	-75.797551	-159.669400			
41353	10.250652	-0.508363	2.558179	0.187321	-1.060903	0.709570	-35.143080	-75.958505	-159.968893			
41354	11.033201	-0.252549	2.286923	-0.284724	-1.285556	1.380682	-35.192765	-76.114791	-160.047101			
41355	11.570479	0.032862	2.117511	-0.608656	-1.554985	1.830870	-35.518600	-76.250317	-159.853492			
41356	11.696711	0.288304	2.081431	-0.707530	-1.810806	1.911170	-36.087192	-76.356283	-159.416876			
41357	11.476446	0.698830	1.985078	-0.827613	-2.179651	1.619801	-36.814745	-76.443948	-158.819590			
41358	11.304749	1.213059	2.040002	-0.845110	-2.697904	1.387199	-37.624743	-76.527101	-158.143735			
41359	11.175029	1.540980	3.011666	0.033080	-3.297915	1.387697	-38.306187	-76.580341	-157.612749			
41360	11.237949	1.263530	4.412506	1.418258	-3.455493	1.737477	-38.676392	-76.611726	-157.433010			
41361	12.150701	0.835088	4.716211	1.617700	-3.227556	2.739025	-38.733706	-76.642580	-157.658703			
41362	14.128237	0.414391	3.763321	0.398355	-2.722724	4.552877	-38.534993	-76.667639	-158.260284			
41363	15.711069	-0.231679	2.818356	-0.680934	-1.948193	6.016879	-38.192899	-76.598190	-159.117662			
41364	15.119268	-1.309366	2.097719	-0.963637	-0.649271	5.463335	-38.227391	-76.469233	-159.666689			
41365	14.873584	-3.908420	1.754140	-0.497514	1.913862	5.538720	-38.749571	-76.304404	-159.721491			
41366	15.357064	-7.707558	1.260482	0.045080	5.564746	6.492701	-39.069528	-75.926233	-159.828094			
41367	15.230806	-9.786979	-0.310306	-0.830232	7.996755	6.411362	-39.025406	-75.361056	-160.060351			
41368	13.583311	-9.077754	0.332340	-0.211402	7.213030	4.848397	-38.734543	-74.685331	-160.352913			
41369	11.098585	-7.937767	2.306800	1.717194	5.662627	2.696991	-38.586798	-74.046265	-160.413397			
41370	9.285387	-7.379141	2.976772	2.506864	5.050127	1.038212	-38.698974	-73.556572	-160.050609			
41371	7.938339	-6.039045	2.354779	1.804608	4.110747	-0.599823	-38.867230	-73.233464	-159.471545			
41372	6.533418	-4.825908	2.710253	2.101209	2.990952	-2.069342	-39.040298	-73.067404	-158.896779			
41373	5.852068	-3.287064	3.559279	2.610967	1.345155	-2.806022	-39.378910	-73.072767	-158.198622			
41374	5.696527	-2.055176	3.639253	2.394891	0.177310	-3.168039	-40.033594	-73.201883	-157.251890			
41375	5.962206	-0.808797	3.008914	1.434946	-0.842359	-3.294499	-41.156980	-73.438375	-155.877584			
41376	6.629922	-0.384361	1.534019	-0.171732	-0.895800	-3.058096	-42.744252	-73.706540	-154.138247			
41377	7.571403	-0.418349	0.414200	-1.387054	-0.681321	-2.377357	-44.508597	-73.921242	-152.261589			
41378	8.617518	-1.032343	-0.098400	-1.914011	-0.132354	-1.347716	-46.005842	-73.966081	-150.760870			
41379	9.531869	-2.080085	-0.408005	-2.127305	0.776582	-0.314211	-46.994402	-73.827836	-149.905758			
41380	10.812499	-2.859594	-0.162676	-2.008903	1.215071	1.123566	-47.484040	-73.585239	-149.671692			
41381	10.655594	-3.410601	0.242105	-1.474628	1.601200	1.164287	-47.532355	-73.291793	-149.990298			
41382	9.627013	-3.541598	0.872239	-0.630213	1.656496	0.328411	-47.423396	-73.040366	-150.537123			
41383	8.390959	-3.821291	0.987528	-0.143966	2.048305	-0.770045	-47.453571	-72.940760	-150.951649			
41384	7.795590	-3.772590	1.015707	0.035624	2.073574	-1.343078	-47.628131	-73.012805	-151.173528			
41385	7.391770	-3.864152	1.277306	0.439045	2.129870	-1.659638	-47.756567	-73.201099	-151.354593			
41386	6.905468	-3.737050	1.195278	0.486239	2.115727	-2.172866	-47.835417	-73.449385	-151.467162			
41387	6.329447	-3.678058	0.933202	0.407884	2.240563	-2.793124	-47.979689	-73.717358	-151.428919			
41388	6.365494	-3.988150	0.737691	0.350752	2.598168	-2.734875	-48.401550	-73.991447	-151.056224			
41389	6.523405	-3.925537	0.579630	0.187306	2.572467	-2.626045	-49.178134	-74.272821	-150.238707			
41390	7.328287	-3.869185	0.382032	-0.157479	2.467828	-1.894029	-50.345062	-74.552964	-148.936633			
41391	8.227812	-3.469154	0.453784	-0.370698	1.924552	-1.089370	-51.666442	-74.784178	-147.390189			
41392	8.883181	-3.250094	0.552909	-0.446165	1.562898	-0.477925	-52.916110	-74.920551	-145.870120			
41393	9.792118	-2.872507	0.599794	-0.680798	1.028243	0.335007	-53.810987	-74.946649	-144.696264			
41394	10.148376	-2.459586	0.477723	-0.983794	0.597086	0.576869	-54.229613	-74.847280	-144.053242			
41395	9.623428	-2.110515	0.481343	-0.983955	0.321727	-0.003275	-54.413714	-74.669061	-143.700939			
41396	9.254848	-1.819119	0.443286	-1.045343	0.092881	-0.428848	-54.564067	-74.487170	-143.397107			
41397	8.874790	-1.610234	0.354186	-1.123393	-0.036505	-0.856304	-54.713621	-74.346450	-143.084777			
41398	8.567481	-1.541635	0.572583	-0.881028	-0.139208	-1.134519	-54.898481	-74.272931	-142.690713			
41399	8.470963	-1.282198	0.884377	-0.637520	-0.478465	-1.236675	-55.198554	-74.271137	-142.135366			
41400	8.720721	-1.193423	1.255185	-0.351554	-0.731468	-0.958760	-55.700390	-74.323378	-141.389215			
41401	9.515615	-1.088726	1.555042	-0.237755	-1.069684	-0.171652	-56.349655	-74.404454	-140.528858			
41402	10.326388	-1.112061	1.877301	-0.063202	-1.300952	0.661025	-57.021353	-74.466414	-139.731616			
41403	11.015726	-1.036187	2.174856	0.084068	-1.599437	1.349058	-57.552202	-74.482439	-139.153515			
41404	11.087912	-0.867349	1.963593	-0.163134	-1.725294	1.347354	-57.815602	-74.426244	-138.910913			
41405	10.369474	-0.449038	1.519393	-0.554597	-1.873266	0.493594	-57.889365	-74.314505	-138.919665			
41406	9.593600	-0.583534	1.167048	-0.710768	-1.517858	-0.276936	-57.901263	-74.173473	-139.020572			
41407	9.214945	-0.646981	1.112039	-0.687037	-1.388570	-0.638254	-57.935867	-74.031712	-139.086862			
41408	9.035752	-0.934757	0.922212	-0.769148	-1.044705	-0.774655	-58.013604	-73.886201	-139.122440			
41409	9.126717	-1.246891	0.704442	-0.924925	-0.720100	-0.648962	-58.155328	-73.736121	-139.080221			
41410	9.188007	-1.537763	0.438358	-1.125173	-0.397797	-0.563253	-58.300569	-73.566362	-139.014950			
41411	9.158919	-1.529834	0.290518	-1.277678	-0.376266	-0.618316	-58.436079	-73.378708	-138.915524			
41412	9.031549	-1.320017	0.054275	-1.549504	-0.497849	-0.831297	-58.503840	-73.169833	-138.839126			
41413	8.726405	-0.785722	0.222019	-1.495111	-1.012702	-1.236222	-58.468231	-72.933471	-138.850335			
41414	8.535076	-0.518808	0.393499	-1.393452	-1.300306	-1.467696	-58.362711	-72.668135	-138.927196			
41415	8.483414	-0.292329	0.589506	-1.289491	-1.584683	-1.552714	-58.272094	-72.406591	-138.965271			
41416	8.651710	-0.314002	0.780806	-1.171672	-1.681579	-1.365221	-58.212178	-72.149324	-138.932128			
41417	8.803953	-0.269821	1.453307	-0.615957	-1.986682	-1.131208	-58.121967	-71.897595	-138.881159			
41418	8.847807	-0.508015	1.288861	-0.744254	-1.748641	-1.061050	-58.115013	-71.645342	-138.761797			
41419	8.917660	-0.939543	1.125164	-0.829303	-1.339739	-0.913776	-58.111918	-71.383343	-138.630143			
41420	8.987168	-1.485902	1.219433	-0.649285	-0.903338	-0.689839	-57.997079	-71.112689	-138.599436			
41421	9.119171	-2.020819	1.526387	-0.297280	-0.550523	-0.369107	-57.712875	-70.844867	-138.741650			
41422	9.394876	-2.319064	1.950148	0.062898	-0.476896	0.046992	-57.361818	-70.604782	-138.983967			
41423	9.684983	-2.482075	1.896896	-0.058480	-0.383279	0.356255	-57.092555	-70.423799	-139.156645			
41424	9.925234	-2.497169	1.515098	-0.500594	-0.315840	0.516458	-56.953672	-70.309189	-139.190021			
41425	10.090225	-2.519998	1.108778	-0.931131	-0.217696	0.602590	-56.955084	-70.258493	-139.046968			
41426	10.233365	-2.276308	0.720464	-1.387708	-0.371756	0.596848	-57.149446	-70.264908	-138.630636			
41427	10.397238	-2.090380	0.425001	-1.733375	-0.512225	0.646080	-57.499894	-70.307935	-137.953107			
41428	10.498262	-2.022701	0.709916	-1.479102	-0.701739	0.776387	-57.887526	-70.372578	-137.106940			
41429	10.961602	-1.849405	1.235844	-1.101688	-1.134330	1.259971	-58.170629	-70.458070	-136.224933			
41430	11.936179	-1.582962	1.890035	-0.740372	-1.788923	2.220678	-58.125722	-70.546315	-135.610164			
41431	12.543677	-1.042421	1.974814	-0.889754	-2.441770	2.660338	-57.696575	-70.641237	-135.455194			
41432	12.367604	-0.637914	2.197302	-0.704892	-2.799701	2.428935	-57.051304	-70.757251	-135.723816			
41433	12.062683	-0.598494	2.706452	-0.152000	-2.837866	2.233661	-56.397833	-70.939252	-136.197773			
41434	12.430902	-1.116691	2.881234	0.032609	-2.413252	2.767084	-55.935185	-71.191311	-136.710069			
41435	12.756805	-2.717153	2.463685	-0.120341	-0.811384	3.435540	-55.688384	-71.480667	-137.260138			
41436	12.931178	-3.918227	0.618560	-1.647224	0.799849	3.588686	-55.562202	-71.766569	-137.893277			
41437	12.102467	-4.485660	-0.390655	-2.247171	1.832030	2.770503	-55.435551	-72.007137	-138.727189			
41438	11.067030	-5.601027	-0.223389	-1.540558	3.112701	2.096870	-55.417309	-72.231105	-139.587888			
41439	10.438859	-6.654777	-0.247700	-1.086672	4.279720	1.755346	-55.566035	-72.443646	-140.253101			
41440	9.957056	-7.700601	-0.876678	-1.215962	5.567021	1.445185	-55.711235	-72.604099	-140.789729			
41441	9.710740	-8.377240	-0.757864	-0.796078	6.235455	1.391597	-55.577113	-72.676192	-141.436525			
41442	8.333259	-9.471413	-0.198796	0.379334	7.359402	0.428680	-54.975288	-72.633453	-142.396449			
41443	6.937717	-10.398179	0.741939	1.834531	8.205304	-0.533043	-53.990180	-72.572750	-143.393661			
41444	6.740588	-9.370943	1.615590	2.368195	7.056468	-0.842895	-52.729927	-72.612995	-144.217350			
41445	6.601997	-8.100974	2.477637	2.791920	5.709642	-1.155063	-51.130291	-72.714638	-145.149081			
41446	6.092184	-6.070324	3.469063	3.258413	3.700200	-1.958539	-49.503893	-72.934665	-145.910472			
41447	6.219856	-4.109293	3.410557	2.663490	1.957080	-2.310734	-48.084353	-73.304787	-146.370060			
41448	7.123211	-2.333994	3.130756	1.790060	0.308302	-1.895053	-46.951531	-73.805382	-146.504574			
41449	8.483167	-1.076767	2.767943	0.916048	-0.915624	-0.918507	-46.172183	-74.377197	-146.343079			
41450	9.718173	0.085552	2.384476	0.133281	-2.048068	-0.018696	-45.809228	-74.957969	-145.871152			
41451	10.891705	0.565909	2.085532	-0.383138	-2.558352	0.985720	-45.931989	-75.500060	-145.084184			
41452	11.854221	0.013066	1.758767	-0.689530	-2.056466	1.973343	-46.385648	-75.936893	-144.149282			
41453	12.307330	-0.945705	1.928738	-0.368419	-1.199773	2.617482	-46.749987	-76.232498	-143.414652			
41454	12.083048	-1.535631	2.156927	0.035391	-0.619193	2.541496	-46.689996	-76.343117	-143.161847			
41455	11.570507	-1.712112	2.038012	0.044048	-0.338658	2.055117	-46.228037	-76.291193	-143.418212			
41456	10.698382	-1.344173	2.135468	0.213561	-0.579640	1.161856	-45.378042	-76.113744	-144.189436			
41457	10.102527	-1.017971	2.586754	0.658136	-0.883214	0.607244	-44.267188	-75.836857	-145.347913			
41458	9.139487	-0.574112	2.963430	1.071698	-1.241151	-0.328378	-42.950777	-75.461365	-146.841459			
41459	8.183907	-0.310205	3.203090	1.376277	-1.406273	-1.241811	-41.588225	-75.036204	-148.462932			
41460	7.437205	-0.145752	3.291483	1.513960	-1.481256	-1.959005	-40.320690	-74.606480	-150.056781			
41461	7.075763	-0.298282	3.334907	1.585686	-1.295120	-2.257238	-39.241733	-74.229713	-151.520469			
41462	7.038138	-0.726446	3.252341	1.523683	-0.860901	-2.224683	-38.413840	-73.944807	-152.773003			
41463	7.138085	-1.368018	3.001113	1.323698	-0.200642	-2.064278	-37.733112	-73.733651	-153.873357			
41464	7.243073	-1.863346	2.454573	0.833763	0.386585	-1.995116	-37.130524	-73.579604	-154.854023			
41465	7.310812	-2.246731	1.898883	0.337661	0.881879	-1.989021	-36.527529	-73.463757	-155.766791			
41466	7.114238	-2.635075	1.558321	0.122379	1.370958	-2.191019	-35.920258	-73.349619	-156.622227			
41467	7.017390	-2.627515	1.251331	-0.159218	1.460055	-2.359079	-35.374368	-73.258873	-157.320872			
41468	6.816057	-2.371110	1.279812	-0.142424	1.242372	-2.590852	-34.878857	-73.201241	-157.880298			
41469	6.503861	-1.939355	1.630813	0.177043	0.790948	-2.879875	-34.446768	-73.188225	-158.281487			
41470	6.371413	-1.295655	2.000559	0.430577	0.109278	-3.024572	-34.150528	-73.230446	-158.495014			
41471	6.685730	-0.891859	2.799337	1.026065	-0.488444	-2.598862	-34.031023	-73.333513	-158.523000			
41472	7.022603	-0.903033	2.914267	1.062013	-0.530539	-2.248562	-34.062972	-73.479882	-158.400019			
41473	7.276484	-0.803381	3.172755	1.242320	-0.706249	-1.963050	-34.234500	-73.654204	-158.135646			
41474	7.445041	-0.623937	3.229230	1.243744	-0.907720	-1.820507	-34.513127	-73.824401	-157.773609			
41475	7.664317	-0.388451	3.028100	0.981984	-1.115951	-1.697744	-34.987447	-74.012332	-157.239978			
41476	7.878867	-0.119302	2.835624	0.728507	-1.365083	-1.582423	-35.627230	-74.203852	-156.553578			
41477	8.095280	-0.169288	2.698733	0.591659	-1.324018	-1.401853	-36.423180	-74.383916	-155.731848			
41478	8.234783	0.001338	2.271981	0.158923	-1.429936	-1.392272	-37.377738	-74.567120	-154.772528			
41479	8.512962	0.033345	2.108414	-0.026349	-1.479819	-1.168252	-38.429779	-74.763502	-153.729991			
41480	8.794266	0.050008	2.324689	0.157330	-1.600716	-0.859559	-39.450629	-74.968409	-152.698718			
41481	9.029281	-0.043735	2.659341	0.488573	-1.631815	-0.555248	-40.320155	-75.170236	-151.791556			
41482	9.201037	-0.267327	2.939237	0.806053	-1.510288	-0.302756	-40.983194	-75.373114	-151.079230			
41483	9.485787	-0.401876	3.088711	0.957061	-1.450239	0.019019	-41.452304	-75.605293	-150.579563			
41484	9.938063	-0.391273	3.092128	0.905665	-1.510891	0.452606	-41.782027	-75.847102	-150.256601			
41485	10.412950	-0.381467	3.226956	0.973843	-1.599299	0.933569	-42.051642	-76.054837	-150.055638			
41486	10.785191	-0.354249	3.130572	0.834218	-1.645862	1.270698	-42.435975	-76.220024	-149.790374			
41487	11.588783	-0.486395	2.567245	0.187148	-1.497381	1.970773	-43.079605	-76.331843	-149.310180			
41488	12.141940	-0.399314	1.892641	-0.562591	-1.520657	2.374979	-43.938901	-76.356839	-148.662714			
41489	12.005817	0.010625	1.135684	-1.326185	-1.763114	2.043199	-44.916040	-76.317496	-147.905069			
41490	11.561959	0.675952	1.092843	-1.404979	-2.379481	1.487493	-45.863608	-76.254667	-147.133814			
41491	11.153045	1.330572	2.157625	-0.434022	-3.243418	1.146691	-46.515875	-76.200701	-146.566464			
41492	10.948614	1.734290	3.719178	1.019041	-3.994467	1.128884	-46.672548	-76.193338	-146.462961			
41493	11.389722	1.757837	4.743758	1.906265	-4.315531	1.722533	-46.422973	-76.270505	-146.809054			
41494	12.573718	1.344509	4.588172	1.604644	-4.012438	2.926338	-45.946846	-76.397833	-147.537315			
41495	14.605394	0.894133	3.007448	-0.222665	-3.414902	4.728648	-45.469952	-76.524901	-148.416789			
41496	14.977035	0.169101	2.172559	-0.950453	-2.517299	5.080932	-45.111237	-76.565353	-149.296893			
41497	14.866267	-1.628154	2.325521	-0.383543	-0.803416	5.295994	-45.108352	-76.551593	-149.833303			
41498	16.266665	-4.751044	2.520059	0.241671	1.957733	7.206012	-44.877595	-76.323241	-150.544591			
41499	17.222004	-7.113509	1.488115	-0.445952	4.369382	8.356561	-43.861752	-75.788444	-151.972106			
41500	15.711762	-8.219166	0.072537	-1.334624	5.987134	6.824316	-42.713843	-75.062212	-153.592177			
41501	13.262369	-8.495894	0.845503	-0.126055	6.278904	4.656013	-42.125038	-74.347492	-154.567502			
41502	11.044726	-8.095945	1.985743	1.255477	5.762302	2.704973	-42.225107	-73.750756	-154.634653			
41503	9.268570	-6.669486	1.286924	0.593308	4.779545	0.620332	-42.689688	-73.348494	-154.072346			
41504	7.425800	-5.381931	1.666629	1.028971	3.638950	-1.293042	-43.020552	-73.069194	-153.575532			
41505	5.755488	-4.379706	3.404403	2.788507	2.370369	-2.706145	-43.146191	-72.902201	-153.308688			
41506	4.811955	-2.816697	4.072675	3.244970	0.816333	-3.772891	-43.275865	-72.875930	-153.054314			
41507	4.463526	-1.544049	3.831752	2.796039	-0.268340	-4.418282	-43.674250	-73.012481	-152.592278			
41508	4.938946	-0.569980	3.314938	1.970099	-1.105091	-4.280577	-44.494171	-73.288335	-151.779158			
41509	5.709383	-0.304048	2.477326	0.964403	-1.226071	-3.780014	-45.635369	-73.586015	-150.734278			
41510	6.642399	-0.428988	1.585035	-0.026626	-0.992612	-3.042778	-46.856308	-73.785981	-149.656357			
41511	8.249300	-1.236017	0.913669	-0.799207	-0.283520	-1.464380	-47.860269	-73.845301	-148.804786			
41512	10.424543	-2.408735	0.084997	-1.772920	0.728207	0.713790	-48.397162	-73.718413	-148.479676			
41513	11.868699	-3.120217	-0.157658	-2.187184	1.234796	2.200547	-48.317595	-73.360836	-148.927657			
41514	11.167689	-3.662437	-0.903273	-2.628619	2.063642	1.491202	-48.064281	-72.848296	-149.795997			
41515	9.752874	-3.962973	-0.902618	-2.237042	2.540366	0.196333	-48.209303	-72.361913	-150.451746			
41516	7.939447	-4.095472	-0.474677	-1.341031	2.767402	-1.411731	-48.797364	-72.035214	-150.619503			
41517	7.546671	-3.963595	0.419427	-0.439466	2.360592	-1.622905	-49.659097	-71.925911	-150.362025			
41518	7.228190	-4.034860	1.176273	0.389487	2.171412	-1.747729	-50.382677	-71.948273	-150.073091			
41519	6.633792	-4.112727	1.686244	1.069022	2.126864	-2.190438	-50.875118	-72.044646	-149.815254			
41520	6.175457	-4.161775	1.307080	0.890378	2.371281	-2.688834	-51.316261	-72.180303	-149.496288			
41521	6.203240	-4.575744	0.954320	0.725874	2.867803	-2.630971	-51.918809	-72.338781	-148.989895			
41522	6.471708	-5.131132	0.812395	0.742241	3.374116	-2.267106	-52.716406	-72.519532	-148.235151			
41523	7.468928	-5.121892	0.852677	0.560294	3.176416	-1.307277	-53.659418	-72.718025	-147.223261			
41524	8.377626	-4.178040	1.090109	0.283136	2.059423	-0.619896	-54.602061	-72.899579	-146.096167			
41525	9.475241	-3.520008	1.188860	-0.071267	1.222269	0.291021	-55.270535	-73.019138	-145.196295			
41526	10.051644	-3.131028	0.967754	-0.514998	0.835892	0.714015	-55.578838	-73.061784	-144.644306			
41527	9.659914	-2.693589	0.536354	-0.951804	0.643600	0.164129	-55.735437	-73.022569	-144.327078			
41528	9.109182	-2.685858	0.039564	-1.285275	0.892022	-0.445462	-55.937047	-72.939953	-144.027118			
41529	8.494768	-2.373696	-0.205478	-1.468058	0.779064	-1.148071	-56.215571	-72.853287	-143.644648			
41530	8.021921	-2.148801	0.001911	-1.237951	0.560991	-1.619928	-56.531637	-72.781874	-143.177442			
41531	7.904687	-1.802507	0.431377	-0.919411	0.093232	-1.746390	-56.871355	-72.749416	-142.604823			
41532	8.388696	-1.604808	0.917596	-0.633611	-0.363030	-1.253814	-57.338747	-72.773631	-141.856436			
41533	9.060190	-1.528515	1.369408	-0.371456	-0.729410	-0.559117	-57.936340	-72.830141	-140.965521			
41534	9.955769	-1.540483	1.635654	-0.296543	-0.995904	0.340436	-58.561692	-72.865819	-140.081226			
41535	10.565617	-1.519122	1.632932	-0.417080	-1.154583	0.915749	-59.105501	-72.847508	-139.341513			
41536	10.749877	-1.475859	1.501711	-0.582511	-1.214159	1.058356	-59.436424	-72.742374	-138.897644			
41537	10.202966	-1.291161	1.375126	-0.639286	-1.263321	0.466118	-59.560240	-72.574104	-138.702765			
41538	9.661491	-0.977499	1.348127	-0.651330	-1.461756	-0.140237	-59.591356	-72.378947	-138.634325			
41539	9.339205	-0.845513	1.138233	-0.833413	-1.472780	-0.519277	-59.617568	-72.185158	-138.591170			
41540	9.117911	-0.814942	0.917177	-1.019403	-1.404517	-0.777770	-59.618743	-71.997723	-138.585717			
41541	8.982854	-0.694776	0.804586	-1.146944	-1.469501	-0.961317	-59.641441	-71.829607	-138.557685			
41542	8.933981	-0.641085	0.579032	-1.377385	-1.453309	-1.063234	-59.723078	-71.673760	-138.468656			
41543	8.902142	-0.415585	0.657378	-1.372734	-1.699718	-1.147845	-59.862114	-71.529943	-138.297968			
41544	8.729568	-0.370879	0.529804	-1.473565	-1.682992	-1.349845	-60.016045	-71.385704	-138.119316			
41545	8.564075	-0.271542	0.842758	-1.181032	-1.861593	-1.490011	-60.125158	-71.238871	-137.973605			
41546	8.453626	-0.519167	1.093062	-0.864804	-1.710611	-1.490789	-60.213687	-71.093412	-137.861133			
41547	8.622444	-0.795922	1.132680	-0.804598	-1.523285	-1.251427	-60.279669	-70.950542	-137.763908			
41548	9.037426	-1.213291	1.137635	-0.799837	-1.250176	-0.744136	-60.342230	-70.801627	-137.714230			
41549	9.080678	-1.729002	1.088519	-0.733605	-0.787354	-0.567426	-60.303739	-70.629882	-137.792169			
41550	9.421025	-2.137695	1.262713	-0.568384	-0.562058	-0.102856	-60.205875	-70.444202	-137.964665			
41551	9.326155	-2.436153	1.388103	-0.377101	-0.322392	-0.086815	-59.974125	-70.252100	-138.283592			
41552	9.448122	-2.570613	1.483141	-0.315641	-0.268180	0.081913	-59.727492	-70.080420	-138.607151			
41553	9.485756	-2.384514	1.403135	-0.479497	-0.426035	0.047474	-59.499278	-69.956217	-138.885275			
41554	9.520985	-2.193350	1.256510	-0.696999	-0.562593	-0.002671	-59.376376	-69.883854	-139.027906			
41555	9.607623	-1.884216	1.185071	-0.879704	-0.842969	-0.026136	-59.356323	-69.861507	-139.015812			
41556	9.712859	-1.805407	0.882241	-1.207160	-0.839393	-0.003730	-59.446403	-69.884316	-138.893630			
41557	9.803975	-2.097782	0.704959	-1.304726	-0.534412	0.138577	-59.562102	-69.940464	-138.715585			
41558	10.246213	-2.288894	1.003345	-1.077780	-0.556360	0.663928	-59.574286	-70.013736	-138.595325			
41559	10.918634	-2.566121	1.848080	-0.383776	-0.722106	1.525222	-59.367018	-70.087239	-138.662163			
41560	11.699630	-2.797256	2.615477	0.189673	-0.911400	2.462490	-58.931137	-70.168928	-138.993177			
41561	12.191181	-3.083273	2.801967	0.307767	-0.775493	3.043678	-58.362856	-70.301230	-139.556424			
41562	12.829383	-3.544100	2.623913	0.106335	-0.375328	3.747774	-57.854850	-70.519833	-140.191096			
41563	13.688686	-4.129175	1.982508	-0.525238	0.261024	4.610071	-57.426670	-70.812105	-140.882798			
41564	14.048279	-4.945586	0.221298	-1.974104	1.605932	4.863310	-57.097731	-71.139991	-141.577877			
41565	13.235660	-4.858006	-1.200089	-3.043338	2.256512	3.820668	-56.848424	-71.491960	-142.189652			
41566	12.551496	-4.609336	-1.156367	-2.827639	2.223751	3.117187	-56.884886	-71.868619	-142.536303			
41567	12.183937	-5.140779	-0.894160	-2.247869	2.747645	2.957281	-57.167195	-72.247644	-142.556761			
41568	11.230741	-6.158878	-1.095569	-1.805936	3.966313	2.281443	-57.543038	-72.580182	-142.310336			
41569	10.056572	-6.554254	-0.999941	-1.260000	4.536354	1.274535	-57.619799	-72.836703	-142.176503			
41570	8.243417	-6.973819	0.167093	0.389295	4.866430	-0.180336	-57.282822	-73.020658	-142.384062			
41571	7.083393	-7.055588	1.649065	2.046350	4.668279	-1.055143	-56.713076	-73.210431	-142.675264			
41572	5.776566	-6.772247	2.724360	3.239037	4.315511	-2.227252	-56.010223	-73.421368	-143.018939			
41573	6.765078	-6.066520	2.931656	2.979651	3.491914	-1.440642	-55.218329	-73.747930	-143.271650			
41574	7.303490	-5.279000	3.162986	2.833724	2.683940	-1.096102	-54.002957	-74.108555	-143.923103			
41575	7.173615	-4.335973	3.319195	2.730095	1.877370	-1.428205	-52.380148	-74.455863	-144.982746			
41576	7.159208	-3.045624	2.980881	2.054509	0.874787	-1.785937	-50.701273	-74.796817	-146.151880			
41577	7.859016	-2.181385	2.812570	1.518432	0.099561	-1.320518	-49.271034	-75.156353	-147.139586			
41578	9.022936	-1.380422	2.997768	1.257691	-0.792550	-0.320848	-48.271950	-75.535422	-147.709674			
41579	10.691731	-0.936641	2.850866	0.702139	-1.325335	1.190391	-47.887102	-75.921332	-147.707850			
41580	12.171158	-0.915954	2.378402	0.013255	-1.360092	2.547827	-48.074410	-76.258253	-147.226388			
41581	13.046590	-1.669258	1.769438	-0.485886	-0.570618	3.437552	-48.607095	-76.487903	-146.500962			
41582	12.949771	-2.325857	1.289358	-0.719130	0.195413	3.386299	-48.980761	-76.569760	-145.971743			
41583	12.377750	-2.934800	1.239648	-0.506791	0.861110	2.929373	-48.739079	-76.507617	-146.062376			
41584	11.449392	-2.950813	1.675174	0.049378	0.889573	2.095627	-47.790816	-76.298937	-146.897264			
41585	10.127192	-2.404506	2.195608	0.606778	0.419529	0.799458	-46.409309	-76.000778	-148.261087			
41586	8.569265	-2.044264	2.493553	1.046747	0.215082	-0.719468	-44.879049	-75.643536	-149.893534			
41587	7.251151	-1.412726	2.838231	1.436337	-0.298891	-2.035941	-43.460337	-75.318606	-151.467316			
41588	6.410946	-0.785368	3.000233	1.570172	-0.826711	-2.915637	-42.208565	-75.039363	-152.921724			
41589	6.256826	-0.341162	3.411581	1.839544	-1.333277	-3.049448	-41.099676	-74.835643	-154.259205			
41590	6.345686	-0.044377	3.416651	1.711581	-1.615786	-3.000728	-40.091364	-74.700778	-155.508131			
41591	6.942104	-0.181763	3.352435	1.510548	-1.516680	-2.404415	-39.197504	-74.635385	-156.655942			
41592	7.826261	-0.717222	3.224139	1.286496	-1.044475	-1.481195	-38.418698	-74.611426	-157.696177			
41593	8.638728	-1.100683	2.929404	0.890314	-0.654219	-0.691296	-37.656721	-74.582429	-158.706864			
41594	9.101303	-1.291731	2.270756	0.187786	-0.299959	-0.350486	-36.879575	-74.494601	-159.748683			
41595	8.834950	-1.481751	1.696536	-0.261604	0.099428	-0.699418	-36.134307	-74.314370	-160.817308			
41596	8.546867	-1.693405	1.287575	-0.548566	0.469562	-1.034713	-35.458733	-74.084808	-161.833173			
41597	8.168920	-1.610344	1.344348	-0.459903	0.422960	-1.401910	-34.843930	-73.839687	-162.741321			
41598	7.870231	-1.449045	1.579287	-0.247780	0.234850	-1.662980	-34.320223	-73.598652	-163.492281			
41599	7.485490	-1.205994	1.766775	-0.074706	-0.014616	-2.027921	-33.951977	-73.389492	-164.030787			
41600	7.168083	-1.252270	1.803071	0.033620	0.044652	-2.316188	-33.845387	-73.241624	-164.271527			
41601	6.861163	-0.881178	2.136144	0.304727	-0.392201	-2.589914	-33.966465	-73.191252	-164.205466			
41602	6.959481	-1.245075	2.112882	0.363727	-0.057753	-2.442938	-34.324514	-73.245983	-163.878133			
41603	6.946275	-1.163998	2.391413	0.614948	-0.234999	-2.403838	-34.847714	-73.370324	-163.316481			
41604	7.058730	-1.169789	2.491279	0.701473	-0.286022	-2.274346	-35.509086	-73.523840	-162.587737			
41605	6.968107	-0.908982	2.493345	0.681123	-0.542881	-2.407366	-36.281552	-73.685711	-161.748370			
41606	7.089477	-0.594482	2.379825	0.486149	-0.835356	-2.373376	-37.206658	-73.869110	-160.763707			
41607	7.373640	-0.293513	2.360622	0.346726	-1.164270	-2.160675	-38.288947	-74.086847	-159.619992			
41608	7.840975	0.093128	2.366422	0.169651	-1.604040	-1.782278	-39.496376	-74.338583	-158.329552			
41609	8.523469	0.284130	2.524531	0.147902	-1.932075	-1.132346	-40.711653	-74.606541	-156.997408			
41610	9.074637	0.303833	2.541405	0.084357	-2.041024	-0.607969	-41.794508	-74.854164	-155.792507			
41611	9.514057	0.286476	2.358330	-0.126920	-2.036435	-0.221150	-42.663452	-75.087388	-154.794242			
41612	9.812622	0.093146	2.450799	-0.003522	-1.928814	0.116164	-43.265934	-75.295559	-154.071023			
41613	10.084569	-0.073877	2.734295	0.290338	-1.891291	0.459554	-43.581142	-75.488209	-153.650556			
41614	10.518896	-0.159097	3.048881	0.547491	-1.946853	0.951981	-43.610426	-75.663937	-153.528519			
41615	10.666326	-0.277700	3.194185	0.709370	-1.877724	1.142737	-43.392724	-75.788310	-153.687294			
41616	10.765834	-0.384570	2.955072	0.504586	-1.697730	1.216665	-43.175514	-75.846626	-153.924084			
41617	10.857477	-0.387962	2.356885	-0.073786	-1.514867	1.200485	-43.139046	-75.845305	-154.056513			
41618	11.020418	-0.387593	1.713574	-0.717452	-1.340810	1.242793	-43.322607	-75.793300	-154.010477			
41619	11.039307	-0.229104	1.495302	-0.977148	-1.440141	1.193032	-43.672908	-75.727553	-153.765446			
41620	10.834201	0.140879	1.646811	-0.900274	-1.833736	0.954792	-44.032555	-75.656741	-153.459813			
41621	10.459832	0.765639	2.363282	-0.328145	-2.622310	0.608214	-44.313321	-75.607896	-153.195036			
41622	10.435984	1.193294	3.796034	0.894307	-3.479847	0.762494	-44.472386	-75.607139	-153.056627			
41623	11.224072	0.872231	5.549818	2.446765	-3.811635	1.893115	-44.308811	-75.639640	-153.302655			
41624	12.998447	0.311497	5.473764	2.135133	-3.445811	3.699763	-43.985337	-75.705447	-153.849861			
41625	15.336844	0.027547	3.345370	-0.295107	-2.739663	5.641054	-43.696074	-75.759658	-154.466702			
41626	15.281565	0.187125	1.681958	-1.882622	-2.334690	5.266941	-43.905630	-75.797900	-154.638092			
41627	14.295672	-1.212223	1.905759	-1.022724	-1.008671	4.588841	-44.864554	-75.849877	-154.069691			
41628	14.504340	-4.590134	3.103665	1.084174	1.678492	5.584870	-45.600394	-75.697054	-153.643846			
41629	14.711252	-7.007196	2.163231	0.868715	4.174511	6.062424	-45.506111	-75.272019	-153.985299			
41630	14.620120	-7.649811	0.636289	-0.424902	5.266155	5.832058	-45.047858	-74.708015	-154.737062			
41631	12.962246	-8.432598	0.936110	0.371450	6.038063	4.449405	-44.668883	-74.109935	-155.356025			
41632	10.694441	-7.965610	2.285280	1.915093	5.342126	2.468908	-44.718825	-73.619262	-155.310597			
41633	9.079562	-7.107717	2.008394	1.722046	4.794330	0.724869	-45.071465	-73.286230	-154.697385			
41634	7.730132	-5.831041	1.963012	1.574528	3.765571	-0.815438	-45.373791	-73.075792	-154.031883			
41635	6.268957	-4.630230	3.245438	2.729460	2.387269	-2.188866	-45.499356	-72.975694	-153.567261			
41636	5.071748	-2.982864	3.822195	3.071358	0.822930	-3.558184	-45.743956	-73.046027	-153.006151			
41637	4.678732	-1.414142	3.930733	2.833273	-0.612337	-4.250452	-46.442159	-73.313075	-152.012425			
41638	5.399049	-0.349788	3.370227	1.876241	-1.514520	-3.912175	-47.789771	-73.745688	-150.384185			
41639	6.722590	0.158481	2.423693	0.609441	-1.877243	-2.942720	-49.660297	-74.205222	-148.283581			
41640	8.254636	-0.311098	1.249823	-0.615022	-1.311565	-1.584772	-51.671293	-74.555959	-146.090647			
41641	9.585383	-0.983867	-0.132885	-1.932785	-0.486529	-0.384418	-53.344145	-74.719628	-144.252656			
41642	10.206086	-1.944262	-0.928301	-2.502813	0.518110	0.300343	-54.288869	-74.628594	-143.295302			
41643	11.152225	-2.998754	-0.836020	-2.336197	1.285449	1.454662	-54.443880	-74.329387	-143.327612			
41644	11.288993	-3.788731	-0.391318	-1.784832	1.833200	1.823558	-53.967525	-73.886226	-144.197499			
41645	10.223052	-3.924249	-0.171191	-1.371492	2.046099	0.858392	-53.398804	-73.424461	-145.349137			
41646	8.636171	-3.884354	0.094750	-0.811126	2.164297	-0.629091	-53.187626	-73.055558	-146.259393			
41647	7.680395	-3.955065	0.345268	-0.337032	2.280054	-1.479744	-53.423933	-72.870631	-146.655141			
41648	7.307098	-3.946465	0.567096	-0.028502	2.236244	-1.794695	-53.785547	-72.844794	-146.792499			
41649	6.977806	-4.137673	0.866288	0.413733	2.345364	-2.009573	-54.051693	-72.920544	-146.867368			
41650	6.515543	-4.197914	0.731335	0.451236	2.522948	-2.461449	-54.231265	-73.054235	-146.888362			
41651	6.304680	-4.431093	0.793362	0.662737	2.749056	-2.600447	-54.408830	-73.202179	-146.864667			
41652	6.182990	-4.939757	0.719059	0.821417	3.262483	-2.613450	-54.698270	-73.362550	-146.685312			
41653	6.515946	-5.303630	0.671908	0.851687	3.560254	-2.220808	-55.211756	-73.573821	-146.178079			
41654	7.595135	-5.116789	0.720823	0.615129	3.200010	-1.223822	-55.915430	-73.817388	-145.335654			
41655	8.724109	-4.081827	1.276711	0.556591	1.865494	-0.293686	-56.635893	-74.053240	-144.346690			
41656	9.865043	-3.410908	0.989527	-0.144884	1.172650	0.605389	-57.191704	-74.237942	-143.495745			
41657	10.032709	-2.715291	1.029172	-0.348497	0.490783	0.614436	-57.375710	-74.300119	-143.049199			
41658	9.633559	-2.599020	0.740689	-0.561001	0.548200	0.161967	-57.453831	-74.276419	-142.771735			
41659	9.165699	-2.247462	0.217364	-1.059807	0.478062	-0.444837	-57.601229	-74.211368	-142.462708			
41660	9.143329	-1.914255	-0.242882	-1.589355	0.320543	-0.609699	-57.915210	-74.142308	-142.020124			
41661	9.092516	-1.577866	-0.112951	-1.564125	-0.048421	-0.717227	-58.268024	-74.078991	-141.518236			
41662	9.256614	-1.293482	0.187035	-1.406482	-0.466349	-0.582452	-58.655462	-74.036413	-140.942016			
41663	9.467605	-1.013893	0.616632	-1.130659	-0.931792	-0.384162	-59.057288	-74.010489	-140.336862			
41664	9.695646	-1.089351	1.142516	-0.655441	-1.103528	-0.073583	-59.464613	-73.992668	-139.774531			
41665	9.963278	-1.074793	1.423727	-0.443518	-1.277667	0.218261	-59.789033	-73.969841	-139.356269			
41666	10.227713	-1.170415	1.591756	-0.308297	-1.307494	0.517127	-59.972372	-73.936252	-139.171914			
41667	10.200882	-1.159804	1.466651	-0.427254	-1.277566	0.470283	-59.922037	-73.873978	-139.293996			
41668	9.763938	-1.238030	1.135937	-0.635377	-1.015676	0.022058	-59.691947	-73.785905	-139.656949			
41669	9.523750	-1.092063	1.034595	-0.743628	-1.071584	-0.259494	-59.467448	-73.697416	-140.003343			
41670	9.182428	-0.899212	0.955606	-0.823808	-1.161146	-0.646893	-59.265734	-73.590535	-140.337316			
41671	9.120595	-0.839974	0.930500	-0.871939	-1.199211	-0.726532	-59.163817	-73.485129	-140.559577			
41672	9.098199	-0.812006	0.927318	-0.896527	-1.227306	-0.758052	-59.147015	-73.365990	-140.680317			
41673	8.920938	-0.602763	0.780164	-1.074681	-1.346517	-1.004337	-59.206019	-73.239082	-140.705277			
41674	8.731046	-0.478803	0.722911	-1.139454	-1.419260	-1.229546	-59.298597	-73.097593	-140.691411			
41675	8.536125	-0.553569	0.614269	-1.188161	-1.291524	-1.418082	-59.385147	-72.947425	-140.659306			
41676	8.423340	-0.451321	0.627463	-1.197964	-1.384857	-1.554536	-59.472147	-72.796571	-140.603007			
41677	8.359478	-0.474935	0.493747	-1.314912	-1.319090	-1.634596	-59.512903	-72.639982	-140.572055			
41678	8.347993	-0.817778	0.503528	-1.213963	-1.022301	-1.560873	-59.518892	-72.467508	-140.602733			
41679	8.492541	-1.060259	0.721092	-0.993303	-0.921204	-1.331412	-59.436967	-72.279939	-140.706504			
41680	8.859389	-1.266875	0.860453	-0.914769	-0.867645	-0.910754	-59.277371	-72.066198	-140.925358			
41681	9.150694	-1.358273	1.227188	-0.653576	-0.986220	-0.556005	-59.021737	-71.838173	-141.257699			
41682	9.289596	-1.223165	1.618809	-0.410717	-1.290161	-0.400998	-58.718333	-71.601657	-141.666824			
41683	9.256408	-1.109317	1.869019	-0.251078	-1.489029	-0.425222	-58.425359	-71.378968	-142.075260			
41684	9.206915	-0.993069	1.797505	-0.379474	-1.568838	-0.518651	-58.207255	-71.179052	-142.408886			
41685	9.104287	-1.021467	1.632746	-0.527690	-1.472279	-0.639294	-58.080935	-71.003596	-142.663592			
41686	8.964874	-1.234259	1.530412	-0.543242	-1.224819	-0.733085	-58.061621	-70.860586	-142.832020			
41687	9.000955	-1.573306	1.340309	-0.633883	-0.865477	-0.640009	-58.180660	-70.766628	-142.885132			
41688	9.049712	-2.130066	1.070065	-0.716906	-0.282887	-0.486085	-58.471341	-70.729621	-142.761206			
41689	9.201775	-2.788836	0.972062	-0.620978	0.303860	-0.173332	-58.920043	-70.754962	-142.429528			
41690	9.371370	-2.940878	1.175454	-0.406805	0.313991	0.066020	-59.433743	-70.840903	-141.882330			
41691	9.886344	-3.161836	1.461677	-0.176898	0.290043	0.663858	-59.840895	-70.964073	-141.320580			
41692	10.422435	-3.249376	2.105543	0.330433	0.018919	1.300786	-59.981894	-71.098168	-140.919771			
41693	11.036722	-3.182701	2.465770	0.506511	-0.281640	1.921146	-59.856650	-71.248236	-140.725124			
41694	11.665792	-2.671863	2.475233	0.220819	-0.842046	2.377404	-59.619090	-71.447615	-140.643865			
41695	12.237846	-2.513631	2.206113	-0.183674	-0.958523	2.836318	-59.370610	-71.712167	-140.649110			
41696	12.943301	-2.795181	2.139353	-0.284256	-0.764425	3.575862	-59.183325	-72.037321	-140.675597			
41697	13.424225	-3.152302	1.563385	-0.761317	-0.268948	4.041497	-59.118202	-72.399344	-140.684919			
41698	13.286848	-3.522648	0.116627	-1.876410	0.663247	3.788835	-59.304147	-72.793371	-140.567254			
41699	12.837848	-4.180923	-0.812288	-2.337653	1.728341	3.397064	-59.731757	-73.204360	-140.347155			
41700	12.676215	-5.193347	-1.213716	-2.246484	2.872441	3.447460	-60.362561	-73.631781	-140.016132			
41701	12.517196	-6.429819	-1.400157	-1.869819	4.142100	3.578680	-60.939647	-74.047456	-139.730063			
41702	12.057104	-7.133273	-1.523170	-1.548491	4.954658	3.288076	-61.297522	-74.416005	-139.608813			
41703	11.166482	-7.544511	-1.338100	-0.976017	5.461108	2.541405	-61.326146	-74.718909	-139.767223			
41704	10.148820	-8.092788	-0.674476	0.075034	5.932645	1.752107	-60.953906	-74.940919	-140.245605			
41705	8.856044	-8.429909	-0.279532	0.818750	6.355392	0.604094	-60.023136	-75.074137	-141.068691			
41706	7.559789	-8.329365	0.482922	1.705838	6.246875	-0.602483	-58.595589	-75.138299	-142.131901			
41707	5.881861	-7.163183	1.475177	2.502560	5.148383	-2.375356	-56.781382	-75.198622	-143.345148			
41708	5.431471	-6.352180	2.684055	3.376926	4.127938	-2.840571	-54.820662	-75.347178	-144.559277			
41709	5.311675	-4.764758	3.137175	3.271906	2.623585	-3.242388	-52.756588	-75.617018	-145.748496			
41710	5.736242	-3.518583	3.284703	2.921243	1.463634	-3.074944	-50.725037	-75.977378	-146.939645			
41711	6.434214	-2.671237	3.282683	2.531066	0.686313	-2.571674	-48.886340	-76.397303	-147.942747			
41712	7.527772	-2.010619	3.074250	1.955688	0.091953	-1.668557	-47.515025	-76.861296	-148.489255			
41713	9.156492	-1.479995	2.854489	1.341306	-0.451348	-0.211849	-46.784574	-77.356858	-148.445009			
41714	10.826659	-1.126236	2.564501	0.741406	-0.830380	1.314822	-46.737991	-77.834031	-147.811784			
41715	12.567399	-1.385575	1.771968	-0.174580	-0.528268	2.942268	-47.236344	-78.230749	-146.756263			
41716	13.312489	-1.883366	1.031663	-0.824010	0.066385	3.646514	-47.718486	-78.448219	-145.807692			
41717	13.381091	-2.217470	0.845469	-0.913543	0.426053	3.739785	-47.661300	-78.466539	-145.434838			
41718	12.478190	-2.357048	1.130070	-0.489922	0.598462	2.912858	-46.820517	-78.292873	-145.902866			
41719	11.312613	-2.250325	1.542431	0.008279	0.544371	1.811476	-45.387049	-77.977468	-147.030238			
41720	10.088092	-1.950257	2.059649	0.566060	0.293935	0.647121	-43.643589	-77.573726	-148.564685			
41721	9.058350	-1.678439	2.514729	1.042068	0.065158	-0.320387	-41.864948	-77.131165	-150.269798			
41722	7.691633	-1.281955	2.848582	1.461582	-0.225022	-1.643746	-40.238674	-76.691278	-151.900569			
41723	7.075882	-1.020601	2.974878	1.586009	-0.425912	-2.245491	-38.909849	-76.335009	-153.281621			
41724	6.649663	-0.891783	3.048683	1.669125	-0.510422	-2.653004	-37.872101	-76.076776	-154.379401			
41725	7.018597	-0.766302	3.007708	1.490035	-0.650117	-2.312601	-37.133471	-75.939353	-155.181186			
41726	7.698532	-1.069343	3.112712	1.479138	-0.438021	-1.583464	-36.630644	-75.887403	-155.731678			
41727	8.530821	-1.098385	2.985402	1.166506	-0.452176	-0.794441	-36.207235	-75.870427	-156.150639			
41728	8.563525	-1.318255	2.208968	0.451591	-0.057185	-0.882733	-35.870211	-75.831720	-156.499927			
41729	8.480699	-1.450793	1.835646	0.127635	0.170728	-1.017735	-35.571644	-75.760046	-156.819706			
41730	8.381371	-1.791369	1.718667	0.090515	0.540899	-1.088617	-35.334654	-75.665173	-157.082433			
41731	8.227948	-2.022757	1.772883	0.205708	0.770587	-1.193079	-35.078626	-75.559949	-157.327300			
41732	7.944192	-2.091286	1.996625	0.478862	0.816963	-1.411890	-34.809512	-75.450682	-157.529961			
41733	7.740631	-1.706122	2.134070	0.563851	0.436821	-1.635052	-34.546785	-75.368379	-157.654364			
41734	7.587018	-1.491228	2.257177	0.663633	0.220896	-1.788210	-34.386119	-75.329680	-157.654714			
41735	7.673525	-1.141583	2.502808	0.808591	-0.176343	-1.703105	-34.401443	-75.353284	-157.452718			
41736	7.685395	-0.786898	2.569172	0.811676	-0.535361	-1.729390	-34.642948	-75.428479	-157.018062			
41737	7.785977	-0.380414	2.626915	0.789418	-0.956294	-1.680708	-35.152171	-75.554934	-156.305472			
41738	8.147943	-0.064068	2.410091	0.473868	-1.265558	-1.423689	-35.919422	-75.708327	-155.334563			
41739	8.683716	0.035217	2.793819	0.740155	-1.513372	-0.847459	-36.795228	-75.827032	-154.296098			
41740	8.732920	-0.162193	2.901316	0.896206	-1.371265	-0.755967	-37.655525	-75.853222	-153.307701			
41741	8.340013	0.150137	2.125160	0.204107	-1.505186	-1.339949	-38.701166	-75.861627	-152.191038			
41742	8.155316	0.001597	1.556654	-0.253020	-1.261512	-1.610447	-40.023850	-75.895783	-150.896970			
41743	8.319163	-0.216302	1.493528	-0.279223	-1.095166	-1.433649	-41.496013	-75.978409	-149.446013			
41744	8.522678	-0.271233	1.827465	0.048927	-1.171904	-1.171321	-42.931735	-76.087664	-147.988618			
41745	8.548072	-0.273054	2.102008	0.349981	-1.260997	-1.103512	-44.182079	-76.192085	-146.679090			
41746	8.473580	-0.010839	2.471259	0.714620	-1.606463	-1.162992	-45.307308	-76.289068	-145.498628			
41747	8.483759	0.166992	2.684977	0.925134	-1.846448	-1.155566	-46.399982	-76.382571	-144.384664			
41748	8.496371	0.424976	2.670233	0.901494	-2.119570	-1.199116	-47.606848	-76.488453	-143.196252			
41749	8.698792	0.585883	2.580741	0.790124	-2.312143	-1.054723	-48.961419	-76.611498	-141.921992			
41750	9.006481	0.522783	2.498678	0.709036	-2.307417	-0.768008	-50.425036	-76.740144	-140.606703			
41751	9.421266	0.191388	2.296998	0.543566	-2.037146	-0.345513	-51.937781	-76.866671	-139.336560			
41752	9.969402	-0.094777	2.031993	0.288548	-1.819467	0.193960	-53.400313	-76.970710	-138.158424			
41753	10.215715	-0.105780	1.508169	-0.218390	-1.766926	0.359662	-54.726943	-77.036281	-137.163153			
41754	10.565493	-0.409578	1.076523	-0.602016	-1.462027	0.697128	-55.918955	-77.089504	-136.322948			
41755	10.577416	-0.434647	0.912110	-0.730498	-1.425794	0.691407	-56.849893	-77.118722	-135.733059			
41756	10.565749	-0.224840	0.903882	-0.760496	-1.639880	0.638868	-57.535812	-77.147616	-135.353185			
41757	10.596536	0.185373	1.374741	-0.386919	-2.156452	0.647277	-57.883943	-77.174404	-135.279921			
41758	10.391442	0.859897	1.897497	0.005582	-2.895673	0.382263	-57.962133	-77.222746	-135.450481			
41759	10.261493	1.406512	2.389824	0.377761	-3.510696	0.213282	-57.950180	-77.318800	-135.717776			
41760	10.494739	1.294964	3.346072	1.282490	-3.663198	0.577157	-57.901486	-77.455853	-136.071878			
41761	11.097590	0.999559	4.022951	1.904314	-3.627948	1.302677	-57.826693	-77.631635	-136.503180			
41762	12.331598	0.596309	3.972835	1.754664	-3.397170	2.580362	-57.649548	-77.788528	-137.122066			
41763	13.671798	0.286216	2.789209	0.481318	-2.967083	3.816120	-57.661363	-77.917393	-137.660418			
41764	15.421173	-0.586387	2.009359	-0.320888	-2.160267	5.595889	-57.872805	-77.977811	-138.081367			
41765	16.070191	-1.940567	1.469467	-0.594917	-0.817224	6.409346	-58.004802	-77.895357	-138.604655			
41766	16.041188	-3.785558	0.411551	-1.131160	1.222189	6.589933	-57.758739	-77.626555	-139.523162			
41767	16.003443	-5.807495	0.236784	-0.806853	3.159153	6.898408	-56.632604	-77.133791	-141.270902			
41768	14.833575	-6.459951	-0.778637	-1.508182	4.236824	5.748316	-54.961652	-76.480251	-143.526146			
41769	13.067543	-7.236799	-1.061765	-1.355780	5.292191	4.130493	-53.352452	-75.774213	-145.716042			
41770	11.913004	-8.004298	0.577788	0.506969	5.599717	3.404992	-51.964527	-75.111460	-147.521592			
41771	10.731895	-8.004117	1.122732	1.149454	5.558153	2.364531	-50.796927	-74.556026	-148.915370			
