// General information: 
//  MT Manager version: 2022.0.0 
//  XDA version: 2022.0.0 build 7085 rev 119802 built on 2022-11-08
// Device information: 
//  DeviceId: 00B4938A
//  ProductCode: MTW2-3A7G6
//  Firmware Version: 4.6.0
//  Hardware Version: 2.0.0
// Device settings: 
//  Filter Profile: human(46.1)
//  Option Flags: Orientation Smoother Disabled, Position/Velocity Smoother Disabled, Continuous Zero Rotation Update Disabled, AHS Disabled, ICC Disabled
// Coordinate system: ENU
PacketCounter	Acc_X	Acc_Y	Acc_Z	FreeAcc_E	FreeAcc_N	FreeAcc_U	Roll	Pitch	Yaw	Vel_E	Vel_N	Vel_U
40738	9.557562	-0.370597	3.600123	0.055910	0.065983	0.406791	-6.886791	-69.561830	-82.637285			
40739	9.517342	-0.396512	3.641999	0.028874	0.107317	0.384803	-6.874658	-69.491842	-82.646109			
40740	9.413630	-0.514268	3.670533	-0.092307	0.155376	0.302698	-6.868218	-69.413494	-82.658047			
40741	9.270634	-0.588082	3.634219	-0.171283	0.155724	0.159496	-6.854343	-69.330827	-82.669621			
40742	9.192528	-0.551170	3.687459	-0.137311	0.220044	0.103785	-6.831673	-69.255863	-82.681442			
40743	9.122179	-0.626018	3.560551	-0.214913	0.111770	-0.003259	-6.812016	-69.183971	-82.689256			
40744	9.071276	-0.704105	3.528302	-0.294585	0.086938	-0.058796	-6.803766	-69.120795	-82.698790			
40745	8.979710	-0.807879	3.501917	-0.401275	0.082625	-0.149177	-6.805838	-69.063973	-82.708440			
40746	9.034255	-0.948462	3.518495	-0.536826	0.069102	-0.086219	-6.849649	-69.026307	-82.682330			
40747	9.069259	-0.961335	3.541174	-0.543687	0.071565	-0.044637	-6.923153	-68.987316	-82.628900			
40748	9.058928	-1.035200	3.595858	-0.611894	0.119226	-0.031206	-7.017162	-68.943237	-82.563387			
40749	9.009887	-1.154160	3.607335	-0.726390	0.138458	-0.067115	-7.105110	-68.894810	-82.495134			
40750	8.996696	-1.211319	3.539417	-0.778582	0.071968	-0.100637	-7.169365	-68.850523	-82.431904			
40751	8.952399	-1.239663	3.552979	-0.805079	0.092697	-0.135439	-7.201194	-68.806626	-82.389738			
40752	8.986739	-1.303670	3.549316	-0.865610	0.070450	-0.101640	-7.204561	-68.783854	-82.358237			
40753	9.054297	-1.339469	3.488799	-0.898108	-0.014702	-0.058746	-7.190483	-68.770719	-82.325381			
40754	9.170816	-1.312407	3.594791	-0.866424	0.039688	0.086633	-7.161573	-68.755292	-82.296153			
40755	9.235839	-1.274375	3.612412	-0.825866	0.028642	0.151820	-7.156192	-68.728698	-82.244953			
40756	9.201658	-1.212284	3.650522	-0.764869	0.071982	0.130966	-7.164276	-68.695535	-82.181407			
40757	9.185705	-1.211589	3.584280	-0.762858	0.009503	0.092369	-7.194477	-68.663284	-82.093955			
40758	9.139203	-1.276938	3.447368	-0.827149	-0.108646	0.002808	-7.231649	-68.630942	-81.992954			
40759	9.060478	-1.280067	3.343835	-0.830850	-0.184092	-0.107645	-7.255615	-68.589345	-81.890026			
40760	8.942479	-1.234352	3.348720	-0.789088	-0.143250	-0.217777	-7.266857	-68.552093	-81.785509			
40761	8.929829	-1.106721	3.409192	-0.660817	-0.085694	-0.213456	-7.284768	-68.525906	-81.662630			
40762	8.913024	-1.067399	3.465933	-0.620641	-0.029120	-0.210189	-7.326824	-68.518774	-81.523194			
40763	8.951843	-1.005393	3.585218	-0.554757	0.068217	-0.133447	-7.380647	-68.516722	-81.380923			
40764	8.998560	-0.896091	3.577962	-0.439266	0.048732	-0.097569	-7.456878	-68.528409	-81.227911			
40765	8.937339	-0.815646	3.514277	-0.355915	0.016123	-0.181253	-7.574668	-68.538752	-81.048241			
40766	9.020780	-0.738994	3.447667	-0.266656	-0.070289	-0.131213	-7.702898	-68.555494	-80.864792			
40767	8.943754	-0.707457	3.459839	-0.232088	-0.027147	-0.199826	-7.836490	-68.563921	-80.690756			
40768	8.880286	-0.642635	3.494529	-0.164262	0.034083	-0.249422	-7.962749	-68.584745	-80.525059			
40769	8.800198	-0.840347	3.527186	-0.360342	0.090904	-0.302030	-8.076012	-68.610378	-80.382508			
40770	8.672565	-0.985349	3.619294	-0.509967	0.222498	-0.380084	-8.137360	-68.637805	-80.285432			
40771	8.567294	-0.959241	3.585042	-0.487981	0.234722	-0.491852	-8.174955	-68.678588	-80.198838			
40772	8.520639	-0.929103	3.563784	-0.459904	0.239580	-0.544669	-8.204172	-68.721490	-80.128663			
40773	8.339140	-0.930146	3.642168	-0.473443	0.384264	-0.685804	-8.230258	-68.767075	-80.052961			
40774	8.260127	-0.849241	3.750130	-0.400132	0.525649	-0.725446	-8.263428	-68.839069	-79.951300			
40775	8.192372	-0.776442	3.728674	-0.331260	0.544997	-0.800803	-8.333758	-68.927547	-79.812858			
40776	8.390267	-0.594211	3.777936	-0.136507	0.545191	-0.609069	-8.442119	-69.040445	-79.624455			
40777	8.663928	-0.473777	3.734757	0.005419	0.431929	-0.376062	-8.580069	-69.142630	-79.398214			
40778	9.017647	-0.482890	3.723760	0.024339	0.315864	-0.049638	-8.729838	-69.242206	-79.146916			
40779	9.478244	-0.452681	3.638974	0.091508	0.097821	0.349309	-8.849636	-69.362284	-78.898204			
40780	9.925406	-0.420800	3.476538	0.159853	-0.181985	0.709591	-8.935337	-69.509239	-78.663890			
40781	10.571282	-0.531249	3.318234	0.098518	-0.529869	1.266770	-8.974326	-69.654938	-78.459991			
40782	10.815960	-0.338875	2.774314	0.323369	-1.092100	1.300340	-8.936119	-69.723176	-78.310549			
40783	10.487536	0.120352	2.312871	0.773481	-1.382158	0.810101	-8.842748	-69.702994	-78.213615			
40784	10.180351	0.600184	2.030237	1.240688	-1.519259	0.398786	-8.730209	-69.639616	-78.139597			
40785	9.595607	1.207342	1.731524	1.817977	-1.570949	-0.285957	-8.669656	-69.560011	-78.074615			
40786	9.613902	1.533517	1.630008	2.151732	-1.656362	-0.322575	-8.697352	-69.538793	-78.010529			
40787	10.168356	1.731689	1.809465	2.383281	-1.661969	0.248436	-8.741548	-69.583882	-77.997630			
40788	10.701864	1.507066	2.215395	2.177778	-1.468773	0.902213	-8.752436	-69.667124	-78.089092			
40789	10.534167	1.114622	2.219550	1.765858	-1.424035	0.769907	-8.644352	-69.733742	-78.306762			
40790	10.415058	0.577309	2.316465	1.203214	-1.319446	0.722209	-8.456584	-69.797237	-78.626865			
40791	10.379535	-0.059718	2.246784	0.548117	-1.405132	0.699756	-8.162986	-69.856517	-79.024230			
40792	10.420361	-0.075818	2.305016	0.506609	-1.357654	0.760998	-7.778701	-69.934045	-79.466501			
40793	10.698995	-0.106556	2.211844	0.466369	-1.532800	0.994950	-7.340762	-70.006733	-79.960372			
40794	10.319094	0.122173	2.314072	0.636217	-1.295204	0.664486	-6.870596	-70.008036	-80.506108			
40795	9.956426	0.021206	2.421687	0.481031	-1.083690	0.365210	-6.431855	-69.999545	-81.068227			
40796	9.848358	-0.044171	2.475996	0.379631	-1.007003	0.285056	-5.986021	-69.979222	-81.610209			
40797	9.612543	-0.031133	2.435832	0.354871	-0.976032	0.049187	-5.532881	-69.916899	-82.123584			
40798	9.272488	-0.083556	2.423461	0.262551	-0.892109	-0.273593	-5.113300	-69.812666	-82.569837			
40799	9.030089	-0.024671	2.393632	0.291926	-0.856828	-0.514669	-4.772881	-69.680296	-82.925571			
40800	8.836884	0.041385	2.504327	0.332431	-0.707499	-0.661034	-4.546084	-69.537997	-83.187598			
40801	8.756762	0.033464	2.541177	0.312594	-0.668528	-0.724514	-4.435304	-69.408494	-83.353259			
40802	8.711271	0.165798	2.468109	0.443224	-0.735406	-0.797811	-4.419603	-69.290535	-83.428432			
40803	8.756504	0.180537	2.351465	0.465735	-0.878207	-0.798800	-4.480701	-69.178161	-83.437118			
40804	8.796124	0.046242	2.484858	0.335484	-0.790387	-0.712623	-4.602574	-69.067787	-83.397773			
40805	8.895447	-0.073847	2.531128	0.226590	-0.803963	-0.601645	-4.732585	-68.962087	-83.328513			
40806	8.954549	-0.031857	2.435786	0.282560	-0.928995	-0.583651	-4.870652	-68.850090	-83.237276			
40807	9.036573	-0.107926	2.238700	0.224850	-1.163578	-0.578048	-5.015294	-68.722698	-83.131059			
40808	9.018550	-0.063071	2.211081	0.280150	-1.200686	-0.609051	-5.163457	-68.592214	-83.001065			
40809	9.022121	-0.128287	2.253664	0.225926	-1.184218	-0.590937	-5.332617	-68.466096	-82.833820			
40810	8.968679	-0.057288	2.279328	0.307615	-1.154513	-0.636182	-5.550507	-68.367312	-82.616677			
40811	9.042703	-0.165282	2.253531	0.220178	-1.222790	-0.575130	-5.811410	-68.279273	-82.357197			
40812	8.956612	-0.232578	2.280197	0.166497	-1.180452	-0.644642	-6.093101	-68.195524	-82.062807			
40813	9.002971	-0.247333	2.256185	0.173887	-1.229665	-0.611454	-6.379624	-68.132132	-81.748866			
40814	9.104640	-0.103320	2.096382	0.345556	-1.416236	-0.583667	-6.636958	-68.079883	-81.437774			
40815	9.363841	-0.048657	2.030465	0.433878	-1.575243	-0.371447	-6.878663	-68.043805	-81.147732			
40816	9.606707	-0.039553	2.041380	0.473794	-1.658254	-0.144010	-7.105374	-68.000486	-80.886352			
40817	9.773290	-0.166899	2.140662	0.370512	-1.637910	0.051766	-7.323105	-67.959341	-80.655821			
40818	9.865541	-0.241095	2.154906	0.316227	-1.667721	0.144689	-7.490038	-67.909300	-80.471036			
40819	9.982084	-0.275880	1.943149	0.305658	-1.915844	0.173806	-7.618347	-67.858446	-80.321871			
40820	10.131572	-0.132815	1.851676	0.469366	-2.058207	0.268907	-7.691877	-67.795136	-80.222615			
40821	10.154852	0.103473	1.836210	0.713732	-2.083122	0.269701	-7.720986	-67.700265	-80.167222			
40822	10.213182	0.277544	1.820152	0.897171	-2.130224	0.304440	-7.737317	-67.575231	-80.138084			
40823	10.401348	0.206205	1.910445	0.841629	-2.144228	0.510793	-7.762919	-67.429955	-80.127307			
40824	10.620045	-0.041046	2.272067	0.606308	-1.932172	0.857287	-7.770793	-67.265743	-80.135035			
40825	10.787392	-0.235649	2.694429	0.417737	-1.645820	1.178217	-7.736349	-67.100133	-80.145897			
40826	10.858697	-0.267712	2.936556	0.387919	-1.484357	1.334170	-7.677561	-66.923316	-80.154305			
40827	10.723174	-0.143988	2.993607	0.503557	-1.411354	1.220138	-7.602128	-66.707103	-80.168761			
40828	10.322241	0.043516	2.873726	0.670089	-1.399560	0.789241	-7.542053	-66.460743	-80.192164			
40829	9.888341	0.315220	2.857192	0.916440	-1.275241	0.364538	-7.501133	-66.207964	-80.227012			
40830	9.454839	0.401693	2.687796	0.982050	-1.295408	-0.110267	-7.485543	-65.981865	-80.279038			
40831	9.304864	0.415918	2.593865	0.991298	-1.355245	-0.291018	-7.457332	-65.800285	-80.369455			
40832	9.177431	0.258633	2.737250	0.821259	-1.209758	-0.344498	-7.367310	-65.648393	-80.548457			
40833	9.348136	-0.225316	2.806635	0.339564	-1.259661	-0.137279	-7.172297	-65.579061	-80.837425			
40834	9.695823	-0.437442	2.941076	0.127322	-1.298774	0.244508	-6.816639	-65.571503	-81.263629			
40835	9.836707	-1.041645	3.119482	-0.504876	-1.221427	0.474687	-6.298068	-65.616258	-81.837980			
40836	10.186519	-1.361975	2.770786	-0.846345	-1.688092	0.662576	-5.591638	-65.719741	-82.545035			
40837	10.678989	-1.390268	1.714928	-0.888040	-2.846439	0.676517	-4.733594	-65.764876	-83.361959			
40838	10.482730	-1.106160	1.407575	-0.673056	-3.045122	0.354234	-3.774398	-65.695035	-84.202009			
40839	10.217822	-0.175824	1.849854	0.168835	-2.514706	0.262239	-2.818138	-65.622978	-84.958453			
40840	10.200562	0.595386	2.194323	0.868994	-2.170446	0.373321	-1.997359	-65.636411	-85.571165			
40841	10.386358	1.168918	2.515876	1.385696	-1.917825	0.674162	-1.341802	-65.750652	-86.028482			
40842	10.767583	1.382914	2.453985	1.574900	-2.091466	1.004919	-0.949581	-65.945969	-86.304317			
40843	11.264497	0.702356	2.361673	0.890677	-2.369424	1.436846	-0.800787	-66.184280	-86.398662			
40844	11.337149	0.245838	2.546752	0.421061	-2.212387	1.589299	-0.740449	-66.351540	-86.325866			
40845	10.873962	0.641261	3.487648	0.762754	-1.115945	1.544723	-0.782534	-66.462232	-86.083559			
40846	10.370421	0.689727	4.452226	0.759483	-0.005547	1.468570	-0.962431	-66.561061	-85.682070			
40847	9.803967	0.597115	5.186312	0.623845	0.910720	1.239619	-1.193514	-66.671686	-85.213481			
40848	9.387632	0.378997	5.777605	0.367910	1.632444	1.089223	-1.392553	-66.835212	-84.778559			
40849	9.081691	0.218265	6.123051	0.175351	2.097052	0.938497	-1.482211	-67.060508	-84.454368			
40850	8.585458	0.234655	5.943808	0.172577	2.170956	0.402544	-1.428326	-67.321461	-84.261371			
40851	7.999936	0.294921	5.703598	0.203805	2.225969	-0.240839	-1.247167	-67.603809	-84.160427			
40852	7.236402	0.644963	5.730848	0.490306	2.612110	-0.949260	-0.927539	-67.856897	-84.170285			
40853	6.941231	1.043924	6.052143	0.812298	3.092311	-1.113468	-0.507143	-68.092218	-84.282517			
40854	6.918410	1.319712	5.938257	1.050842	3.053867	-1.184924	0.049841	-68.276947	-84.545072			
40855	6.772398	1.637955	5.946409	1.314548	3.170372	-1.319835	0.682150	-68.403055	-84.950626			
40856	6.687627	1.258306	5.802429	0.904293	3.046080	-1.453299	1.389311	-68.500084	-85.567909			
40857	7.637716	1.027026	5.330902	0.703536	2.260133	-0.746011	2.123992	-68.708145	-86.272349			
40858	8.353782	0.492082	4.517739	0.224249	1.224824	-0.384694	2.855719	-68.923830	-87.050202			
40859	8.765698	-0.065249	3.958951	-0.311577	0.537123	-0.214293	3.564076	-69.137091	-87.784473			
40860	9.312342	-0.269034	3.890689	-0.542372	0.294633	0.264432	4.208841	-69.350456	-88.404056			
40861	9.653661	-0.519184	3.842701	-0.820358	0.137823	0.557315	4.712351	-69.514874	-88.839986			
40862	9.754943	-0.646068	3.913843	-0.976838	0.180210	0.671003	4.938727	-69.626157	-88.993126			
40863	10.107345	-0.820887	3.739668	-1.138170	-0.100664	0.934954	4.928951	-69.764797	-88.876245			
40864	10.005035	-0.808810	3.590065	-1.101978	-0.181798	0.789011	4.643173	-69.875531	-88.539388			
40865	9.787001	-1.059120	3.540290	-1.323788	-0.160094	0.563374	4.157206	-69.976020	-88.029762			
40866	10.168486	-0.835186	3.670060	-1.075989	-0.124656	0.975802	3.543975	-70.104355	-87.443484			
40867	9.961448	-1.033329	3.613100	-1.230104	-0.109407	0.762161	2.864754	-70.154962	-86.813776			
40868	9.323645	-1.026166	3.437668	-1.178350	-0.047334	0.107498	2.259403	-70.180483	-86.240282			
40869	8.336301	-0.811176	3.071779	-0.920542	-0.026840	-0.939155	1.815683	-70.220256	-85.777676			
40870	8.102890	-0.469902	2.678632	-0.529321	-0.265494	-1.286142	1.526409	-70.370097	-85.471040			
40871	8.212133	-0.369681	2.194661	-0.368164	-0.716448	-1.342541	1.345442	-70.596612	-85.276899			
40872	8.036644	-0.249954	1.992588	-0.229959	-0.802423	-1.571105	1.286793	-70.817851	-85.191833			
40873	7.991165	-0.082856	2.460438	-0.113796	-0.296859	-1.456962	1.291424	-71.065069	-85.141788			
40874	8.316468	-0.218349	2.614803	-0.258696	-0.233399	-1.099079	1.297796	-71.329069	-85.125227			
40875	8.552197	-0.432420	2.695492	-0.476909	-0.217906	-0.850673	1.302770	-71.554005	-85.118505			
40876	8.537698	-0.855145	2.809764	-0.911050	-0.121404	-0.830842	1.264461	-71.700405	-85.120817			
40877	8.483731	-1.204866	2.758107	-1.255150	-0.169079	-0.900419	1.234808	-71.810488	-85.163771			
40878	8.565667	-1.195825	2.419256	-1.210616	-0.495935	-0.927763	1.232908	-71.907828	-85.249707			
40879	8.491315	-1.226541	2.175900	-1.220921	-0.692570	-1.073633	1.249142	-71.963138	-85.347992			
40880	8.586256	-1.089580	2.257772	-1.093412	-0.619401	-0.956655	1.296952	-72.038537	-85.434094			
40881	8.693977	-0.879628	2.226493	-0.883523	-0.646145	-0.861815	1.384970	-72.149689	-85.528958			
40882	8.871847	-0.714621	2.229091	-0.721566	-0.664103	-0.689777	1.494934	-72.262850	-85.634237			
40883	9.030220	-0.610453	2.142912	-0.612656	-0.769053	-0.563753	1.616582	-72.332211	-85.766037			
40884	9.028851	-0.462144	2.127048	-0.470123	-0.763925	-0.568583	1.736048	-72.326645	-85.906686			
40885	9.034738	-0.478314	2.106789	-0.489837	-0.791702	-0.570010	1.839598	-72.266839	-86.073429			
40886	9.069559	-0.545258	1.889701	-0.541152	-1.028771	-0.605412	1.994534	-72.148150	-86.302121			
40887	9.368514	-0.472909	1.655283	-0.450930	-1.358282	-0.395453	2.242158	-71.980896	-86.614812			
40888	9.502038	-0.259854	1.362314	-0.224172	-1.691254	-0.362747	2.612888	-71.729240	-87.031990			
40889	9.218720	-0.355861	1.105977	-0.321313	-1.899835	-0.723038	3.084364	-71.419269	-87.556781			
40890	8.765462	-0.047141	1.464404	-0.079666	-1.439675	-1.043382	3.638637	-71.083090	-88.176130			
40891	8.422002	-0.224623	1.529301	-0.295194	-1.332551	-1.359508	4.244311	-70.773260	-88.865591			
40892	8.410498	-0.291692	1.300948	-0.373215	-1.590012	-1.455272	4.927059	-70.533025	-89.561075			
40893	8.294150	-0.166829	1.576791	-0.307614	-1.316714	-1.477313	5.574700	-70.286172	-90.172261			
40894	7.887753	-0.547276	1.780312	-0.734355	-1.057981	-1.811006	6.137442	-70.036586	-90.698640			
40895	8.013706	-0.789020	1.954700	-1.020023	-0.989134	-1.649114	6.737965	-69.861311	-91.207947			
40896	8.815110	-0.700746	2.079940	-0.982052	-1.163027	-0.856898	7.410137	-69.736067	-91.743432			
40897	9.759657	-0.399091	2.355619	-0.756512	-1.225924	0.131343	8.078504	-69.612047	-92.270469			
40898	10.207843	-0.066865	2.657453	-0.502984	-1.094505	0.666599	8.698713	-69.451750	-92.796690			
40899	10.389975	-0.182162	2.309668	-0.620901	-1.521173	0.704901	9.202471	-69.288340	-93.269841			
40900	10.310768	-0.238476	1.708277	-0.641054	-2.085924	0.411053	9.590099	-69.130196	-93.629281			
40901	10.460918	-0.081659	1.733652	-0.512555	-2.121233	0.564240	9.810540	-69.047076	-93.867586			
40902	10.614496	0.094098	1.714279	-0.349973	-2.180900	0.710445	9.862641	-69.087665	-93.959033			
40903	10.880098	0.541075	2.370827	0.021955	-1.601350	1.220226	9.668635	-69.284774	-93.845362			
40904	11.342156	0.710971	2.812728	0.158674	-1.283520	1.822960	9.190280	-69.648689	-93.466052			
40905	12.353196	1.273633	3.017808	0.729300	-1.298874	2.880236	8.331312	-70.190960	-92.735486			
40906	13.609610	1.487842	2.842891	1.032226	-1.743578	4.022377	6.908832	-70.782848	-91.549115			
40907	14.509739	0.914047	2.754101	0.597694	-2.046535	4.829866	4.922799	-71.258422	-89.935295			
40908	14.604457	-0.076795	3.377517	-0.274583	-1.478065	5.101752	2.628874	-71.503868	-88.100253			
40909	13.680510	-0.947887	4.305596	-1.045552	-0.321532	4.518877	0.350384	-71.587222	-86.327177			
40910	13.019160	-1.383164	4.944728	-1.367735	0.504598	4.106161	-1.721627	-71.703803	-84.767400			
40911	13.145518	-1.740781	4.872973	-1.570170	0.432557	4.220362	-3.498209	-71.869371	-83.475272			
40912	12.616443	-2.356588	4.663651	-2.074578	0.418322	3.677970	-4.926526	-71.950549	-82.514297			
40913	11.473967	-3.105424	4.792394	-2.783618	0.893840	2.665877	-5.967164	-71.965097	-81.904062			
40914	10.447728	-3.576580	5.067638	-3.243805	1.480600	1.802525	-6.676768	-71.990687	-81.558067			
40915	9.852836	-3.497755	5.189233	-3.155007	1.806123	1.278957	-7.068286	-72.022368	-81.367431			
40916	8.958060	-2.654065	5.475839	-2.342473	2.391287	0.486355	-7.171783	-72.031581	-81.291421			
40917	8.009221	-1.846577	5.535179	-1.581788	2.765004	-0.429278	-7.129167	-72.043796	-81.235179			
40918	7.571207	-1.251557	5.443718	-1.017452	2.831182	-0.897934	-7.024830	-72.069834	-81.137759			
40919	7.380614	-0.656102	5.162319	-0.438412	2.644243	-1.188928	-7.018025	-72.087047	-80.903959			
40920	7.107227	-0.235045	4.723607	-0.027375	2.328164	-1.599327	-7.126173	-72.089726	-80.555197			
40921	7.124684	0.336483	4.534056	0.550278	2.173040	-1.663633	-7.464725	-72.104952	-80.000263			
40922	7.186454	0.622726	4.208672	0.864723	1.865629	-1.718402	-8.123743	-72.093503	-79.186235			
40923	7.948837	0.384923	4.520527	0.691977	1.927596	-0.892333	-9.109187	-72.086515	-78.122480			
40924	8.678209	0.014999	4.464815	0.420646	1.641622	-0.201549	-10.243175	-72.035604	-76.952582			
40925	9.117473	0.173982	4.660697	0.662682	1.700624	0.264468	-11.356021	-71.863771	-75.835484			
40926	9.599198	-0.198013	4.331615	0.407720	1.205953	0.643208	-12.452487	-71.696209	-74.849182			
40927	9.704329	-0.528669	4.097776	0.159633	0.914429	0.693656	-13.321951	-71.494672	-74.106241			
40928	9.652054	-0.554438	3.779880	0.189948	0.602658	0.548663	-13.880172	-71.297179	-73.655472			
40929	9.026246	-0.613549	3.675868	0.111415	0.669359	-0.070972	-14.199617	-71.132252	-73.445899			
40930	8.195773	-0.137208	3.673472	0.526605	0.923046	-0.893354	-14.189687	-70.921244	-73.482454			
40931	7.903491	0.181058	3.742679	0.818506	1.068114	-1.170077	-14.005304	-70.757470	-73.680441			
40932	8.096902	0.482640	3.618323	1.131181	0.880386	-1.047397	-13.585259	-70.638110	-74.054674			
40933	7.760359	1.042541	3.514350	1.641005	0.895563	-1.436192	-12.983578	-70.508611	-74.582263			
40934	7.813598	1.366519	3.667594	1.938287	1.018546	-1.352401	-12.333282	-70.428880	-75.202422			
40935	7.965821	1.566467	3.695140	2.121280	0.986616	-1.205201	-11.671506	-70.366860	-75.880728			
40936	8.043705	1.588100	3.715695	2.121568	0.961135	-1.117591	-11.075440	-70.299351	-76.568227			
40937	8.301913	1.286553	3.474835	1.825568	0.611772	-0.927621	-10.600728	-70.230370	-77.195138			
40938	8.522244	0.848746	3.218480	1.394242	0.255011	-0.773958	-10.229727	-70.160272	-77.744393			
40939	8.386967	0.225679	3.062836	0.752809	0.106461	-0.913529	-9.946854	-70.089970	-78.231194			
40940	8.427107	0.173753	3.116796	0.691953	0.126389	-0.853561	-9.718966	-70.029759	-78.630853			
40941	8.647479	0.185298	2.982741	0.713394	-0.088035	-0.691653	-9.589927	-69.952878	-78.957622			
40942	8.822625	0.251464	3.089641	0.787485	-0.065465	-0.494783	-9.529886	-69.806339	-79.219522			
40943	8.697446	0.222276	3.043553	0.754708	-0.098785	-0.626898	-9.547145	-69.593379	-79.420715			
40944	8.601646	0.125589	2.970396	0.661132	-0.174647	-0.737468	-9.622840	-69.359390	-79.570789			
40945	8.081948	0.027011	2.782535	0.541680	-0.210465	-1.284893	-9.762407	-69.114830	-79.672534			
40946	7.984945	-0.317040	2.376340	0.206330	-0.596846	-1.499567	-10.033649	-68.899564	-79.672366			
40947	7.954926	-0.891522	2.043357	-0.353151	-0.933239	-1.611758	-10.389699	-68.700092	-79.597938			
40948	7.854835	-1.225736	2.121591	-0.671375	-0.850576	-1.656235	-10.798968	-68.505552	-79.435666			
40949	8.158043	-1.405496	2.274633	-0.800853	-0.837734	-1.306233	-11.351161	-68.324354	-79.156456			
40950	8.838834	-1.324931	2.221706	-0.638196	-1.154344	-0.698061	-12.011882	-68.111139	-78.724575			
40951	9.391328	-0.936493	2.394718	-0.158314	-1.227751	-0.154742	-12.774638	-67.791291	-78.191956			
40952	9.164926	-0.507315	2.758012	0.321344	-0.864473	-0.272848	-13.529176	-67.290415	-77.675277			
40953	8.495426	-0.800284	2.974015	0.043770	-0.489813	-0.789676	-14.233350	-66.675617	-77.293573			
40954	7.754943	-0.844089	2.840253	-0.015035	-0.411601	-1.521232	-14.767977	-66.031044	-77.036556			
40955	7.090704	-0.390407	2.148095	0.382971	-0.865831	-2.454157	-15.153797	-65.440670	-76.831050			
40956	7.023270	0.231316	1.943334	1.014769	-1.097235	-2.676698	-15.461204	-64.944540	-76.650271			
40957	7.232783	0.310792	1.678267	1.125068	-1.477440	-2.617030	-15.761434	-64.562867	-76.471114			
40958	7.570129	0.601576	1.554311	1.464771	-1.774674	-2.410698	-16.093713	-64.265257	-76.247079			
40959	8.172705	0.756971	1.754364	1.721293	-1.881394	-1.816360	-16.538748	-64.032630	-75.970050			
40960	8.041006	0.601527	1.786646	1.586151	-1.821556	-1.914737	-17.049011	-63.812946	-75.690267			
40961	8.476543	0.765384	2.567441	1.887167	-1.325701	-1.227216	-17.656562	-63.696313	-75.376286			
40962	9.395199	0.441810	2.989473	1.742837	-1.334839	-0.190709	-18.370676	-63.716083	-75.047758			
40963	10.021031	-0.158240	3.443395	1.300307	-1.161276	0.640233	-19.028881	-63.805521	-74.824904			
40964	10.325770	-1.243099	3.342619	0.284873	-1.320074	1.027796	-19.495349	-63.911479	-74.784691			
40965	10.498143	-2.339116	2.397828	-0.862015	-2.171377	0.956435	-19.702843	-64.044585	-74.916583			
40966	10.686934	-2.914367	1.384063	-1.527613	-3.110438	0.799154	-19.674166	-64.168285	-75.202850			
40967	10.924056	-3.023724	1.097565	-1.668374	-3.439677	0.914268	-19.460398	-64.270736	-75.591488			
40968	10.803171	-2.531888	1.708615	-1.162741	-2.848644	0.984139	-19.099244	-64.350161	-76.011903			
40969	10.711813	-1.951660	2.824668	-0.510331	-1.819800	1.275974	-18.756415	-64.474619	-76.361003			
40970	11.384901	-1.642816	3.947689	-0.047711	-1.072497	2.301200	-18.476788	-64.710769	-76.627479			
40971	12.325193	-1.712408	4.267647	-0.028700	-1.111005	3.295317	-18.217789	-65.061972	-76.911502			
40972	13.119951	-2.161711	3.859764	-0.494251	-1.698663	3.919505	-17.857948	-65.490009	-77.328908			
40973	13.752560	-2.285454	3.481499	-0.675435	-2.206010	4.370160	-17.195939	-65.870816	-78.013045			
40974	13.885451	-1.881637	4.464975	-0.259197	-1.312995	4.832779	-16.265529	-66.221865	-78.905910			
40975	13.815994	-1.447582	6.794867	0.287171	0.899251	5.622793	-15.181359	-66.641873	-79.848722			
40976	13.532826	-0.676279	7.760224	0.988423	1.948074	5.648258	-14.030821	-67.147947	-80.747559			
40977	12.882603	-0.331097	7.209878	1.099657	1.780598	4.804813	-12.952157	-67.628082	-81.577912			
40978	11.736987	-0.437508	6.518895	0.750955	1.668475	3.495024	-11.926967	-67.975593	-82.345511			
40979	9.916771	-0.126405	6.093169	0.841606	1.989960	1.624799	-11.045448	-68.233692	-82.954839			
40980	8.566166	0.432515	5.848072	1.249798	2.271810	0.239311	-10.369759	-68.478119	-83.374341			
40981	8.242948	0.455030	5.952239	1.216114	2.522592	-0.028019	-9.841418	-68.672196	-83.711845			
40982	7.656620	0.212615	6.419131	0.944259	3.205927	-0.394378	-9.357089	-68.785329	-84.081835			
40983	7.207606	0.082045	6.554660	0.775125	3.516603	-0.759926	-8.898826	-68.903380	-84.520032			
40984	6.699939	-0.235354	6.066569	0.384681	3.274749	-1.393910	-8.381499	-69.033521	-85.132557			
40985	6.933814	-0.201680	5.361589	0.353606	2.553295	-1.432914	-7.746855	-69.241983	-85.895892			
40986	7.510616	-0.025483	4.766753	0.471065	1.814292	-1.116817	-6.984704	-69.490322	-86.798212			
40987	8.083282	0.015471	4.906049	0.491248	1.773349	-0.537847	-6.087928	-69.697845	-87.839802			
40988	8.840755	-0.201440	5.059225	0.247337	1.701576	0.229145	-5.176616	-69.933134	-88.880142			
40989	9.922393	-0.291759	5.070004	0.112101	1.390390	1.246144	-4.296231	-70.190461	-89.832572			
40990	10.627583	-0.238484	4.817186	0.092949	0.951696	1.818864	-3.494153	-70.355399	-90.629578			
40991	10.090798	0.105491	4.390931	0.358832	0.726033	1.162720	-2.826891	-70.359759	-91.217026			
40992	9.275586	0.070778	4.113850	0.278989	0.738681	0.303723	-2.495957	-70.308797	-91.492324			
40993	8.517282	-0.101949	3.868513	0.083766	0.767864	-0.489423	-2.406704	-70.267633	-91.556147			
40994	7.670361	-0.416358	3.805882	-0.227040	1.009658	-1.302601	-2.482252	-70.229306	-91.500462			
40995	7.329794	-0.957479	3.840765	-0.754961	1.193189	-1.602910	-2.650257	-70.257956	-91.390908			
40996	7.498797	-1.295768	3.800410	-1.086262	1.128137	-1.451980	-2.847973	-70.315284	-91.277898			
40997	7.644300	-1.756978	3.828010	-1.532920	1.146611	-1.297327	-3.080834	-70.365638	-91.157058			
40998	7.523719	-2.290582	3.783133	-2.053826	1.188778	-1.414247	-3.311500	-70.356256	-91.048891			
40999	7.706527	-2.545560	3.668434	-2.303729	1.043987	-1.272737	-3.561060	-70.390297	-90.924522			
41000	7.453235	-2.685718	3.203071	-2.464836	0.709731	-1.661350	-3.791829	-70.412018	-90.763224			
41001	7.205620	-2.568334	2.958967	-2.355593	0.560122	-1.976219	-3.992721	-70.466432	-90.531813			
41002	7.417355	-2.203023	2.709527	-2.002537	0.235446	-1.866217	-4.202067	-70.572638	-90.201856			
41003	7.708312	-1.876309	2.584732	-1.676837	0.010606	-1.639101	-4.423525	-70.719951	-89.818651			
41004	7.765515	-1.614115	2.575766	-1.405576	-0.017144	-1.592761	-4.645254	-70.896442	-89.380596			
41005	7.961868	-1.326514	2.581423	-1.107225	-0.070707	-1.411276	-4.866883	-71.122913	-88.930113			
41006	8.465672	-0.886570	2.520824	-0.659765	-0.287384	-0.964513	-5.033513	-71.351316	-88.523901			
41007	8.599394	-0.635757	2.507189	-0.402010	-0.329929	-0.847797	-5.133384	-71.504157	-88.188644			
41008	8.419780	-0.475357	2.417821	-0.245797	-0.348366	-1.050112	-5.131049	-71.597306	-87.959564			
41009	8.111880	-0.425027	2.358391	-0.204749	-0.299505	-1.362030	-4.989865	-71.656919	-87.870372			
41010	8.162047	-0.460324	2.287036	-0.251692	-0.373000	-1.335722	-4.723386	-71.726645	-87.920128			
41011	8.092852	-0.623862	2.214417	-0.434065	-0.407063	-1.420253	-4.301857	-71.765717	-88.124855			
41012	8.082239	-0.634692	2.189812	-0.467546	-0.424235	-1.438796	-3.729832	-71.791408	-88.469612			
41013	7.940683	-0.457915	1.854586	-0.331414	-0.703864	-1.682601	-3.061071	-71.802465	-88.912455			
41014	7.933322	-0.149583	1.592315	-0.059982	-0.960592	-1.777201	-2.371699	-71.805598	-89.402521			
41015	8.007187	-0.001263	1.200743	0.049069	-1.357412	-1.830721	-1.695601	-71.840766	-89.937142			
41016	8.313260	0.194587	1.051445	0.212076	-1.593469	-1.586541	-0.973915	-71.894361	-90.555017			
41017	8.400749	0.476404	1.129205	0.462888	-1.545454	-1.477711	-0.179523	-71.951170	-91.286137			
41018	8.465433	0.467352	1.126313	0.415777	-1.556595	-1.413012	0.698221	-72.038805	-92.142865			
41019	8.897453	0.189321	1.200500	0.091191	-1.596156	-0.976089	1.683641	-72.140421	-93.112411			
41020	9.213783	-0.132456	1.128822	-0.287551	-1.738758	-0.697899	2.792019	-72.184011	-94.170322			
41021	9.360652	-0.165075	1.341394	-0.375271	-1.576797	-0.494910	3.997397	-72.135145	-95.259806			
41022	9.038812	-0.440605	1.302147	-0.700135	-1.517595	-0.824013	5.200382	-72.016551	-96.294366			
41023	9.045632	-0.746383	1.517972	-1.058723	-1.322758	-0.767583	6.343983	-71.880880	-97.239038			
41024	9.233793	-0.800557	1.343149	-1.173392	-1.564515	-0.653917	7.353293	-71.736621	-98.023504			
41025	9.480926	-1.003778	1.359298	-1.430207	-1.643337	-0.432016	8.120757	-71.586595	-98.587298			
41026	10.058445	-0.856801	1.537792	-1.341526	-1.670385	0.171365	8.614169	-71.550976	-98.924019			
41027	11.103860	-0.743052	1.636626	-1.293057	-1.900468	1.198334	8.738791	-71.623765	-98.980101			
41028	11.973093	-0.381066	1.711554	-0.967091	-2.090707	2.066842	8.542140	-71.706728	-98.712211			
41029	12.422238	-0.004951	1.967803	-0.587024	-1.984191	2.593060	8.084954	-71.726456	-98.159052			
41030	12.520593	0.287558	2.249690	-0.261412	-1.759408	2.786718	7.496212	-71.669596	-97.440369			
41031	12.227898	0.172332	2.394338	-0.321950	-1.554241	2.547106	6.856705	-71.557997	-96.697502			
41032	11.412115	-0.515061	2.352240	-0.938341	-1.367671	1.732159	6.287921	-71.420391	-96.024807			
41033	10.860544	-0.762604	2.285141	-1.134646	-1.284748	1.178980	5.884032	-71.331911	-95.436363			
41034	11.187387	-1.261797	2.639466	-1.621290	-1.075816	1.586019	5.521093	-71.275090	-94.879442			
41035	11.505656	-1.321578	3.006491	-1.667573	-0.845914	2.005486	5.139373	-71.269192	-94.207682			
41036	11.491956	-0.489489	3.360364	-0.806820	-0.495208	2.133037	4.579029	-71.381699	-93.292074			
41037	11.976274	-0.003019	3.228150	-0.270882	-0.733193	2.566350	3.693065	-71.633497	-92.071785			
41038	12.633545	0.675469	4.059121	0.455650	-0.083538	3.466004	2.420188	-71.860859	-90.551597			
41039	12.783681	1.218962	6.299078	1.034633	2.066960	4.302638	0.694515	-72.062307	-88.780846			
41040	12.914370	1.353965	7.720649	1.267465	3.456552	4.838777	-1.405341	-72.408360	-86.771992			
41041	13.154990	1.194794	6.632231	1.308077	2.450270	4.704518	-3.719067	-72.842015	-84.597274			
41042	12.644318	0.154430	5.047148	0.453122	1.149435	3.746350	-5.961825	-73.079901	-82.551216			
41043	10.701913	-0.891152	4.527298	-0.523879	1.223177	1.765305	-7.801111	-73.057864	-80.907807			
41044	9.169450	-1.252015	4.924644	-0.862903	2.042870	0.433284	-9.336615	-72.997119	-79.594170			
41045	9.038512	-2.018003	5.073747	-1.559494	2.211910	0.394418	-10.555179	-72.975877	-78.534706			
41046	9.170831	-2.381277	5.234378	-1.863157	2.318666	0.595273	-11.298498	-72.882712	-77.715945			
41047	8.611141	-2.132497	5.375462	-1.625846	2.595824	0.097563	-11.711815	-72.683937	-76.972832			
41048	8.481031	-1.864418	5.060689	-1.355170	2.301437	-0.123452	-12.043778	-72.488867	-76.145154			
41049	8.581210	-1.423101	4.556268	-0.888127	1.771661	-0.195292	-12.548515	-72.300818	-75.089156			
41050	8.330768	-0.848360	4.207228	-0.306323	1.513091	-0.569376	-13.191487	-72.116061	-73.854260			
41051	7.958173	0.221275	4.394166	0.743750	1.853650	-0.941333	-14.032095	-71.952503	-72.445134			
41052	7.956834	1.129486	4.369250	1.678623	1.901802	-1.023913	-15.073318	-71.849568	-70.949046			
41053	9.084660	1.573883	4.283016	2.283198	1.545699	-0.027500	-16.249272	-71.810786	-69.500592			
41054	10.383169	1.503975	4.164674	2.420623	1.073379	1.160220	-17.398841	-71.776454	-68.277086			
41055	10.608973	1.038032	3.795796	2.068589	0.619420	1.294644	-18.236184	-71.593993	-67.517904			
41056	9.769155	0.688025	3.620333	1.681481	0.638795	0.472295	-18.648137	-71.311441	-67.202182			
41057	9.044721	0.539890	3.617152	1.477812	0.795931	-0.202036	-18.746634	-71.044232	-67.204044			
41058	8.789073	0.082920	3.699302	1.004090	0.871921	-0.369650	-18.598940	-70.836097	-67.430374			
41059	7.994771	-0.118133	3.675180	0.705432	1.036831	-1.102664	-18.173352	-70.643388	-67.842146			
41060	7.615225	-0.283169	3.769090	0.475331	1.197418	-1.409234	-17.600459	-70.524490	-68.329803			
41061	7.753256	-0.022684	3.495517	0.739109	0.896853	-1.387642	-16.935140	-70.475077	-68.814312			
41062	7.924852	0.504606	3.199600	1.267074	0.595618	-1.366682	-16.217543	-70.443701	-69.330121			
41063	7.377573	1.038621	3.191465	1.700011	0.795442	-1.927898	-15.485939	-70.393337	-69.856663			
41064	7.361902	1.734354	3.396197	2.344291	1.052060	-1.929977	-14.853298	-70.407212	-70.328628			
41065	7.674962	1.769815	3.219306	2.398863	0.788003	-1.687069	-14.362296	-70.447586	-70.743960			
41066	7.801672	1.506118	3.150641	2.135178	0.654933	-1.562047	-14.003038	-70.464640	-71.099068			
41067	8.186071	0.868933	3.118144	1.533427	0.436383	-1.155448	-13.794664	-70.480700	-71.365402			
41068	8.450388	0.222551	3.038485	0.917781	0.212238	-0.879401	-13.683801	-70.488937	-71.539169			
41069	8.438203	-0.377489	2.969665	0.321990	0.091771	-0.865477	-13.644710	-70.484437	-71.627078			
41070	8.425132	-0.556574	3.108824	0.133233	0.207088	-0.818424	-13.623093	-70.456316	-71.646280			
41071	8.568597	-0.730272	3.116936	-0.021892	0.143422	-0.666739	-13.631082	-70.364255	-71.640974			
41072	8.357020	-0.721804	3.034066	-0.022198	0.110872	-0.893413	-13.650331	-70.148054	-71.624183			
41073	7.958245	-0.627569	3.098972	0.038533	0.274691	-1.253829	-13.724263	-69.871304	-71.559658			
41074	7.977909	-0.747682	2.931654	-0.049757	0.062596	-1.280740	-13.863135	-69.602862	-71.443751			
41075	7.910118	-0.353898	2.560114	0.375654	-0.260730	-1.503645	-13.996541	-69.339578	-71.285778			
41076	7.838584	-0.327884	2.304371	0.429017	-0.506884	-1.662845	-14.183174	-69.080928	-71.120146			
41077	7.984991	-0.701955	1.843027	0.123148	-1.053537	-1.656440	-14.353026	-68.866264	-70.920702			
41078	8.080959	-0.688267	1.771483	0.170681	-1.176153	-1.596774	-14.490615	-68.678564	-70.688297			
41079	8.331545	-0.629691	1.739652	0.279650	-1.307360	-1.383567	-14.654516	-68.508487	-70.394151			
41080	8.342090	-0.584090	1.731566	0.347578	-1.335296	-1.384993	-14.825833	-68.313378	-70.077386			
41081	8.587190	-0.139130	1.934384	0.829890	-1.206373	-1.131853	-15.065805	-68.115355	-69.690697			
41082	8.481400	0.031930	1.944258	1.012788	-1.163857	-1.249108	-15.356734	-67.891117	-69.290796			
41083	8.706661	0.162748	2.116499	1.190235	-1.089811	-0.997499	-15.663852	-67.693137	-68.873039			
41084	8.676642	0.236375	1.989658	1.298258	-1.207805	-1.086041	-15.983121	-67.490635	-68.454332			
41085	8.752868	0.138359	1.974563	1.244421	-1.277835	-1.017848	-16.309661	-67.308639	-68.016486			
41086	8.915945	0.158733	1.984608	1.319536	-1.338590	-0.872619	-16.671690	-67.144410	-67.549189			
41087	8.860193	0.179036	2.131894	1.354147	-1.191965	-0.878179	-17.058780	-66.979729	-67.082200			
41088	8.921656	0.401499	2.642577	1.580242	-0.723703	-0.662860	-17.503956	-66.846134	-66.595705			
41089	8.942320	0.376461	2.647353	1.594125	-0.734180	-0.645632	-18.008460	-66.738737	-66.102667			
41090	8.929328	0.304591	2.781053	1.547663	-0.615688	-0.604784	-18.523735	-66.654431	-65.637621			
41091	9.283047	0.129907	2.875500	1.461094	-0.674415	-0.227771	-19.034950	-66.613607	-65.229897			
41092	9.889012	-0.168161	2.848714	1.300162	-0.944027	0.353646	-19.493819	-66.633790	-64.893300			
41093	10.384528	-0.551064	2.589013	1.043022	-1.392951	0.761660	-19.762182	-66.692758	-64.686307			
41094	10.841996	-0.844158	2.035051	0.872509	-2.091983	1.016220	-19.807294	-66.740601	-64.688513			
41095	11.202243	-1.128681	1.955880	0.649651	-2.327534	1.356473	-19.615357	-66.736737	-64.914271			
41096	11.088723	-1.123816	2.458795	0.584530	-1.832493	1.437585	-19.263855	-66.712382	-65.266306			
41097	10.967397	-0.960397	3.131570	0.655541	-1.160278	1.555550	-18.850480	-66.724785	-65.652450			
41098	10.975688	-0.816089	3.853005	0.720674	-0.489449	1.815655	-18.416943	-66.746429	-66.072828			
41099	11.141285	-1.054608	3.915141	0.471134	-0.528200	2.022331	-17.946734	-66.801352	-66.578384			
41100	11.639800	-1.885773	3.934547	-0.319405	-0.784183	2.589107	-17.420476	-66.961808	-67.169648			
41101	12.409598	-2.643068	4.235258	-1.040236	-0.847692	3.495955	-16.680820	-67.229161	-67.895283			
41102	13.056613	-2.599795	4.533835	-1.022890	-0.759299	4.193227	-15.734075	-67.575490	-68.742220			
41103	13.186114	-2.205544	5.422568	-0.800208	0.112421	4.591744	-14.634258	-67.951129	-69.691523			
41104	12.680392	-1.533446	6.362261	-0.408938	1.291601	4.392408	-13.394000	-68.339250	-70.694622			
41105	11.684964	-0.426088	5.972872	0.454436	1.455061	3.228387	-12.042153	-68.703233	-71.681048			
41106	9.923269	0.585628	5.587693	1.160287	1.868862	1.376431	-10.754523	-69.014481	-72.538670			
41107	8.913947	1.225615	5.772491	1.559867	2.513169	0.460188	-9.708052	-69.385393	-73.170835			
41108	8.809457	1.641900	6.407034	1.801708	3.254128	0.556304	-8.891768	-69.787917	-73.661900			
41109	8.814581	1.550130	7.096433	1.556851	3.940538	0.794237	-8.179001	-70.129977	-74.219265			
41110	8.980228	0.987324	7.084505	0.955152	3.841314	0.964191	-7.475470	-70.413848	-74.921824			
41111	8.613427	0.254141	6.416487	0.226122	3.264176	0.420631	-6.666535	-70.628701	-75.862800			
41112	8.405455	-0.393889	5.585821	-0.382285	2.486855	-0.031205	-5.737230	-70.817570	-77.006119			
41113	8.315482	-0.892842	4.841573	-0.847548	1.770646	-0.350581	-4.684544	-70.969091	-78.310290			
41114	8.527509	-0.781894	4.725655	-0.765959	1.619120	-0.197437	-3.502586	-71.056410	-79.677526			
41115	9.017106	-0.476645	4.758733	-0.499635	1.533754	0.265931	-2.287677	-71.110912	-81.051077			
41116	9.403721	-0.611463	4.562581	-0.655468	1.208047	0.566700	-1.177515	-71.134118	-82.285259			
41117	9.240287	-0.676396	4.436789	-0.771400	1.130590	0.368273	-0.180831	-71.136087	-83.350088			
41118	8.987853	-0.566643	3.985009	-0.673315	0.795053	-0.019973	0.640203	-71.144511	-84.163760			
41119	9.109345	-0.600239	4.042284	-0.746614	0.801792	0.111028	1.198442	-71.129030	-84.695058			
41120	9.083619	-0.763934	4.073970	-0.935715	0.813890	0.094631	1.451860	-71.083428	-84.919203			
41121	8.057378	-0.975470	4.164562	-1.194333	1.193647	-0.848023	1.554115	-70.984054	-84.973699			
41122	7.760425	-1.095380	4.226915	-1.329599	1.326033	-1.108397	1.480620	-70.979217	-84.883189			
41123	7.880978	-1.368245	4.076506	-1.573965	1.118513	-1.045057	1.278424	-71.022132	-84.721623			
41124	8.091448	-1.599627	4.120201	-1.789448	1.076766	-0.832442	0.960689	-71.098925	-84.470384			
41125	7.696360	-2.197568	4.061970	-2.372984	1.095609	-1.225987	0.610651	-71.145565	-84.196136			
41126	7.647766	-2.385347	4.031567	-2.542260	1.073250	-1.279414	0.285252	-71.220745	-83.881386			
41127	7.896974	-2.467053	3.617028	-2.558382	0.609426	-1.174708	0.008066	-71.338881	-83.573492			
41128	7.853797	-2.611325	3.378431	-2.668634	0.395321	-1.289951	-0.212085	-71.435605	-83.231601			
41129	7.689063	-2.711915	3.218445	-2.751324	0.293931	-1.495333	-0.371737	-71.546027	-82.887526			
41130	7.655394	-2.672638	2.990406	-2.685414	0.099202	-1.598718	-0.460550	-71.656095	-82.518673			
41131	7.717875	-2.156121	3.037569	-2.175944	0.192637	-1.525986	-0.496851	-71.790236	-82.157181			
41132	7.907939	-1.505317	2.877774	-1.505518	0.077819	-1.397796	-0.521200	-71.957181	-81.794646			
41133	8.530365	-0.722804	2.910563	-0.709912	0.045348	-0.798540	-0.550223	-72.166870	-81.473562			
41134	8.801457	-0.260099	2.807811	-0.228319	-0.040930	-0.573465	-0.610439	-72.343355	-81.142282			
41135	8.845796	0.096374	2.903525	0.112527	0.112450	-0.503418	-0.676186	-72.478289	-80.811984			
41136	8.882082	0.255060	2.729258	0.294384	-0.021541	-0.521931	-0.674232	-72.546751	-80.518821			
41137	9.006860	0.439939	2.611002	0.497340	-0.132263	-0.438811	-0.584333	-72.574300	-80.318693			
41138	9.131727	0.628426	2.673965	0.675113	-0.075710	-0.301014	-0.457104	-72.573149	-80.155184			
41139	9.044283	0.499382	2.538895	0.558470	-0.199129	-0.424243	-0.303793	-72.543871	-80.086121			
41140	9.144220	0.337596	2.391103	0.421642	-0.400312	-0.372875	-0.125595	-72.499403	-80.070086			
41141	9.004887	0.289392	2.087716	0.411140	-0.663460	-0.597425	0.041551	-72.408903	-80.087601			
41142	8.724084	0.303512	1.993557	0.423121	-0.682031	-0.894627	0.175611	-72.295056	-80.112182			
41143	8.577062	0.219377	1.701647	0.378540	-0.941284	-1.124741	0.299557	-72.221583	-80.202435			
41144	8.498841	0.208432	1.630411	0.370900	-0.996118	-1.221869	0.454007	-72.179014	-80.373953			
41145	8.301720	0.300441	1.543971	0.457617	-1.009304	-1.436259	0.665653	-72.141023	-80.660370			
41146	8.334483	0.077517	1.426785	0.246068	-1.174162	-1.442138	1.004886	-72.123271	-81.072072			
41147	8.436785	-0.149534	1.572471	-0.016453	-1.112792	-1.301768	1.476023	-72.110859	-81.609567			
41148	8.805155	-0.242875	1.756309	-0.148704	-1.072399	-0.896290	2.106643	-72.117297	-82.246243			
41149	9.246825	-0.280028	2.143176	-0.264665	-0.855192	-0.358912	2.831060	-72.105120	-82.989446			
41150	8.931239	-0.488216	2.015376	-0.497529	-0.926247	-0.704366	3.614513	-72.015304	-83.774353			
41151	8.716678	-0.695650	1.842614	-0.717575	-1.074559	-0.970182	4.386873	-71.922639	-84.587600			
41152	8.815594	-0.886546	1.742653	-0.922250	-1.246621	-0.917028	5.112019	-71.837351	-85.353461			
41153	9.017883	-0.985641	1.752592	-1.050810	-1.329610	-0.730115	5.747113	-71.767434	-86.061825			
41154	9.204335	-1.100106	1.689956	-1.180126	-1.475370	-0.581411	6.293209	-71.714776	-86.654866			
41155	9.628267	-1.037863	1.767826	-1.151178	-1.534201	-0.157282	6.763729	-71.659996	-87.144667			
41156	9.991063	-0.813129	1.885486	-0.965326	-1.514980	0.227756	7.128766	-71.575462	-87.474175			
41157	10.430658	-0.597052	2.140683	-0.804715	-1.394855	0.729817	7.371991	-71.506466	-87.696053			
41158	11.105684	-0.408046	2.518061	-0.682115	-1.234712	1.494548	7.462486	-71.482411	-87.818798			
41159	11.456547	-0.370910	2.126419	-0.578840	-1.708136	1.705078	7.392015	-71.477713	-87.845876			
41160	11.519752	-0.406879	1.736621	-0.543735	-2.098615	1.640969	7.185524	-71.468338	-87.743088			
41161	11.210759	-0.479850	1.338059	-0.543929	-2.384461	1.220002	6.917120	-71.463591	-87.574423			
41162	10.857091	-0.632504	1.190794	-0.661995	-2.431971	0.833521	6.645009	-71.474196	-87.359183			
41163	10.443315	-1.132225	1.297916	-1.163651	-2.278139	0.457917	6.358200	-71.446655	-87.105204			
41164	10.018406	-1.517271	1.599718	-1.580241	-1.930949	0.137383	6.062766	-71.358890	-86.744117			
41165	10.047470	-1.487573	2.513671	-1.673845	-1.093839	0.457890	5.692815	-71.321465	-86.264241			
41166	10.549534	-0.818843	2.885938	-1.034911	-0.797499	1.076971	5.182476	-71.410460	-85.596432			
41167	11.311605	0.208670	3.059555	0.008909	-0.683034	1.887309	4.424193	-71.588342	-84.741502			
41168	11.594298	1.020013	3.778190	0.756245	0.075982	2.400612	3.381226	-71.767052	-83.715074			
41169	11.464286	0.915740	4.907146	0.539587	1.204760	2.621345	2.118209	-71.967123	-82.628676			
41170	11.659149	1.409671	6.433824	0.880722	2.719039	3.269628	0.714291	-72.234090	-81.418336			
41171	12.271253	2.563851	7.409538	2.008829	3.719899	4.122269	-1.016015	-72.573563	-80.002573			
41172	12.475082	2.743384	7.042509	2.391187	3.430813	4.160852	-3.072042	-72.866449	-78.390885			
41173	11.603806	1.908749	5.799330	1.839403	2.444019	2.937419	-5.180270	-72.996608	-76.835279			
41174	9.786662	0.618004	4.681073	0.716329	1.745498	0.888347	-7.031288	-72.971072	-75.555958			
41175	8.589992	-0.486876	4.486461	-0.340335	1.765398	-0.277477	-8.551731	-72.919347	-74.587569			
41176	8.328014	-1.073160	4.706205	-0.885643	1.989075	-0.436407	-9.760672	-72.877006	-73.826598			
41177	8.764887	-2.138849	5.108230	-1.879825	2.135795	0.157080	-10.685175	-72.807794	-73.276609			
41178	8.456361	-2.978811	5.106240	-2.687093	2.127876	-0.080856	-11.321338	-72.655448	-72.811218			
41179	8.347225	-3.677150	4.792735	-3.323230	1.772030	-0.221867	-11.827871	-72.506322	-72.358715			
41180	8.379289	-4.163402	4.176636	-3.721805	1.103792	-0.330050	-12.219166	-72.387114	-71.834969			
41181	8.482708	-3.409129	4.435088	-2.969795	1.376414	-0.193219	-12.491799	-72.244308	-71.237520			
41182	8.384336	-1.791103	4.642843	-1.385018	1.763040	-0.324037	-12.829883	-72.106987	-70.470169			
41183	8.749065	-0.337475	4.901264	0.080729	2.071786	0.004826	-13.425541	-72.013618	-69.516666			
41184	9.693628	0.511308	4.969692	1.041120	1.984741	0.859821	-14.236109	-71.995502	-68.406501			
41185	10.801952	1.175729	4.692399	1.893792	1.522053	1.770911	-15.170602	-72.007739	-67.258558			
41186	11.818989	1.396209	4.251248	2.334961	0.876503	2.576435	-16.137222	-71.983298	-66.163143			
41187	11.874406	1.152954	3.777328	2.217121	0.383488	2.497309	-16.896661	-71.799630	-65.364542			
41188	10.646528	0.752136	3.513692	1.747747	0.394453	1.280090	-17.294468	-71.472024	-64.931385			
41189	9.321128	0.646326	3.836536	1.467667	1.018210	0.128596	-17.416530	-71.138094	-64.779796			
41190	8.473664	0.486797	4.055621	1.192712	1.405656	-0.588294	-17.412424	-70.873230	-64.772851			
41191	8.108365	0.432192	3.778269	1.132009	1.207255	-1.011058	-17.245291	-70.645044	-64.913113			
41192	7.830723	0.747991	3.691150	1.414673	1.221021	-1.326699	-16.875255	-70.419050	-65.186699			
41193	7.446843	1.105051	3.571354	1.717391	1.245024	-1.754676	-16.350125	-70.224370	-65.609823			
41194	7.279293	1.540166	3.432768	2.121459	1.206608	-1.990441	-15.769208	-70.111298	-66.079349			
41195	7.116132	1.492815	3.186163	2.061772	0.999504	-2.212064	-15.220801	-70.064296	-66.594647			
41196	7.505143	1.269889	3.203478	1.872478	0.847538	-1.814092	-14.753072	-70.080609	-67.073905			
41197	7.886806	0.985780	3.175194	1.628108	0.651112	-1.435300	-14.411348	-70.128664	-67.502314			
41198	8.372180	0.447384	3.171765	1.146535	0.414413	-0.931959	-14.236887	-70.218664	-67.798787			
41199	8.874729	-0.196924	2.842247	0.602934	-0.141410	-0.512450	-14.140164	-70.310510	-68.024155			
41200	8.871162	-0.327122	2.774940	0.472847	-0.214937	-0.526405	-14.061632	-70.361477	-68.185462			
41201	8.709471	-0.102655	3.065976	0.636542	0.141133	-0.601795	-14.002028	-70.332863	-68.346063			
41202	8.833159	-0.176983	3.106423	0.576592	0.117381	-0.466051	-13.989855	-70.225036	-68.483791			
41203	8.665416	0.121240	3.288056	0.838997	0.356200	-0.588560	-13.947908	-70.000550	-68.672772			
41204	8.363100	0.299358	3.222445	0.999687	0.375575	-0.909060	-13.978214	-69.707608	-68.830688			
41205	8.404601	-0.119509	3.068862	0.628418	0.115520	-0.887383	-14.085253	-69.410010	-68.978006			
41206	8.288954	-0.586959	2.751705	0.205342	-0.249798	-1.065208	-14.178722	-69.098538	-69.114529			
41207	8.008396	-1.023719	2.589315	-0.227402	-0.408291	-1.346970	-14.218981	-68.781310	-69.278652			
41208	8.017052	-1.399716	2.231693	-0.549726	-0.832268	-1.433082	-14.249789	-68.504191	-69.366718			
41209	8.203940	-1.527930	1.811577	-0.602471	-1.336702	-1.400127	-14.283505	-68.277565	-69.384542			
41210	8.296520	-1.084471	1.781001	-0.135337	-1.369210	-1.369516	-14.371412	-68.075382	-69.254038			
41211	8.559611	-0.999083	1.870659	-0.004884	-1.391412	-1.104740	-14.590786	-67.884540	-69.038912			
41212	8.512377	-0.823599	2.010643	0.175090	-1.245647	-1.117909	-14.878589	-67.674552	-68.743849			
41213	8.440143	-0.690227	2.084613	0.319049	-1.158123	-1.174697	-15.214972	-67.455094	-68.441131			
41214	8.295406	-0.538472	2.120572	0.475967	-1.077348	-1.314853	-15.559417	-67.229135	-68.108331			
41215	8.248881	-0.369606	2.259726	0.655778	-0.931859	-1.328085	-15.948151	-67.024652	-67.744741			
41216	8.179239	-0.321330	2.285746	0.724229	-0.894700	-1.392312	-16.375907	-66.827393	-67.335277			
41217	8.381080	-0.502374	2.206670	0.619387	-1.081422	-1.221355	-16.884930	-66.624741	-66.877628			
41218	8.338845	-0.502477	2.282831	0.648407	-1.015632	-1.236675	-17.396654	-66.365656	-66.400415			
41219	8.317161	-0.522474	2.709277	0.639385	-0.642899	-1.096843	-17.966255	-66.071822	-65.904304			
41220	8.278522	-0.846546	2.963201	0.347386	-0.464540	-0.998247	-18.570522	-65.767963	-65.382184			
41221	8.389621	-0.999505	2.855476	0.275555	-0.651323	-0.922351	-19.122300	-65.481927	-64.909854			
41222	8.684649	-0.860568	2.645390	0.526543	-0.958976	-0.759251	-19.639012	-65.249104	-64.458775			
41223	9.122720	-0.925093	2.125669	0.618652	-1.625516	-0.562114	-20.096256	-65.068642	-64.107293			
41224	9.821040	-0.877343	1.926355	0.842041	-2.077837	-0.019482	-20.457825	-64.939993	-63.815923			
41225	10.681735	-1.128085	1.767944	0.794103	-2.590358	0.730417	-20.718220	-64.848252	-63.624350			
41226	11.046497	-1.444415	1.816617	0.570603	-2.736264	1.123434	-20.834444	-64.736508	-63.543472			
41227	11.120422	-1.265942	1.957681	0.763894	-2.626920	1.215216	-20.854138	-64.652681	-63.518928			
41228	11.389237	-0.791278	2.342396	1.263633	-2.325176	1.537398	-20.817379	-64.635198	-63.482193			
41229	11.454031	-0.444842	2.285766	1.614704	-2.355981	1.521310	-20.704707	-64.674959	-63.515064			
41230	11.164278	0.110421	3.223449	2.031604	-1.303686	1.554671	-20.538816	-64.792438	-63.592578			
41231	11.364828	0.295077	3.720006	2.189977	-0.870846	1.914638	-20.374230	-65.065599	-63.723754			
41232	12.092904	-0.270403	3.274392	1.755683	-1.580210	2.493942	-20.150249	-65.398378	-64.006597			
41233	12.477304	-1.438220	3.437092	0.607210	-1.672161	3.086912	-19.761486	-65.758490	-64.519064			
41234	13.064591	-2.296133	4.608584	-0.292316	-0.859751	4.200485	-19.154556	-66.169711	-65.201608			
41235	12.836703	-2.611192	5.539390	-0.810433	0.104287	4.386432	-18.282603	-66.569420	-66.104554			
41236	11.904969	-3.256661	6.581787	-1.792072	1.381749	3.990627	-17.198532	-66.992293	-67.115103			
41237	11.662858	-4.144739	6.121405	-2.815627	0.986153	3.669532	-15.884790	-67.435939	-68.238051			
41238	10.902134	-3.948262	4.977748	-2.794880	0.245884	2.489730	-14.258955	-67.751936	-69.474787			
41239	9.608526	-3.039109	4.589680	-2.179575	0.452801	1.034795	-12.476075	-67.978438	-70.752865			
41240	8.377022	-2.139341	4.582071	-1.572579	0.985920	-0.205384	-10.732450	-68.200156	-71.890148			
41241	7.632578	-0.921581	5.773331	-0.709029	2.514935	-0.560236	-9.077539	-68.424513	-72.876102			
41242	7.543411	0.216137	7.146188	0.105936	3.992232	-0.217533	-7.603631	-68.670984	-73.676572			
41243	7.850740	1.056304	7.404133	0.797166	4.276355	0.119426	-6.236378	-68.905679	-74.446248			
41244	7.905673	1.763969	7.232939	1.399597	4.247544	0.083014	-4.960956	-69.180947	-75.254921			
41245	8.052650	2.339960	6.694272	1.956719	3.839571	0.013903	-3.797586	-69.501636	-76.145828			
41246	8.129241	2.434083	6.022621	2.079444	3.246942	-0.147592	-2.747699	-69.771816	-77.119111			
41247	8.680506	2.145832	5.581107	1.848209	2.627341	0.226509	-1.871207	-69.993399	-78.095933			
41248	9.103425	1.747479	5.499254	1.451261	2.355351	0.604310	-1.134050	-70.118949	-78.953096			
41249	9.469605	0.909473	5.241718	0.653124	1.852357	0.869928	-0.531002	-70.151912	-79.668587			
41250	9.826332	0.257628	5.009246	0.039142	1.403220	1.130123	-0.089036	-70.158956	-80.146954			
41251	10.272652	-0.468031	4.287916	-0.557682	0.462111	1.305230	0.179411	-70.192670	-80.417597			
41252	9.971997	-1.229610	3.637087	-1.233609	-0.176138	0.799957	0.321086	-70.118749	-80.498998			
41253	8.630645	-1.213692	3.380405	-1.255018	0.017012	-0.549168	0.389711	-69.968278	-80.437902			
41254	7.959745	-0.959914	3.566108	-1.070750	0.439926	-1.114639	0.301289	-69.906405	-80.218171			
41255	7.816969	-1.216796	3.523991	-1.317238	0.396859	-1.262162	0.088141	-69.882696	-79.901156			
41256	7.781408	-1.145660	3.745261	-1.274932	0.625808	-1.217762	-0.191618	-69.913932	-79.502430			
41257	7.676738	-1.120333	3.932655	-1.274281	0.846208	-1.250367	-0.564751	-69.976287	-79.047980			
41258	7.670273	-1.347392	3.812480	-1.461810	0.709864	-1.295486	-0.973226	-70.079302	-78.584387			
41259	7.575921	-1.614779	3.435993	-1.651478	0.361790	-1.509084	-1.364881	-70.189816	-78.142197			
41260	7.628794	-1.544177	3.087072	-1.506320	0.053931	-1.576120	-1.682465	-70.343743	-77.731969			
41261	7.354763	-1.760156	2.762677	-1.673573	-0.175452	-1.939225	-1.946032	-70.499035	-77.361249			
41262	7.207877	-1.482795	2.824529	-1.417896	0.001731	-2.059000	-2.108591	-70.679882	-76.999753			
41263	7.566271	-1.323506	2.815182	-1.233189	-0.065200	-1.725643	-2.257155	-70.945960	-76.633193			
41264	7.862938	-1.141544	2.807131	-1.034377	-0.097547	-1.450310	-2.331624	-71.217107	-76.303650			
41265	8.448407	-0.629030	2.858962	-0.505726	-0.090295	-0.886276	-2.323555	-71.536229	-76.035060			
41266	8.984962	-0.157675	2.689642	0.015247	-0.270774	-0.436397	-2.226241	-71.831377	-75.835403			
41267	8.972083	-0.234812	2.778809	-0.095650	-0.162213	-0.419093	-1.996438	-72.041142	-75.787043			
41268	8.964463	-0.027572	2.816672	0.077807	-0.056355	-0.416587	-1.639430	-72.180733	-75.806030			
41269	8.597621	-0.117497	2.587229	-0.011840	-0.169705	-0.835067	-1.226928	-72.235321	-75.903089			
41270	8.252296	-0.106461	2.415085	-0.010957	-0.223501	-1.216510	-0.757552	-72.266833	-76.042728			
41271	8.404044	-0.086118	2.422728	-0.003307	-0.255789	-1.069718	-0.274753	-72.319325	-76.237978			
41272	8.575216	-0.059953	2.112331	0.081064	-0.586959	-1.000835	0.251559	-72.349888	-76.471562			
41273	8.577748	0.080173	1.900428	0.244040	-0.756337	-1.062592	0.818461	-72.310260	-76.741277			
41274	8.504707	0.175175	1.673730	0.365184	-0.934278	-1.201310	1.353681	-72.230314	-76.980395			
41275	8.531811	0.560957	1.342493	0.803532	-1.165823	-1.274308	1.856394	-72.165728	-77.213631			
41276	8.462035	0.808495	1.250937	1.046244	-1.177390	-1.366170	2.288712	-72.105804	-77.450729			
41277	8.619244	0.778729	1.301385	1.000443	-1.190554	-1.200309	2.686775	-72.123043	-77.736699			
41278	8.998975	0.523880	1.244668	0.773007	-1.417768	-0.857379	3.141278	-72.201272	-78.149478			
41279	9.200704	0.266843	1.233714	0.513148	-1.548890	-0.670272	3.741326	-72.255474	-78.713229			
41280	9.519769	-0.090711	1.595380	0.062633	-1.405298	-0.262789	4.485920	-72.259586	-79.417099			
41281	9.640268	-0.234238	1.803272	-0.161730	-1.300130	-0.090304	5.389874	-72.193257	-80.233927			
41282	9.671148	-0.340586	1.985310	-0.353232	-1.195620	-0.012992	6.374514	-72.052930	-81.093108			
41283	9.376606	-0.382508	1.743254	-0.390923	-1.373826	-0.375236	7.392204	-71.872512	-81.967866			
41284	9.113918	-0.454929	1.399245	-0.425930	-1.663788	-0.741939	8.348039	-71.680803	-82.813308			
41285	8.999602	-0.671436	1.086237	-0.596791	-2.005305	-0.967013	9.209827	-71.501287	-83.611090			
41286	9.418863	-0.939829	0.996313	-0.854562	-2.318347	-0.621077	9.969918	-71.368304	-84.355148			
41287	9.844414	-1.109678	0.981185	-1.034195	-2.540087	-0.242691	10.545776	-71.190296	-84.926007			
41288	10.021210	-1.135829	1.225642	-1.141881	-2.418276	-0.011421	10.943799	-70.957626	-85.257007			
41289	10.149349	-1.005777	1.594824	-1.121566	-2.133606	0.224941	11.122878	-70.720283	-85.343616			
41290	10.407574	-0.841300	1.918943	-1.041388	-1.921529	0.576290	11.120727	-70.532065	-85.226608			
41291	10.831543	-0.414931	2.216583	-0.688044	-1.709832	1.096517	10.948916	-70.415569	-84.965340			
41292	11.275672	-0.108573	2.322219	-0.389938	-1.694876	1.568023	10.648206	-70.386382	-84.636265			
41293	11.431097	0.063129	2.546043	-0.257426	-1.498124	1.799617	10.291040	-70.403112	-84.288652			
41294	11.062166	0.327330	2.823705	-0.066998	-1.046708	1.560607	9.937331	-70.433543	-83.953477			
41295	10.892602	0.510752	3.260608	0.006785	-0.532624	1.556456	9.622001	-70.517259	-83.650106			
41296	11.049662	0.641001	3.923859	-0.019740	0.070733	1.930272	9.259011	-70.611762	-83.307438			
41297	11.406581	1.397614	3.921299	0.748555	0.180158	2.305359	8.791352	-70.752719	-82.791958			
41298	11.999334	2.817107	3.907933	2.181304	0.396011	2.926100	8.037550	-70.940885	-82.029159			
41299	12.089071	2.679097	3.443116	2.238893	-0.041876	2.842872	6.899083	-71.129329	-81.056696			
41300	12.076364	2.132247	3.546611	1.764925	-0.041303	2.830335	5.571408	-71.299240	-79.966228			
41301	11.911402	1.266704	4.587850	0.747731	0.778539	2.968863	4.019300	-71.440412	-78.822203			
41302	11.722723	0.139470	5.036315	-0.355063	1.012740	2.901596	2.357194	-71.625349	-77.679163			
41303	11.638031	-0.449079	5.329177	-0.888193	1.235685	2.904549	0.674901	-71.864667	-76.574537			
41304	11.149587	-1.099781	5.307977	-1.440486	1.290407	2.432956	-0.951247	-72.077471	-75.569574			
41305	10.494580	-1.626053	5.013916	-1.840027	1.165865	1.727402	-2.399892	-72.223308	-74.689577			
41306	9.535898	-2.131202	5.167892	-2.358248	1.535108	0.876741	-3.664104	-72.281955	-73.929565			
41307	8.696586	-2.457866	5.800665	-2.802233	2.343657	0.285513	-4.795864	-72.337627	-73.165228			
41308	8.672689	-2.301332	6.012733	-2.627779	2.623439	0.330119	-5.931184	-72.426767	-72.265050			
41309	8.479669	-1.932051	5.745543	-2.173243	2.537655	0.060806	-7.077754	-72.427179	-71.231830			
41310	8.243381	-1.394078	5.367052	-1.539547	2.379099	-0.290534	-8.283660	-72.369123	-70.077312			
41311	8.037022	-1.285624	4.894595	-1.306148	2.029672	-0.626954	-9.594380	-72.306303	-68.783990			
41312	8.152956	-1.156801	4.767315	-1.085289	1.920003	-0.556791	-10.881221	-72.288713	-67.442651			
41313	8.717807	-0.486767	5.049104	-0.361939	2.190221	0.026121	-12.159088	-72.311434	-66.108772			
41314	9.828535	-0.317026	5.092543	-0.009445	1.991166	1.080859	-13.381883	-72.352096	-64.952999			
41315	11.000503	-0.544927	4.914660	0.012874	1.480052	2.156892	-14.329647	-72.298667	-64.151635			
41316	11.190045	-0.527490	4.550137	0.175428	1.086372	2.228404	-14.811649	-72.109977	-63.846688			
41317	10.195927	-0.548709	3.675229	0.211856	0.500084	1.025675	-14.852585	-71.830440	-64.001938			
41318	8.937747	-0.366799	3.382791	0.285672	0.568941	-0.270379	-14.594133	-71.565803	-64.438012			
41319	8.538973	-0.090992	3.703281	0.447878	1.000273	-0.569560	-14.200720	-71.425962	-64.964528			
41320	8.025159	0.078918	3.934459	0.497577	1.370196	-0.994282	-13.709906	-71.311287	-65.575390			
41321	7.690928	0.143298	4.130652	0.471158	1.641091	-1.250095	-13.206455	-71.257850	-66.205765			
41322	7.925411	0.319110	3.899376	0.693569	1.373789	-1.109199	-12.652389	-71.245501	-66.861675			
41323	8.024334	0.578166	3.791571	0.955170	1.276244	-1.062888	-12.028227	-71.198067	-67.571806			
41324	7.609732	0.873599	3.812604	1.167062	1.451162	-1.461693	-11.308233	-71.092798	-68.346332			
41325	7.268874	1.418231	3.746559	1.648129	1.566448	-1.830557	-10.603276	-70.982052	-69.109623			
41326	7.329308	1.603751	3.541042	1.850571	1.363181	-1.841064	-10.009002	-70.884994	-69.822907			
41327	7.353424	1.541261	3.210013	1.829302	1.008275	-1.913987	-9.512441	-70.789573	-70.505337			
41328	7.347729	1.333073	3.089022	1.632755	0.834653	-1.942130	-9.163843	-70.714956	-71.099661			
41329	7.483057	0.880027	2.841776	1.233401	0.466106	-1.868649	-9.015260	-70.725858	-71.559492			
41330	7.844237	0.214892	2.766651	0.623781	0.167760	-1.517186	-8.987852	-70.801558	-71.920828			
41331	8.487665	-0.028352	2.873905	0.431615	0.036783	-0.862105	-9.036788	-70.910292	-72.209236			
41332	8.686635	-0.146086	2.936324	0.326157	0.026359	-0.647869	-9.117640	-70.976286	-72.476553			
41333	8.731322	-0.316763	3.072480	0.148607	0.120334	-0.553104	-9.263963	-70.992321	-72.704343			
41334	8.940603	-0.466863	2.967658	0.042469	-0.064390	-0.381177	-9.446387	-70.963088	-72.895654			
41335	8.728452	-0.532955	2.857576	-0.016866	-0.120462	-0.613730	-9.665899	-70.831507	-73.049418			
41336	8.664282	-0.661372	2.778924	-0.122818	-0.210008	-0.692909	-9.948138	-70.665827	-73.139484			
41337	8.477968	-0.689840	2.568000	-0.125742	-0.376487	-0.936382	-10.237438	-70.449728	-73.203167			
41338	8.182979	-0.636217	2.425845	-0.064715	-0.436866	-1.265437	-10.559622	-70.209794	-73.232877			
41339	8.082389	-0.811327	1.937743	-0.181641	-0.909439	-1.513413	-10.909629	-69.998626	-73.218813			
41340	8.263349	-0.839973	1.696321	-0.151863	-1.221420	-1.425138	-11.244064	-69.796085	-73.165519			
41341	8.146999	-0.912127	1.623468	-0.210086	-1.281369	-1.557077	-11.576924	-69.598645	-73.077606			
41342	8.144407	-0.929358	1.769220	-0.218067	-1.165840	-1.510977	-11.943002	-69.419512	-72.921501			
41343	8.308523	-0.810749	1.964628	-0.074251	-1.043124	-1.300641	-12.361261	-69.262004	-72.703748			
41344	8.581573	-0.665401	1.985392	0.123221	-1.118094	-1.051265	-12.807343	-69.095176	-72.473380			
41345	8.809387	-0.464919	2.067211	0.370632	-1.121786	-0.829431	-13.272411	-68.874621	-72.254338			
41346	8.821670	-0.429365	2.087017	0.438508	-1.131380	-0.818835	-13.766621	-68.640626	-72.016614			
41347	8.567718	-0.341816	2.278727	0.520780	-0.882672	-0.999926	-14.278304	-68.426771	-71.734536			
41348	8.441711	-0.371669	2.022067	0.522865	-1.098290	-1.209801	-14.845253	-68.289740	-71.376785			
41349	8.239436	-0.302346	1.737708	0.612546	-1.292797	-1.508909	-15.461912	-68.218121	-70.944070			
41350	8.244469	-0.302984	1.709556	0.645584	-1.318410	-1.516268	-16.128453	-68.183078	-70.463535			
41351	8.503902	-0.732117	1.877222	0.279772	-1.280184	-1.172140	-16.826110	-68.144441	-69.991935			
41352	9.211014	-1.249595	2.131989	-0.116158	-1.318964	-0.368304	-17.497116	-68.128208	-69.548490			
41353	9.994250	-1.638148	2.137262	-0.366677	-1.604396	0.406306	-18.047604	-68.102250	-69.242192			
41354	10.853126	-1.884258	2.297133	-0.474757	-1.763268	1.290602	-18.424840	-68.074029	-69.077910			
41355	11.264241	-1.736689	2.411476	-0.259318	-1.790666	1.695600	-18.595475	-68.007853	-69.087463			
41356	11.296093	-1.499646	2.234892	-0.009443	-1.964509	1.632224	-18.632398	-67.907699	-69.209529			
41357	11.193486	-1.009683	1.862696	0.468742	-2.269234	1.341415	-18.549150	-67.777140	-69.401258			
41358	10.917339	-0.326965	1.500830	1.109856	-2.499855	0.867506	-18.375030	-67.618161	-69.633308			
41359	10.450749	0.320333	1.627597	1.684021	-2.214740	0.396559	-18.158804	-67.422754	-69.897279			
41360	10.154381	0.924696	2.541680	2.231907	-1.259850	0.378383	-17.976111	-67.260110	-70.145459			
41361	10.499794	0.973228	3.369175	2.314943	-0.636900	0.993772	-17.913577	-67.233713	-70.363517			
41362	10.760714	0.114311	3.671515	1.487682	-0.499156	1.448915	-17.862006	-67.317050	-70.699261			
41363	11.031694	-1.518543	3.467639	-0.120015	-0.841619	1.819415	-17.683611	-67.545744	-71.249062			
41364	11.479919	-3.128338	3.600275	-1.711340	-0.895662	2.467601	-17.179956	-67.848030	-72.071736			
41365	11.763674	-4.245986	3.943489	-2.865612	-0.652923	2.967154	-16.310107	-68.191026	-73.151242			
41366	12.224738	-5.303008	5.811739	-3.957879	0.977996	4.141484	-15.200255	-68.675308	-74.320145			
41367	13.422747	-5.696925	7.498251	-4.372826	2.233840	5.831248	-13.734734	-69.295971	-75.567678			
41368	13.617221	-4.147773	7.086160	-3.018652	1.912566	5.681555	-11.794932	-69.781177	-77.003511			
41369	12.274148	-1.525513	5.894566	-0.704903	1.360462	3.802638	-9.693887	-69.944952	-78.473175			
41370	9.762067	0.035621	5.428222	0.528096	1.819119	1.195272	-7.852051	-69.938462	-79.711895			
41371	8.665432	0.846006	6.326247	1.112487	3.074376	0.440903	-6.367333	-70.079129	-80.573464			
41372	8.844948	1.992386	7.597016	2.089704	4.312414	1.001755	-5.158910	-70.325727	-81.241657			
41373	9.058211	2.362734	7.880167	2.350904	4.583095	1.286787	-4.155455	-70.588790	-81.973014			
41374	8.683633	2.781163	7.489276	2.702336	4.405485	0.794781	-3.280915	-70.772557	-82.842429			
41375	8.356753	3.050205	6.566374	2.974313	3.676186	0.182081	-2.593056	-70.911551	-83.770614			
41376	8.188145	2.582471	5.443680	2.549430	2.638143	-0.331701	-2.066438	-70.979911	-84.708082			
41377	8.103686	1.755548	4.595484	1.756296	1.800277	-0.672418	-1.618371	-70.948104	-85.596151			
41378	8.025201	0.818437	4.356219	0.821237	1.533887	-0.811406	-1.232766	-70.888980	-86.401115			
41379	7.957308	-0.384191	4.249950	-0.385410	1.394382	-0.900023	-0.885312	-70.856879	-87.104065			
41380	8.578769	-0.897938	4.527077	-0.907452	1.439696	-0.221036	-0.553172	-70.923271	-87.702012			
41381	9.405886	-1.386139	4.117835	-1.385623	0.788610	0.424827	-0.275416	-71.044442	-88.198517			
41382	9.799368	-1.647462	3.636292	-1.643850	0.216504	0.637922	-0.061135	-71.075680	-88.537195			
41383	8.930040	-1.731643	3.286601	-1.735684	0.160637	-0.299144	0.041157	-70.948198	-88.702820			
41384	8.252697	-1.598775	3.590700	-1.614048	0.652810	-0.839123	-0.058681	-70.818491	-88.635396			
41385	8.076908	-1.460480	3.680527	-1.467655	0.783160	-0.972532	-0.370928	-70.733465	-88.393641			
41386	8.085073	-1.428388	3.879076	-1.417355	0.962478	-0.895254	-0.870056	-70.707912	-88.018517			
41387	7.770533	-1.670790	4.105550	-1.636940	1.276774	-1.111052	-1.469956	-70.701232	-87.588151			
41388	7.216606	-2.096883	3.961598	-2.036816	1.324247	-1.672156	-2.060238	-70.743172	-87.168585			
41389	6.916771	-2.446074	3.451527	-2.358357	0.952612	-2.114074	-2.564913	-70.856201	-86.802429			
41390	7.056648	-2.518889	3.001245	-2.405186	0.504633	-2.124456	-2.961956	-71.038092	-86.481785			
41391	7.452621	-2.254230	2.873345	-2.117362	0.288717	-1.793177	-3.285025	-71.264795	-86.175585			
41392	7.822142	-2.115436	3.002373	-1.959480	0.329689	-1.402763	-3.598336	-71.536098	-85.809922			
41393	8.347847	-2.019119	3.041863	-1.839092	0.242860	-0.892210	-3.943480	-71.825890	-85.363434			
41394	9.119549	-1.651222	2.978741	-1.438064	-0.007332	-0.184741	-4.291254	-72.121404	-84.814351			
41395	9.577461	-1.099468	2.851383	-0.857464	-0.215958	0.201550	-4.650244	-72.351345	-84.251096			
41396	9.652186	-0.274599	2.833523	-0.015150	-0.205131	0.248455	-4.960004	-72.480669	-83.730260			
41397	9.502437	0.300799	2.847687	0.569781	-0.116048	0.094783	-5.258824	-72.499509	-83.290519			
41398	8.853087	0.255428	2.685162	0.519778	-0.080415	-0.572783	-5.522733	-72.417738	-82.931142			
41399	8.697658	0.318534	2.427746	0.594949	-0.289278	-0.801194	-5.687115	-72.318624	-82.656083			
41400	8.846600	0.336085	2.202160	0.631490	-0.563379	-0.729263	-5.737274	-72.203351	-82.500411			
41401	9.022030	0.097927	2.244429	0.402616	-0.605839	-0.543659	-5.659247	-72.044848	-82.500523			
41402	8.960276	-0.291104	2.159574	0.010497	-0.709712	-0.618604	-5.435975	-71.864882	-82.670498			
41403	8.870814	-0.681389	1.961819	-0.387533	-0.917925	-0.756669	-5.073699	-71.649765	-82.987734			
41404	8.791090	-0.779486	1.798388	-0.499079	-1.090330	-0.885930	-4.625214	-71.404486	-83.386052			
41405	8.431578	-0.646612	1.657100	-0.392804	-1.142980	-1.280702	-4.173887	-71.186363	-83.808082			
41406	8.291190	-0.491006	1.379694	-0.251689	-1.382680	-1.511287	-3.772141	-71.046916	-84.228174			
41407	8.050399	-0.262541	1.209690	-0.043885	-1.475297	-1.802523	-3.393677	-70.950947	-84.652023			
41408	8.179186	-0.370184	1.300177	-0.168399	-1.445344	-1.651244	-3.017999	-70.928840	-85.081645			
41409	8.422188	-0.805713	1.357276	-0.619893	-1.487741	-1.396813	-2.550830	-70.947449	-85.576992			
41410	8.663083	-1.018283	1.572227	-0.859660	-1.368923	-1.098058	-1.937404	-70.972614	-86.157053			
41411	8.618927	-1.454739	1.720214	-1.334183	-1.231309	-1.091160	-1.205715	-70.965666	-86.810933			
41412	8.560530	-1.675461	1.537832	-1.588024	-1.400426	-1.212013	-0.318575	-70.921236	-87.546431			
41413	8.670565	-1.746396	1.112516	-1.684432	-1.852892	-1.257245	0.653956	-70.871537	-88.341076			
41414	8.985645	-1.903953	1.006710	-1.880182	-2.078018	-1.007755	1.676216	-70.778239	-89.206813			
41415	9.492835	-1.779790	1.395244	-1.820184	-1.896996	-0.415013	2.670166	-70.614527	-90.095779			
41416	9.921364	-2.069775	1.599885	-2.170920	-1.891771	0.035409	3.559880	-70.396073	-90.926776			
41417	9.929809	-1.826280	1.249127	-1.959647	-2.257295	-0.088454	4.420662	-70.127947	-91.616568			
41418	10.037043	-1.352987	1.086096	-1.521644	-2.477006	-0.050461	5.209731	-69.838106	-92.139486			
41419	9.969473	-0.627447	1.279050	-0.841235	-2.292709	-0.042554	5.866176	-69.524998	-92.477459			
41420	9.743998	0.073002	1.870092	-0.201234	-1.677164	-0.035447	6.347669	-69.229345	-92.610917			
41421	9.792338	0.542941	2.468003	0.208974	-1.149142	0.232780	6.613467	-69.047208	-92.575139			
41422	10.051798	0.640127	2.355401	0.304504	-1.363636	0.436414	6.666784	-68.950737	-92.389861			
41423	10.303533	0.274600	2.197391	-0.044376	-1.640476	0.597575	6.535352	-68.875791	-92.108431			
41424	10.457598	-0.373327	1.895097	-0.652823	-2.037072	0.604425	6.318548	-68.800646	-91.783668			
41425	10.574992	-1.047753	1.628242	-1.286751	-2.390300	0.589721	6.130987	-68.745619	-91.474675			
41426	10.567788	-1.769104	1.566010	-1.985029	-2.513325	0.531542	6.053200	-68.696067	-91.216591			
41427	10.641352	-2.421774	1.863130	-2.651321	-2.334326	0.679976	6.111901	-68.631795	-90.998634			
41428	10.923055	-2.233792	2.861796	-2.552392	-1.519751	1.307944	6.251127	-68.594668	-90.731166			
41429	11.826300	-1.473738	4.176713	-1.924724	-0.571798	2.655138	6.237940	-68.694454	-90.298739			
41430	12.883863	-0.132788	4.950252	-0.654878	-0.074292	3.974326	5.877891	-68.983066	-89.551380			
41431	13.312272	1.529467	5.011132	1.043900	0.075980	4.455135	5.043981	-69.299357	-88.431395			
41432	12.899496	2.715065	4.927751	2.311812	0.350280	4.064739	3.858040	-69.510452	-87.052179			
41433	12.183093	3.570143	6.142392	3.115279	1.882957	3.812686	2.364729	-69.626245	-85.495787			
41434	11.984747	4.080174	8.183259	3.518786	3.964192	4.299308	0.489590	-69.830296	-83.767130			
41435	12.012544	3.263603	7.808895	2.921967	3.585303	4.134896	-1.694258	-70.147231	-81.965825			
41436	11.358509	1.811093	6.229481	1.782593	2.226383	2.953106	-3.721989	-70.249977	-80.396256			
41437	9.515035	0.462218	5.959969	0.505975	2.457623	1.140556	-5.341903	-70.118767	-79.282918			
41438	7.946648	-0.946083	6.129771	-0.896323	3.001522	-0.231192	-6.622566	-70.052876	-78.542201			
41439	7.681802	-1.734429	6.252158	-1.623774	3.149898	-0.402647	-7.531428	-70.068649	-78.054634			
41440	7.925514	-2.433405	6.254940	-2.247939	3.026885	-0.135699	-8.052472	-70.029024	-77.736961			
41441	7.764861	-3.261237	5.970196	-3.038233	2.738660	-0.334249	-8.300239	-69.899735	-77.461432			
41442	7.520665	-4.084090	5.590631	-3.841449	2.374571	-0.642084	-8.493878	-69.812772	-77.094349			
41443	7.605362	-4.856573	4.817488	-4.549877	1.530609	-0.779869	-8.693959	-69.791446	-76.606447			
41444	7.713192	-4.452800	4.527019	-4.117237	1.226700	-0.792815	-8.884409	-69.733296	-75.966197			
41445	7.742874	-2.817473	4.718251	-2.501390	1.520065	-0.780275	-9.138918	-69.631937	-75.180553			
41446	7.463759	-0.996505	4.903582	-0.728373	1.959684	-1.073412	-9.561572	-69.531709	-74.294919			
41447	7.990934	-0.102208	4.731328	0.237872	1.725580	-0.690369	-10.169203	-69.551859	-73.311456			
41448	9.376051	0.792470	4.424790	1.315083	1.117623	0.441011	-10.879615	-69.698979	-72.254768			
41449	10.764244	1.304873	4.117094	2.032599	0.489014	1.595692	-11.644491	-69.844650	-71.243777			
41450	11.366344	1.427516	3.484657	2.328269	-0.245811	1.930095	-12.275689	-69.815499	-70.413143			
41451	10.998275	1.666016	3.563784	2.557175	-0.022756	1.584608	-12.700145	-69.579478	-69.838024			
41452	9.559978	1.152978	3.684426	1.905048	0.445844	0.310017	-12.930468	-69.183275	-69.531742			
41453	8.215348	1.161263	4.241537	1.713666	1.358594	-0.754629	-12.952995	-68.794845	-69.364665			
41454	7.768216	1.058509	4.282631	1.563823	1.489282	-1.144184	-12.884074	-68.531032	-69.285456			
41455	7.908995	0.936079	4.044108	1.488540	1.171690	-1.083736	-12.651972	-68.361186	-69.338888			
41456	7.356874	1.217959	3.754693	1.717414	1.112508	-1.718401	-12.253147	-68.186309	-69.550865			
41457	6.745750	1.667927	3.520348	2.093134	1.157495	-2.399260	-11.799429	-68.072961	-69.872465			
41458	6.773477	1.942260	3.380728	2.365307	1.049454	-2.438027	-11.369743	-68.056279	-70.256259			
41459	7.290895	1.780793	3.360525	2.255373	0.816543	-1.947065	-10.997086	-68.094702	-70.681766			
41460	7.855959	1.548676	3.592419	2.050257	0.790984	-1.316175	-10.674657	-68.144483	-71.110381			
41461	8.431518	1.089657	3.654283	1.644777	0.573106	-0.724350	-10.478935	-68.214109	-71.460628			
41462	8.455303	0.465920	3.314284	1.060011	0.159772	-0.782486	-10.319302	-68.295972	-71.770291			
41463	8.175465	-0.194908	3.106864	0.387462	-0.021705	-1.073226	-10.206187	-68.424324	-72.033373			
41464	8.141586	-0.421520	3.133713	0.144593	-0.002044	-1.079858	-10.089848	-68.556050	-72.268229			
41465	8.304520	-0.492228	3.252515	0.070637	0.053853	-0.880818	-10.042477	-68.623256	-72.459641			
41466	8.236861	-0.568389	3.476281	-0.039119	0.276199	-0.858601	-10.016476	-68.594322	-72.654699			
41467	7.983490	-0.781708	3.412503	-0.267910	0.267552	-1.103555	-10.014576	-68.509136	-72.850781			
41468	8.035844	-0.936269	3.032441	-0.371305	-0.135361	-1.181877	-10.022100	-68.422025	-73.010984			
41469	8.271077	-0.691962	2.714749	-0.068808	-0.493329	-1.094243	-10.008590	-68.318150	-73.128062			
41470	8.263554	-0.564753	2.540416	0.077545	-0.654244	-1.174118	-9.993446	-68.164221	-73.213842			
41471	8.260026	-0.575131	2.336423	0.092551	-0.864375	-1.253369	-10.000805	-68.024666	-73.220472			
41472	8.346265	-0.707864	2.128098	-0.001625	-1.121246	-1.243394	-10.075208	-67.929115	-73.110869			
41473	8.777524	-0.578766	2.140668	0.183053	-1.257160	-0.848961	-10.223107	-67.868910	-72.874362			
41474	9.148203	-0.316760	2.292822	0.484868	-1.220927	-0.468106	-10.472757	-67.800994	-72.543185			
41475	9.372602	-0.013750	2.742781	0.789909	-0.853173	-0.116463	-10.849819	-67.690007	-72.124378			
41476	9.511112	0.273504	2.836967	1.115453	-0.786405	0.022028	-11.391689	-67.568601	-71.617645			
41477	9.199984	0.371447	2.665159	1.234779	-0.830436	-0.343460	-12.022031	-67.401793	-71.081544			
41478	8.828092	0.445688	2.661750	1.308784	-0.704387	-0.701734	-12.683296	-67.206778	-70.553359			
41479	8.395255	0.399054	2.385569	1.278624	-0.824214	-1.209427	-13.333020	-67.008909	-70.021315			
41480	8.327391	0.340160	2.094895	1.281678	-1.089414	-1.385349	-13.992648	-66.829537	-69.468145			
41481	8.413817	0.115998	1.897074	1.133269	-1.347020	-1.368416	-14.617462	-66.629737	-68.931163			
41482	8.504817	-0.106177	2.347511	0.933160	-1.011964	-1.097245	-15.203634	-66.421122	-68.424375			
41483	8.808491	-0.202239	2.795496	0.889704	-0.741331	-0.641869	-15.736167	-66.245723	-67.955184			
41484	9.317561	-0.296570	2.930400	0.903439	-0.829950	-0.117999	-16.246464	-66.126425	-67.556356			
41485	9.529184	-0.538330	2.631837	0.756423	-1.223871	-0.017199	-16.650420	-65.993898	-67.301648			
41486	9.645849	-0.833605	2.532011	0.518493	-1.410321	0.081274	-16.917936	-65.864251	-67.205961			
41487	9.854917	-1.345397	2.391196	0.073855	-1.697780	0.274898	-17.026384	-65.752918	-67.253585			
41488	10.186439	-1.394691	2.084976	0.103090	-2.125421	0.459983	-16.985117	-65.670054	-67.401873			
41489	10.644449	-1.189029	1.860930	0.388782	-2.497000	0.760626	-16.856146	-65.584876	-67.609234			
41490	10.663061	-0.774845	1.666325	0.805549	-2.654913	0.645819	-16.703537	-65.464515	-67.836993			
41491	10.370161	-0.243430	2.107560	1.252293	-2.101932	0.485608	-16.616178	-65.326468	-68.025685			
41492	9.958055	0.396265	2.778271	1.780485	-1.280859	0.298094	-16.620069	-65.191596	-68.161760			
41493	9.930175	0.798882	3.357968	2.146817	-0.713576	0.453982	-16.731169	-65.139261	-68.266210			
41494	10.503921	0.576800	3.594828	2.010248	-0.748873	1.095380	-16.903545	-65.215481	-68.417350			
41495	11.172328	-0.411059	3.264918	1.148439	-1.395069	1.693151	-17.022868	-65.426043	-68.711165			
41496	11.800643	-1.710117	3.854000	-0.093560	-1.183069	2.662256	-16.891936	-65.708107	-69.226335			
41497	11.977175	-2.207207	4.412800	-0.635521	-0.728262	3.104834	-16.427779	-66.030096	-69.953101			
41498	12.158213	-2.528266	5.424330	-1.041900	0.169800	3.697389	-15.780907	-66.420858	-70.825564			
41499	12.509604	-3.197784	6.792790	-1.807019	1.331145	4.603230	-14.914048	-66.930523	-71.838424			
41500	13.050215	-3.882327	6.954406	-2.565928	1.336622	5.199650	-13.703105	-67.538882	-73.025717			
41501	13.150940	-3.732627	6.597423	-2.574225	1.079094	5.107456	-12.040951	-68.069975	-74.426898			
41502	11.711228	-1.981313	5.843129	-1.140954	1.084952	3.330314	-10.038816	-68.437075	-75.935703			
41503	9.419968	-0.176645	5.660364	0.289669	1.905008	1.008216	-8.196581	-68.694423	-77.314454			
41504	8.375606	0.907543	6.420150	1.104258	3.105656	0.253442	-6.697706	-68.991238	-78.436681			
41505	8.075110	1.909084	7.281339	1.906313	4.145502	0.239657	-5.407299	-69.289751	-79.451254			
41506	7.938812	2.472533	7.459059	2.355684	4.449826	0.158520	-4.287411	-69.551756	-80.513944			
41507	7.823286	2.988250	6.768687	2.855377	3.916909	-0.197441	-3.278347	-69.744957	-81.652348			
41508	7.694158	3.396214	5.833716	3.291904	3.125405	-0.638719	-2.462709	-69.858986	-82.823506			
41509	7.238598	3.064588	4.875141	2.995666	2.335213	-1.378906	-1.795504	-69.890479	-84.032651			
41510	6.930240	2.330852	4.442909	2.274196	1.951805	-1.799014	-1.214102	-69.896991	-85.255025			
41511	7.370211	1.039726	4.361207	0.997667	1.625564	-1.399402	-0.715688	-69.948288	-86.442421			
41512	8.327117	-0.346933	4.531849	-0.382834	1.395437	-0.436919	-0.238621	-70.057251	-87.565887			
41513	9.797040	-1.178331	4.693143	-1.216573	1.044497	0.995866	0.304488	-70.215126	-88.633194			
41514	10.639450	-1.791704	4.248398	-1.842105	0.361978	1.629881	0.899883	-70.328868	-89.641548			
41515	10.769238	-1.875288	3.539866	-1.949551	-0.327226	1.506141	1.494577	-70.327328	-90.512747			
41516	10.215469	-1.831739	3.131096	-1.934396	-0.526281	0.840757	1.985278	-70.210057	-91.213453			
41517	8.947625	-1.828340	3.204796	-1.948453	-0.045996	-0.332451	2.282094	-70.030301	-91.678097			
41518	8.238210	-1.971372	3.844970	-2.103559	0.780380	-0.784717	2.405997	-69.928792	-91.953832			
41519	8.268352	-2.026343	4.198840	-2.164070	1.094367	-0.635481	2.406112	-69.869012	-92.065685			
41520	8.365348	-1.975902	4.404727	-2.110689	1.248763	-0.470823	2.270145	-69.805036	-92.054300			
41521	8.199152	-2.053421	4.199164	-2.170871	1.101959	-0.694104	1.972865	-69.678245	-91.914802			
41522	7.635073	-2.355510	3.738680	-2.444229	0.848714	-1.379073	1.552028	-69.504408	-91.669106			
41523	7.154915	-2.418126	3.169375	-2.479477	0.466909	-2.020434	1.094346	-69.382113	-91.329171			
41524	7.084334	-2.066612	2.691706	-2.107641	0.034957	-2.245617	0.667184	-69.364880	-90.929661			
41525	6.933538	-1.460650	2.853829	-1.480710	0.238350	-2.322531	0.243051	-69.432389	-90.447643			
41526	7.184631	-1.467564	2.915267	-1.468276	0.223671	-2.062494	-0.197249	-69.642332	-89.918044			
41527	7.984575	-1.226108	2.792034	-1.206314	-0.137087	-1.352305	-0.591718	-69.947897	-89.390223			
41528	8.585776	-1.062989	2.725247	-1.022351	-0.363957	-0.807432	-0.906941	-70.227374	-88.943530			
41529	8.847561	-0.840201	2.901148	-0.784646	-0.251519	-0.500172	-1.087162	-70.411092	-88.628369			
41530	9.413611	-0.555097	3.020148	-0.488631	-0.302918	0.072400	-1.150222	-70.537344	-88.423110			
41531	9.934471	-0.253153	3.006094	-0.180706	-0.473889	0.557326	-1.103633	-70.573225	-88.305761			
41532	9.860139	-0.252712	2.828018	-0.184738	-0.623611	0.427471	-0.914101	-70.471250	-88.304409			
41533	9.551200	-0.230495	2.865323	-0.177968	-0.512023	0.146964	-0.604072	-70.277138	-88.381197			
41534	9.026264	-0.307356	2.863538	-0.276941	-0.376822	-0.349660	-0.222698	-70.026683	-88.547731			
41535	8.675969	-0.497229	2.789767	-0.488362	-0.375491	-0.706493	0.205123	-69.746241	-88.770767			
41536	8.474821	-0.583577	2.504752	-0.589769	-0.621042	-0.997745	0.617543	-69.467554	-88.991386			
41537	8.277705	-0.499065	2.201365	-0.515365	-0.876401	-1.293202	0.956621	-69.206011	-89.163956			
41538	7.968886	-0.312318	1.576338	-0.324275	-1.378826	-1.807742	1.224509	-69.017176	-89.324677			
41539	7.665680	-0.138611	1.286658	-0.152943	-1.555583	-2.197302	1.471325	-68.914902	-89.499603			
41540	7.504130	-0.082252	1.118222	-0.102451	-1.659377	-2.409640	1.735407	-68.918471	-89.728271			
41541	8.165715	-0.194329	1.280536	-0.232766	-1.743583	-1.734189	2.064420	-69.004526	-90.013267			
41542	8.680952	-0.484413	1.432775	-0.547529	-1.785972	-1.201248	2.507272	-69.057255	-90.385790			
41543	8.828084	-0.779800	1.757398	-0.880292	-1.540847	-0.953657	3.034110	-69.074412	-90.830156			
41544	8.900694	-1.124410	2.355287	-1.278870	-1.019472	-0.682566	3.612210	-69.074261	-91.351359			
41545	8.674945	-1.214379	2.313240	-1.397440	-0.984827	-0.915629	4.195161	-69.026229	-91.875144			
41546	8.317662	-0.890989	2.156971	-1.095381	-1.000965	-1.302224	4.790200	-68.939715	-92.386480			
41547	8.485598	-0.687716	2.217607	-0.927998	-1.006806	-1.122394	5.338358	-68.892334	-92.866084			
41548	8.794539	-0.357111	1.984248	-0.621292	-1.327596	-0.909873	5.848287	-68.869469	-93.300755			
41549	9.404465	0.028782	2.136246	-0.283068	-1.392087	-0.273807	6.312935	-68.861721	-93.683738			
41550	9.973455	0.147969	2.599232	-0.225601	-1.161607	0.426816	6.680065	-68.841371	-93.998935			
41551	10.340095	0.155529	2.812766	-0.258610	-1.097168	0.844832	6.951481	-68.816732	-94.200933			
41552	10.746741	0.036651	2.861094	-0.403882	-1.208048	1.235260	7.086112	-68.784375	-94.279328			
41553	10.987340	-0.206686	2.906712	-0.658814	-1.270911	1.464018	7.055143	-68.730372	-94.202716			
41554	10.801012	-0.488107	2.758378	-0.920506	-1.364385	1.223610	6.908798	-68.678943	-94.045936			
41555	10.511745	-0.549673	2.697869	-0.959024	-1.327058	0.929593	6.698242	-68.651417	-93.840393			
41556	10.320445	-0.784723	2.911231	-1.184725	-1.073278	0.819674	6.424993	-68.640215	-93.612401			
41557	10.245959	-1.061533	3.479227	-1.469647	-0.530061	0.946991	6.101015	-68.650555	-93.321607			
41558	10.343621	-0.842374	3.925912	-1.250614	-0.133467	1.211420	5.692794	-68.735257	-92.889663			
41559	10.883561	0.013248	4.350090	-0.390227	0.132845	1.900770	5.086246	-68.984574	-92.206065			
41560	11.840543	0.843591	4.517923	0.478505	0.052713	2.879390	4.141965	-69.399651	-91.204021			
41561	13.087315	1.743821	5.139238	1.432857	0.341270	4.278396	2.772948	-69.872099	-89.815473			
41562	13.997152	1.802343	6.706533	1.559598	1.618934	5.649820	0.830754	-70.307992	-88.066582			
41563	14.186025	0.568446	7.148195	0.505477	2.030318	5.944230	-1.485305	-70.703866	-86.111598			
41564	13.404254	-0.849214	5.798375	-0.676909	1.056121	4.762609	-3.718128	-70.975343	-84.280261			
41565	11.796341	-1.784719	4.952845	-1.481010	0.808788	2.994359	-5.507401	-71.081912	-82.848837			
41566	10.070234	-2.404623	4.333069	-2.049546	0.792950	1.193550	-6.827638	-71.127285	-81.825418			
41567	9.373884	-2.980531	4.518679	-2.589972	1.201031	0.628624	-7.752826	-71.180820	-81.122793			
41568	9.327174	-3.410384	5.235760	-2.985763	1.901111	0.841466	-8.289070	-71.194682	-80.641890			
41569	8.992543	-3.053399	5.639484	-2.630077	2.394953	0.643876	-8.563100	-71.131396	-80.180190			
41570	8.737115	-2.367473	5.971676	-1.960323	2.787504	0.482452	-8.759831	-71.018462	-79.633310			
41571	8.424153	-1.494920	5.603280	-1.102978	2.540728	0.032410	-9.025040	-70.882476	-78.920036			
41572	7.721654	-0.644999	5.014685	-0.281837	2.219275	-0.858228	-9.404414	-70.693527	-78.086517			
41573	7.014131	0.251354	4.913385	0.576954	2.377480	-1.601887	-9.963784	-70.497583	-77.105153			
41574	6.709126	1.260694	5.200615	1.564974	2.800591	-1.853062	-10.733535	-70.349506	-75.957881			
41575	7.602257	1.623021	5.343731	2.022117	2.680035	-0.997233	-11.803312	-70.337438	-74.658075			
41576	8.892051	1.729894	5.059014	2.306078	2.027786	0.098136	-12.999483	-70.363804	-73.341477			
41577	10.005644	1.385809	4.779069	2.153950	1.400192	1.062619	-14.244059	-70.299585	-72.177627			
41578	10.352693	0.540532	4.251226	1.450120	0.723919	1.274060	-15.223637	-70.115543	-71.351595			
41579	10.279668	-0.030600	3.782406	0.957313	0.238389	1.096277	-15.832004	-69.880833	-70.914760			
41580	9.004094	-0.531536	3.580910	0.364426	0.387942	-0.122713	-16.026398	-69.573376	-70.826608			
41581	8.380885	-0.511499	4.068903	0.315050	1.016255	-0.543128	-16.012034	-69.381520	-70.872923			
41582	8.118338	-0.417345	4.062617	0.380266	1.079192	-0.797303	-15.794483	-69.266826	-71.040775			
41583	7.764731	0.025265	4.017609	0.769301	1.168987	-1.182828	-15.435716	-69.193765	-71.285522			
41584	7.866237	0.458146	3.948095	1.193545	1.089033	-1.148714	-14.998620	-69.163849	-71.590987			
41585	8.224973	0.974857	3.714511	1.731624	0.778721	-0.936138	-14.503751	-69.143091	-71.949510			
41586	8.177672	1.369372	3.523298	2.100156	0.635500	-1.074923	-13.980965	-69.102290	-72.386009			
41587	7.796157	1.589127	3.565899	2.250483	0.808551	-1.428027	-13.455911	-69.053504	-72.871434			
41588	7.629151	1.751651	3.568995	2.372173	0.868027	-1.588989	-13.015799	-69.029758	-73.332710			
41589	8.090047	1.656159	3.518026	2.310180	0.644251	-1.163051	-12.727347	-69.028930	-73.714902			
41590	8.168884	1.302075	3.317543	1.964590	0.391640	-1.128268	-12.545870	-68.996737	-74.045095			
41591	8.113205	0.814128	3.204897	1.474350	0.259028	-1.180338	-12.484962	-68.980462	-74.287744			
41592	8.313455	0.429288	3.077968	1.113906	0.038786	-1.007608	-12.443276	-68.988707	-74.498804			
41593	8.494805	0.305076	3.205091	1.000857	0.083620	-0.783917	-12.400388	-68.991490	-74.719245			
41594	9.000003	0.019395	3.382985	0.756631	0.052326	-0.227815	-12.359811	-68.973704	-74.977930			
41595	9.216372	-0.331887	3.403380	0.425887	-0.036924	0.008305	-12.296005	-68.883572	-75.285511			
41596	9.087106	-0.583530	3.166317	0.171571	-0.249079	-0.176814	-12.278549	-68.736997	-75.583918			
41597	9.125815	-1.047965	2.788022	-0.274361	-0.663391	-0.239997	-12.344232	-68.590296	-75.833386			
41598	8.875761	-1.365735	2.476951	-0.601885	-0.902649	-0.560523	-12.416674	-68.412029	-76.047603			
41599	8.603230	-1.483777	2.431119	-0.736067	-0.877252	-0.822911	-12.489494	-68.224394	-76.221985			
41600	8.705220	-1.866525	2.254946	-1.100712	-1.114332	-0.763035	-12.546056	-68.073409	-76.334951			
41601	8.814030	-1.664082	2.145358	-0.884343	-1.270067	-0.720731	-12.528252	-67.921319	-76.385059			
41602	8.802623	-1.364782	2.128354	-0.581293	-1.294514	-0.764761	-12.559140	-67.768856	-76.337049			
41603	8.690851	-1.205667	2.086441	-0.422710	-1.310672	-0.899711	-12.648081	-67.600392	-76.221816			
41604	8.846505	-0.879619	2.015078	-0.068316	-1.446521	-0.812813	-12.849928	-67.430658	-76.011487			
41605	8.668008	-0.657053	1.981203	0.158279	-1.428294	-1.013479	-13.141707	-67.222898	-75.755713			
41606	8.565511	-0.675299	1.973930	0.156061	-1.424506	-1.114026	-13.484334	-66.999623	-75.472841			
41607	8.311664	-0.630279	1.790140	0.202892	-1.525025	-1.427068	-13.823811	-66.765204	-75.179823			
41608	8.331621	-0.498850	1.656946	0.362444	-1.677516	-1.478140	-14.164553	-66.550973	-74.860611			
41609	8.037168	-0.559552	1.529473	0.297735	-1.708596	-1.797677	-14.485436	-66.339033	-74.525825			
41610	7.865255	-0.369130	1.567252	0.495240	-1.622303	-1.965551	-14.808032	-66.140569	-74.160615			
41611	8.037052	-0.260391	1.902001	0.652041	-1.397466	-1.694717	-15.192785	-65.942175	-73.766295			
41612	8.362868	-0.216143	2.316906	0.767012	-1.163057	-1.244655	-15.599820	-65.734943	-73.363175			
41613	8.474109	-0.036032	2.707649	0.995229	-0.862134	-1.014432	-16.024091	-65.541689	-72.972450			
41614	8.799712	-0.206358	2.805969	0.900015	-0.922696	-0.664492	-16.461841	-65.426597	-72.592003			
41615	9.356539	-0.283581	2.710220	0.922014	-1.238385	-0.190486	-16.857748	-65.388774	-72.260304			
41616	9.609766	-0.611082	2.487480	0.650752	-1.553944	-0.011140	-17.152082	-65.369304	-72.025828			
41617	9.731557	-0.890701	2.427744	0.403548	-1.664843	0.109809	-17.311260	-65.371806	-71.898185			
41618	9.857928	-1.020871	2.314786	0.295137	-1.822361	0.195862	-17.320501	-65.362664	-71.888441			
41619	10.035111	-1.169607	2.102668	0.166177	-2.097472	0.290066	-17.233877	-65.329518	-71.969992			
41620	10.187347	-1.028418	1.938762	0.318000	-2.312523	0.343571	-17.073966	-65.277008	-72.085541			
41621	10.283672	-0.538653	1.994590	0.809302	-2.293046	0.390714	-16.899409	-65.216027	-72.204912			
41622	10.454392	0.270753	2.668137	1.633643	-1.724072	0.715624	-16.715473	-65.158050	-72.305995			
41623	10.604797	0.984886	3.614779	2.361244	-0.897973	1.147081	-16.561986	-65.129998	-72.433954			
41624	11.119498	1.098934	4.257367	2.534351	-0.513310	1.861627	-16.461605	-65.188734	-72.625097			
41625	12.016824	-0.064663	3.868724	1.467553	-1.255565	2.663086	-16.360946	-65.410681	-72.977998			
41626	13.116770	-1.748729	3.935144	-0.115169	-1.644403	3.894066	-15.991343	-65.717092	-73.584382			
41627	13.107957	-2.103395	4.724169	-0.533151	-0.877640	4.240969	-15.238095	-65.964039	-74.424377			
41628	12.366450	-1.654416	5.901287	-0.242864	0.544477	3.976259	-14.360313	-66.205744	-75.314317			
41629	12.282864	-2.207564	7.611988	-0.876757	2.180867	4.615007	-13.447590	-66.512043	-76.225424			
41630	12.644953	-3.046307	7.827593	-1.792603	2.283031	5.087595	-12.391891	-66.911171	-77.165559			
41631	12.459129	-3.143325	6.640090	-2.052410	1.321092	4.443593	-11.142863	-67.272969	-78.174053			
41632	11.450631	-2.148799	5.251292	-1.279568	0.479909	2.893271	-9.769510	-67.480619	-79.146491			
41633	9.744045	-0.577751	4.588916	0.055165	0.568163	0.958185	-8.485323	-67.592839	-79.941440			
41634	8.657415	0.723951	5.831089	1.170033	2.186805	0.352191	-7.454050	-67.703321	-80.459549			
41635	8.097337	1.510674	6.932658	1.810533	3.474766	0.215181	-6.662879	-67.848594	-80.837150			
41636	7.872065	1.721170	7.253607	1.929592	3.893704	0.120191	-6.037956	-67.998815	-81.238685			
41637	7.801208	2.144885	6.836792	2.318413	3.575460	-0.115161	-5.500982	-68.110450	-81.766048			
41638	7.159775	2.306727	5.879428	2.455043	2.937356	-1.066505	-5.019944	-68.170388	-82.420362			
41639	6.782652	2.446017	5.087840	2.590117	2.340875	-1.708055	-4.574775	-68.224016	-83.189730			
41640	6.411083	2.127738	4.663651	2.260125	2.060762	-2.195341	-4.136751	-68.317687	-84.021628			
41641	6.459922	1.141960	4.517976	1.272281	1.871059	-2.175463	-3.663577	-68.470248	-84.922027			
41642	7.246282	0.194623	4.798327	0.331636	1.833321	-1.321557	-3.123009	-68.671493	-85.844724			
41643	8.328049	-0.537210	5.043759	-0.397788	1.684734	-0.216451	-2.491277	-68.892147	-86.841649			
41644	9.382899	-1.178322	4.926954	-1.050141	1.227312	0.727366	-1.834839	-69.103280	-87.804810			
41645	10.200475	-1.401002	4.645603	-1.300569	0.709490	1.385483	-1.183939	-69.248086	-88.691226			
41646	10.116392	-1.567433	3.988020	-1.508348	0.146157	1.068761	-0.590446	-69.289164	-89.424139			
41647	9.058836	-1.576585	3.787713	-1.554431	0.334118	0.003979	-0.138193	-69.211712	-89.992838			
41648	8.162986	-1.578742	4.133306	-1.575166	0.967751	-0.713606	0.113219	-69.157118	-90.356120			
41649	7.820680	-1.751612	4.331413	-1.752008	1.276621	-0.964353	0.158507	-69.174276	-90.544193			
41650	8.051572	-1.817681	4.487266	-1.813525	1.347444	-0.693321	0.056021	-69.196448	-90.553057			
41651	7.948887	-1.777377	4.448820	-1.761326	1.351586	-0.801205	-0.172774	-69.183079	-90.436595			
41652	7.633544	-2.132519	4.177366	-2.100471	1.212845	-1.187955	-0.530774	-69.149003	-90.190306			
41653	7.482976	-2.462610	3.797680	-2.412311	0.915699	-1.456615	-0.971234	-69.136831	-89.861515			
41654	7.468936	-2.618885	3.478608	-2.549711	0.627789	-1.575632	-1.418852	-69.163448	-89.467794			
41655	7.597245	-2.220977	3.299091	-2.133622	0.416041	-1.517543	-1.782096	-69.238586	-89.065861			
41656	7.661129	-1.564262	3.435666	-1.457542	0.525607	-1.413707	-2.121571	-69.378583	-88.612834			
41657	8.015409	-1.089200	3.343000	-0.965016	0.336438	-1.119920	-2.451885	-69.634469	-88.160622			
41658	8.815175	-0.508157	3.241648	-0.361118	0.003530	-0.413584	-2.753123	-69.961099	-87.715497			
41659	9.327259	-0.444144	2.869283	-0.279852	-0.473340	-0.059469	-2.996204	-70.221516	-87.344040			
41660	9.396381	-0.196702	3.031657	-0.020474	-0.308631	0.057767	-3.099704	-70.381031	-87.075464			
41661	9.397651	-0.118517	3.084305	0.059801	-0.240602	0.075758	-3.059507	-70.439733	-86.934537			
41662	9.264195	0.030297	3.148611	0.200113	-0.131091	-0.030932	-2.867843	-70.423497	-86.939340			
41663	9.190306	-0.023140	3.050284	0.131341	-0.207011	-0.132483	-2.534132	-70.353893	-87.108562			
41664	9.150033	-0.086679	3.180348	0.044817	-0.089225	-0.125832	-2.056764	-70.223949	-87.424754			
41665	9.024401	-0.161139	3.188292	-0.058634	-0.068426	-0.240713	-1.533838	-70.032471	-87.800542			
41666	8.659054	-0.205293	3.050628	-0.134207	-0.112486	-0.631359	-1.000803	-69.763621	-88.184089			
41667	8.199243	-0.243062	2.558006	-0.195843	-0.458427	-1.234728	-0.536759	-69.504647	-88.519092			
41668	7.951853	-0.211829	2.013277	-0.178357	-0.917768	-1.660639	-0.169549	-69.277272	-88.819145			
41669	7.858017	-0.184209	1.706803	-0.162335	-1.198678	-1.860814	0.136929	-69.113510	-89.117974			
41670	7.939151	-0.191843	1.386520	-0.179793	-1.543492	-1.902274	0.432787	-69.038632	-89.463346			
41671	8.442059	-0.373459	1.568329	-0.381508	-1.560868	-1.369608	0.787074	-69.048112	-89.893455			
41672	8.845603	-0.645837	1.794974	-0.681793	-1.494592	-0.914091	1.257651	-69.066974	-90.403449			
41673	8.859617	-0.909621	2.142732	-0.981741	-1.176999	-0.781504	1.841225	-69.054181	-90.987438			
41674	8.823240	-1.166918	2.280824	-1.277531	-1.041422	-0.774068	2.538294	-69.015782	-91.630116			
41675	8.834112	-1.417938	2.362512	-1.570551	-0.975986	-0.745482	3.271899	-68.994256	-92.316423			
41676	8.468899	-1.326300	2.107271	-1.509993	-1.088653	-1.183869	4.023015	-68.912135	-93.000270			
41677	8.102933	-1.147550	1.747752	-1.355551	-1.302221	-1.658204	4.723156	-68.805922	-93.658502			
41678	8.092756	-1.000838	1.776559	-1.245284	-1.281577	-1.660556	5.381494	-68.711972	-94.279788			
41679	8.510342	-0.591900	2.197651	-0.892327	-1.042818	-1.110841	5.980126	-68.664063	-94.831723			
41680	9.086031	-0.276226	2.368947	-0.631595	-1.087836	-0.503456	6.519775	-68.674505	-95.341118			
41681	9.653426	-0.025387	2.443415	-0.432062	-1.216224	0.061197	6.969415	-68.683646	-95.767569			
41682	9.837735	0.369882	2.644046	-0.075325	-1.089896	0.322165	7.326690	-68.655297	-96.103766			
41683	10.107529	0.644793	2.620606	0.169619	-1.207757	0.577597	7.560273	-68.641017	-96.358736			
41684	10.428966	0.619939	2.570168	0.120097	-1.371811	0.857698	7.681784	-68.637536	-96.537679			
41685	10.685961	0.663260	2.471293	0.148498	-1.555325	1.063703	7.714512	-68.649523	-96.648288			
41686	10.634697	0.514626	1.945905	0.013886	-2.025180	0.819651	7.681032	-68.668700	-96.699545			
41687	10.298738	-0.142215	1.401886	-0.613626	-2.416077	0.278673	7.597834	-68.652067	-96.706228			
41688	9.993521	-1.088641	1.510290	-1.545894	-2.215810	-0.012842	7.472011	-68.602781	-96.663990			
41689	9.882067	-1.843065	1.988908	-2.299440	-1.740745	0.020434	7.327410	-68.560680	-96.544346			
41690	10.071029	-2.204249	2.369360	-2.664070	-1.459873	0.319918	7.107797	-68.597281	-96.261130			
41691	10.586902	-1.923058	2.733670	-2.387409	-1.292751	0.952188	6.759933	-68.787947	-95.737432			
41692	11.368359	-0.849931	2.982320	-1.305972	-1.285818	1.827617	6.184026	-69.169430	-94.900547			
41693	12.630661	0.357879	3.539495	-0.079517	-1.113655	3.261781	5.200254	-69.606896	-93.718700			
41694	13.372488	0.871057	4.457835	0.498251	-0.414716	4.295197	3.766846	-69.944732	-92.219374			
41695	13.673457	1.035076	6.509152	0.743888	1.488792	5.274767	1.935657	-70.239595	-90.441616			
41696	13.678960	1.249181	8.004903	1.095573	2.992881	5.762649	-0.174714	-70.646242	-88.444560			
41697	13.910728	1.718557	7.561573	1.771898	2.627963	5.794639	-2.455772	-71.072905	-86.312336			
41698	13.379566	1.386432	6.096095	1.648484	1.502793	4.785878	-4.764150	-71.296979	-84.243955			
41699	11.091316	0.042369	5.294212	0.409383	1.488427	2.380053	-6.877286	-71.320319	-82.474586			
41700	9.192584	-1.233656	5.304442	-0.812384	2.106566	0.630673	-8.755489	-71.408852	-81.000498			
41701	9.017347	-2.255942	5.459888	-1.734501	2.342236	0.565974	-10.351896	-71.582031	-79.768971			
41702	8.787783	-3.198133	5.668670	-2.605249	2.647893	0.472638	-11.445768	-71.654744	-78.857441			
41703	7.961617	-3.437596	6.081848	-2.843853	3.307433	-0.160402	-12.023427	-71.622511	-78.194995			
41704	7.420161	-3.311458	5.934490	-2.745027	3.321224	-0.720000	-12.274350	-71.557292	-77.630098			
41705	6.948161	-3.015583	5.526442	-2.496988	3.051749	-1.305986	-12.349710	-71.432298	-77.068250			
41706	6.856741	-2.851930	4.941699	-2.361344	2.489852	-1.579018	-12.370038	-71.339898	-76.451402			
41707	6.852022	-1.817373	4.470542	-1.346355	2.044578	-1.797343	-12.420726	-71.257636	-75.738009			
41708	6.853802	-0.442912	4.778089	0.002024	2.376760	-1.790724	-12.666446	-71.155069	-74.858732			
41709	7.135858	0.343946	5.071851	0.796423	2.608083	-1.486461	-13.249287	-71.093681	-73.749626			
41710	8.215844	0.841261	5.057635	1.405742	2.311349	-0.513824	-14.230197	-71.151141	-72.377315			
41711	9.928539	0.833397	4.715881	1.623189	1.504216	0.986017	-15.502011	-71.268634	-70.818526			
41712	11.088114	0.777240	4.499337	1.763961	0.992260	2.006690	-16.763046	-71.304370	-69.346611			
41713	11.053864	0.609986	4.074744	1.684909	0.609465	1.847191	-17.751856	-71.172356	-68.195143			
41714	10.157430	0.631846	3.975849	1.660915	0.774474	0.958632	-18.278239	-70.910156	-67.505437			
41715	8.903318	0.585604	4.263907	1.478807	1.390729	-0.134271	-18.498829	-70.625316	-67.145207			
41716	8.391526	0.544849	4.569722	1.373452	1.799903	-0.513719	-18.492674	-70.394027	-66.999585			
41717	7.956287	0.237788	4.276735	1.031790	1.596170	-0.978828	-18.237626	-70.182535	-67.057129			
41718	7.604858	0.417672	4.187450	1.156605	1.607936	-1.349843	-17.735016	-69.986835	-67.266374			
41719	7.649797	0.715947	3.986897	1.447190	1.408873	-1.395566	-17.135307	-69.856154	-67.548839			
41720	8.029224	0.608798	3.852109	1.371047	1.131647	-1.065270	-16.524719	-69.805275	-67.879540			
41721	8.259015	0.893821	3.921494	1.644913	1.147362	-0.847975	-15.955124	-69.821036	-68.203800			
41722	8.556835	0.795787	3.764823	1.567563	0.894589	-0.605680	-15.528610	-69.889680	-68.448893			
41723	8.708759	0.697139	3.483875	1.486561	0.578677	-0.543325	-15.204555	-69.985873	-68.611316			
41724	8.799341	0.450778	3.131467	1.262987	0.203136	-0.549792	-14.975314	-70.112986	-68.684443			
41725	8.756795	0.550836	3.085641	1.343009	0.204245	-0.611567	-14.819744	-70.238629	-68.690950			
41726	8.999868	0.499150	3.375556	1.281095	0.412103	-0.282206	-14.730146	-70.349132	-68.680562			
41727	9.082515	0.478635	3.754207	1.224551	0.752059	-0.078721	-14.627708	-70.400509	-68.719767			
41728	9.023158	0.243446	3.902423	0.963137	0.882868	-0.065972	-14.526442	-70.406589	-68.806406			
41729	9.245785	-0.026535	3.743687	0.733849	0.623305	0.115725	-14.403106	-70.363242	-68.949634			
41730	9.405037	-0.473705	3.308644	0.350990	0.088101	0.162042	-14.243453	-70.222106	-69.164145			
41731	9.257985	-0.899689	3.134548	-0.069655	-0.119686	0.001882	-14.019267	-69.969778	-69.425675			
41732	8.801324	-0.963575	2.909863	-0.162753	-0.239410	-0.497374	-13.796256	-69.673435	-69.647952			
41733	8.541946	-0.822093	2.732265	-0.031395	-0.347253	-0.813562	-13.678414	-69.427516	-69.729535			
41734	8.689500	-0.870192	2.458592	-0.026996	-0.689961	-0.766557	-13.660665	-69.257604	-69.664777			
41735	9.146147	-0.556549	2.687393	0.328338	-0.609930	-0.288825	-13.711079	-69.116045	-69.490123			
41736	9.449718	-0.219246	2.817332	0.702070	-0.566313	0.009172	-13.836778	-68.952664	-69.268548			
41737	9.474440	-0.020886	3.030961	0.902486	-0.374399	0.086676	-14.058016	-68.739071	-69.022967			
41738	9.437565	-0.004929	3.038013	0.941682	-0.384107	0.049498	-14.341036	-68.494707	-68.776612			
41739	9.341898	-0.089992	2.774544	0.903543	-0.643939	-0.130437	-14.651597	-68.209776	-68.536747			
41740	9.080858	-0.089621	2.559130	0.922702	-0.792564	-0.456438	-14.930969	-67.912704	-68.305371			
41741	8.924634	-0.285232	2.274150	0.766134	-1.064863	-0.692317	-15.199498	-67.649772	-68.059074			
41742	8.662498	-0.308345	2.078983	0.753448	-1.186697	-1.010413	-15.460045	-67.407534	-67.781561			
41743	8.510535	-0.320753	2.108330	0.746219	-1.133950	-1.144681	-15.764984	-67.176709	-67.464637			
41744	8.523681	-0.332092	2.256750	0.756321	-1.029493	-1.082034	-16.116740	-66.920347	-67.126742			
41745	8.462854	-0.267923	2.486725	0.827069	-0.817798	-1.064978	-16.497846	-66.611721	-66.784821			
41746	8.478136	-0.189823	2.854400	0.915906	-0.509127	-0.926515	-16.911469	-66.291574	-66.434983			
41747	8.822199	0.059422	3.215756	1.231124	-0.304090	-0.508527	-17.371562	-65.991109	-66.066521			
41748	9.127509	0.253388	3.065920	1.531870	-0.559868	-0.319787	-17.866145	-65.720170	-65.696568			
41749	9.080476	0.613093	2.978841	1.932090	-0.603415	-0.452824	-18.363037	-65.444005	-65.372581			
41750	8.830400	0.667224	2.842705	1.999570	-0.657740	-0.753386	-18.892086	-65.172268	-65.096477			
41751	8.499802	0.528519	2.691755	1.860916	-0.718215	-1.106802	-19.424802	-64.919961	-64.857340			
41752	8.381108	0.034619	2.568489	1.404881	-0.873638	-1.204309	-19.961176	-64.699519	-64.641854			
41753	8.199715	-0.352598	2.334894	1.042668	-1.085221	-1.413498	-20.451588	-64.499147	-64.477680			
41754	8.159947	-0.827086	2.206714	0.608206	-1.259470	-1.435210	-20.886624	-64.326873	-64.370577			
41755	8.239226	-1.267231	2.201066	0.218550	-1.359852	-1.301614	-21.241114	-64.158040	-64.323710			
41756	8.513041	-1.439596	2.089432	0.127501	-1.600769	-1.075910	-21.521174	-64.020609	-64.302336			
41757	8.820143	-1.336775	1.725265	0.315478	-2.054949	-0.967573	-21.749488	-63.897067	-64.306763			
41758	9.030435	-1.002444	1.480423	0.703534	-2.338600	-0.936806	-21.957198	-63.791655	-64.326489			
41759	8.957885	-0.643437	1.496010	1.051066	-2.270009	-1.058370	-22.157969	-63.714670	-64.391582			
41760	9.177402	-0.308187	2.064260	1.417572	-1.813542	-0.686768	-22.341792	-63.699307	-64.479351			
41761	9.566588	0.047659	2.727913	1.833401	-1.332479	-0.126278	-22.472408	-63.741634	-64.664094			
41762	10.156487	-0.145279	3.199876	1.745057	-1.149311	0.629936	-22.551474	-63.854136	-65.006806			
41763	10.766714	-0.663090	3.703497	1.327484	-0.959090	1.474276	-22.461010	-64.046394	-65.555573			
41764	10.786401	-1.309871	4.061404	0.653395	-0.659937	1.749944	-22.100975	-64.302796	-66.334708			
41765	10.464555	-1.957488	4.311436	-0.104345	-0.309896	1.668585	-21.466347	-64.616724	-67.330693			
41766	10.493316	-2.549183	4.702416	-0.767314	0.048061	1.940125	-20.569104	-64.997857	-68.519607			
41767	10.833433	-3.115139	6.003741	-1.366991	1.140634	2.834082	-19.451432	-65.465952	-69.859589			
41768	11.312277	-3.816394	6.933982	-2.117168	1.863360	3.702311	-18.159744	-66.041021	-71.297386			
41769	11.692981	-4.071731	7.161995	-2.484019	2.014421	4.128872	-16.637135	-66.624650	-72.853806			
41770	11.613673	-3.593288	6.869499	-2.205027	1.871044	3.847942	-14.896863	-67.105971	-74.538246			
41771	11.299953	-2.609422	6.329771	-1.447171	1.572011	3.225550	-13.043087	-67.481057	-76.247694			
