// General information: 
//  MT Manager version: 2022.0.0 
//  XDA version: 2022.0.0 build 7085 rev 119802 built on 2022-11-08
// Device information: 
//  DeviceId: 00B492A2
//  ProductCode: MTW2-3A7G6
//  Firmware Version: 4.6.0
//  Hardware Version: 2.0.0
// Device settings: 
//  Filter Profile: human(46.1)
//  Option Flags: Orientation Smoother Disabled, Position/Velocity Smoother Disabled, Continuous Zero Rotation Update Disabled, AHS Disabled, ICC Disabled
// Coordinate system: ENU
PacketCounter	Acc_X	Acc_Y	Acc_Z	FreeAcc_E	FreeAcc_N	FreeAcc_U	Roll	Pitch	Yaw	Vel_E	Vel_N	Vel_U
40738	9.024787	1.003495	-3.283988	-0.147349	0.182201	-0.159530	165.019581	-70.344539	-81.845464			
40739	8.997629	0.944765	-3.327455	-0.084691	0.216046	-0.175883	165.041135	-70.286010	-81.843454			
40740	8.994054	0.945804	-3.336812	-0.084594	0.215383	-0.175867	165.066780	-70.219606	-81.848278			
40741	9.022753	0.990146	-3.341941	-0.126485	0.202873	-0.143051	165.098885	-70.140709	-81.867349			
40742	8.972457	0.974385	-3.379314	-0.108335	0.238992	-0.179136	165.128387	-70.054099	-81.895187			
40743	9.031552	1.067367	-3.404048	-0.193761	0.237873	-0.106936	165.140924	-69.975660	-81.914467			
40744	8.979308	1.216835	-3.307861	-0.354749	0.168923	-0.174419	165.128224	-69.910698	-81.914395			
40745	9.027125	1.277806	-3.209758	-0.422352	0.057193	-0.156463	165.091543	-69.850760	-81.891927			
40746	9.034480	1.314986	-3.212859	-0.454366	0.051138	-0.144988	165.040626	-69.783732	-81.853318			
40747	9.006318	1.260656	-3.256729	-0.391697	0.084980	-0.161333	164.987615	-69.709986	-81.801706			
40748	9.017629	1.291010	-3.338610	-0.406188	0.148029	-0.120230	164.946387	-69.629747	-81.751429			
40749	8.967177	1.278897	-3.374086	-0.388099	0.184373	-0.156308	164.909796	-69.551495	-81.699798			
40750	8.907860	1.229171	-3.390660	-0.336255	0.202443	-0.210430	164.889552	-69.475545	-81.657070			
40751	8.914007	1.211242	-3.406674	-0.313913	0.200757	-0.200549	164.892672	-69.398453	-81.628131			
40752	8.928926	1.229248	-3.441978	-0.325222	0.216893	-0.172606	164.907100	-69.318953	-81.606401			
40753	8.997625	1.246268	-3.358551	-0.348268	0.102658	-0.134957	164.932091	-69.231354	-81.590793			
40754	9.098676	1.200649	-3.415858	-0.290028	0.100402	-0.024872	164.959418	-69.139632	-81.571832			
40755	9.203956	1.145876	-3.425862	-0.228676	0.051460	0.072018	164.993016	-69.049899	-81.546819			
40756	9.268461	1.117763	-3.401385	-0.200414	-0.011973	0.121238	165.029382	-68.970719	-81.505692			
40757	9.296840	1.108146	-3.417643	-0.187896	-0.020357	0.152440	165.066880	-68.910095	-81.451019			
40758	9.313209	1.123423	-3.450077	-0.199180	-0.004254	0.180374	165.104513	-68.867584	-81.384525			
40759	9.239756	1.209128	-3.383345	-0.297613	-0.038592	0.096502	165.144755	-68.844140	-81.311873			
40760	9.138446	1.350357	-3.376669	-0.445340	-0.000234	0.012699	165.167267	-68.829944	-81.220422			
40761	8.941847	1.356768	-3.359454	-0.465714	0.051111	-0.176097	165.193423	-68.816270	-81.126904			
40762	8.892189	1.503195	-3.382810	-0.612314	0.098357	-0.200745	165.222067	-68.789675	-81.029934			
40763	8.887591	1.560254	-3.403531	-0.668252	0.117272	-0.192533	165.257224	-68.753297	-80.938931			
40764	8.819580	1.634072	-3.391411	-0.747492	0.128456	-0.253314	165.272768	-68.715955	-80.834257			
40765	9.021700	1.665173	-3.313704	-0.775112	-0.021691	-0.089352	165.289434	-68.677169	-80.738382			
40766	9.075693	1.662877	-3.301945	-0.770729	-0.060371	-0.043423	165.305581	-68.638378	-80.654557			
40767	8.976699	1.687648	-3.394688	-0.792100	0.055596	-0.100702	165.340197	-68.602547	-80.590208			
40768	8.826354	1.861668	-3.532643	-0.961671	0.242726	-0.175978	165.395706	-68.564911	-80.540027			
40769	8.703430	1.767901	-3.668162	-0.865943	0.397047	-0.251146	165.481588	-68.516305	-80.534486			
40770	8.617734	1.600631	-3.770380	-0.700045	0.500408	-0.309917	165.596489	-68.461079	-80.557637			
40771	8.546687	1.408846	-3.728274	-0.524834	0.463273	-0.408398	165.735558	-68.413022	-80.610984			
40772	8.576453	1.235578	-3.666827	-0.364914	0.374462	-0.418305	165.892213	-68.374644	-80.685536			
40773	8.642237	0.993271	-3.593074	-0.136685	0.258535	-0.405270	166.069644	-68.344917	-80.788343			
40774	8.755393	0.762050	-3.594905	0.089619	0.198070	-0.319864	166.253123	-68.326471	-80.909698			
40775	8.857966	0.550894	-3.590516	0.293485	0.139073	-0.244336	166.457578	-68.317470	-81.056640			
40776	8.782348	0.410441	-3.705017	0.425757	0.260408	-0.285035	166.700953	-68.305877	-81.236175			
40777	8.776170	0.340173	-3.868135	0.493157	0.403408	-0.237022	167.014113	-68.265419	-81.458801			
40778	8.913750	0.412274	-3.980442	0.418353	0.449747	-0.061202	167.392116	-68.194260	-81.718437			
40779	9.257583	0.401229	-4.007517	0.426075	0.331135	0.268620	167.807130	-68.103843	-81.995238			
40780	9.542491	0.073123	-4.000355	0.740178	0.182353	0.506523	168.253048	-68.023057	-82.278109			
40781	9.786546	-0.214270	-3.755870	0.988795	-0.165348	0.623969	168.758499	-67.962272	-82.577898			
40782	10.227431	-0.506103	-3.427129	1.241856	-0.657811	0.893697	169.311614	-67.944669	-82.902744			
40783	10.446069	-0.728915	-3.028153	1.409012	-1.117577	0.938451	169.879738	-67.990864	-83.232753			
40784	10.829196	-0.667899	-2.527050	1.294458	-1.711022	1.118928	170.460232	-68.065265	-83.591293			
40785	10.869706	-0.374603	-2.253660	0.949847	-1.952348	1.080238	171.018452	-68.158485	-83.953485			
40786	10.755143	0.237087	-2.022931	0.286933	-2.081699	0.930014	171.526220	-68.283129	-84.316557			
40787	10.226353	0.983773	-1.806179	-0.520588	-2.037694	0.404214	171.961713	-68.436750	-84.645658			
40788	9.665609	1.340952	-1.786380	-0.924327	-1.819299	-0.104495	172.375575	-68.532776	-84.983548			
40789	9.230652	1.372732	-1.902014	-0.988497	-1.543402	-0.466687	172.768062	-68.571022	-85.328930			
40790	8.948399	1.313575	-2.003972	-0.954992	-1.349156	-0.697702	173.143822	-68.542423	-85.673412			
40791	9.019243	1.063055	-2.248873	-0.712275	-1.169854	-0.557511	173.531723	-68.420880	-86.033530			
40792	9.113246	0.939885	-2.368821	-0.602676	-1.121372	-0.435846	173.913700	-68.264061	-86.411259			
40793	9.298482	0.696461	-2.317873	-0.379120	-1.273645	-0.296735	174.248678	-68.094964	-86.808092			
40794	9.266270	0.457943	-2.243149	-0.166081	-1.367183	-0.367671	174.566314	-67.942129	-87.212759			
40795	8.930397	0.169989	-2.213486	0.093218	-1.305997	-0.704120	174.869829	-67.783333	-87.637794			
40796	8.764283	-0.154135	-2.307623	0.398971	-1.197918	-0.836762	175.166636	-67.602275	-88.079442			
40797	8.650303	-0.435901	-2.505306	0.669007	-1.016120	-0.878813	175.475549	-67.405781	-88.540210			
40798	8.736321	-0.685820	-2.674630	0.908220	-0.937507	-0.743873	175.772851	-67.224194	-88.997057			
40799	8.646033	-0.905255	-2.841181	1.115579	-0.789926	-0.769619	176.081073	-67.072736	-89.441547			
40800	8.379921	-0.978710	-3.037889	1.179307	-0.534609	-0.939521	176.392271	-66.938824	-89.846412			
40801	8.357979	-0.985463	-3.154351	1.173207	-0.441337	-0.912934	176.709052	-66.815256	-90.205217			
40802	8.419235	-0.920725	-3.170073	1.089412	-0.465974	-0.847387	177.033691	-66.710252	-90.519211			
40803	8.450762	-0.873781	-3.005708	1.013679	-0.639916	-0.880942	177.318686	-66.640409	-90.759565			
40804	8.666255	-0.805203	-2.808649	0.916854	-0.910331	-0.758877	177.548139	-66.595447	-90.926787			
40805	8.871171	-0.708260	-2.628413	0.796154	-1.155957	-0.640024	177.732007	-66.571649	-91.039128			
40806	8.934304	-0.644901	-2.430948	0.712094	-1.360026	-0.658975	177.875290	-66.564919	-91.119008			
40807	9.170115	-0.481031	-2.219867	0.528649	-1.639808	-0.523889	177.963440	-66.546345	-91.169930			
40808	9.235752	-0.511413	-2.210659	0.555142	-1.679802	-0.468291	177.969965	-66.515633	-91.183062			
40809	9.279101	-0.433571	-2.239173	0.479557	-1.674272	-0.417453	177.913072	-66.457918	-91.161556			
40810	9.330677	-0.445881	-2.332082	0.499924	-1.620505	-0.335189	177.826983	-66.398977	-91.130352			
40811	9.296707	-0.384988	-2.429532	0.449234	-1.524552	-0.328305	177.733799	-66.342472	-91.097103			
40812	9.029676	-0.298559	-2.617590	0.380309	-1.252289	-0.498017	177.648550	-66.262246	-91.053662			
40813	9.245220	-0.021087	-2.729858	0.112728	-1.238106	-0.253346	177.575789	-66.137623	-90.989951			
40814	9.395933	-0.002083	-3.042252	0.116389	-1.033067	0.008619	177.479813	-66.023253	-90.885467			
40815	9.407491	0.034432	-3.030707	0.085835	-1.062346	0.013365	177.393906	-65.951087	-90.763954			
40816	9.402703	-0.056611	-2.950253	0.178694	-1.147083	-0.026458	177.319167	-65.924266	-90.635159			
40817	9.353199	0.032308	-2.786655	0.086224	-1.274703	-0.137125	177.271415	-65.909894	-90.532358			
40818	9.212063	0.084095	-2.636171	0.031491	-1.351900	-0.326384	177.207423	-65.919006	-90.437957			
40819	9.175116	0.121328	-2.302323	-0.018212	-1.638164	-0.495271	177.110463	-65.923464	-90.341162			
40820	9.185422	0.176519	-1.950689	-0.086090	-1.961126	-0.628196	176.997378	-65.904811	-90.245907			
40821	9.149260	0.312811	-1.709772	-0.228478	-2.162968	-0.757330	176.866874	-65.871879	-90.157933			
40822	9.124853	0.225858	-1.549359	-0.143787	-2.309851	-0.848404	176.728275	-65.824469	-90.081886			
40823	8.999297	0.023798	-1.590262	0.067067	-2.241307	-0.953292	176.585807	-65.752804	-90.016167			
40824	8.840952	-0.336156	-1.876180	0.449800	-1.951074	-0.993025	176.440369	-65.628853	-89.974501			
40825	8.765797	-0.639518	-2.129800	0.774013	-1.733422	-0.970726	176.304162	-65.418810	-89.958503			
40826	8.744492	-0.693550	-2.573853	0.861460	-1.365421	-0.814622	176.195860	-65.123055	-89.960983			
40827	8.933708	-0.517061	-3.034925	0.719287	-1.071589	-0.451957	176.128130	-64.760599	-90.010649			
40828	9.081610	-0.354797	-3.375523	0.582202	-0.879786	-0.175138	176.088583	-64.384111	-90.104769			
40829	9.424729	-0.103075	-3.491836	0.337028	-0.973722	0.185660	176.113356	-64.003141	-90.270112			
40830	9.695718	0.173906	-3.643703	0.063812	-1.004361	0.497530	176.203610	-63.640752	-90.492414			
40831	9.929331	0.326564	-3.450794	-0.116661	-1.331083	0.619022	176.350440	-63.328410	-90.778423			
40832	10.170516	0.326250	-3.324741	-0.146525	-1.605405	0.770350	176.563485	-63.046731	-91.103435			
40833	10.317055	0.285234	-3.232124	-0.140344	-1.806273	0.849725	176.852747	-62.790768	-91.500665			
40834	10.357918	0.066354	-3.293483	0.049698	-1.834063	0.900451	177.193027	-62.530932	-91.944434			
40835	10.933139	-0.064072	-3.637203	0.159017	-1.862379	1.557125	177.566158	-62.195325	-92.439424			
40836	11.677100	-0.335527	-3.927024	0.393072	-2.043874	2.334584	177.950405	-61.854041	-92.955628			
40837	12.320564	-0.437313	-4.001103	0.434184	-2.362841	2.924037	178.338401	-61.522744	-93.495598			
40838	12.850407	-0.621441	-4.162355	0.563257	-2.556645	3.453439	178.695508	-61.252497	-93.990581			
40839	12.992587	-0.791230	-4.212849	0.683175	-2.640614	3.594089	179.025264	-61.131583	-94.411024			
40840	12.358880	-1.349275	-4.160243	1.220346	-2.439016	3.010415	179.280706	-61.191161	-94.715955			
40841	11.519047	-2.065158	-4.031771	1.934049	-2.191429	2.215009	179.435728	-61.342389	-94.856846			
40842	11.046874	-2.251944	-3.794161	2.113036	-2.157949	1.692901	179.483457	-61.487645	-94.819360			
40843	10.499781	-2.790512	-3.827384	2.681649	-1.887429	1.229391	179.388552	-61.619305	-94.629063			
40844	10.376865	-3.360622	-3.684622	3.263210	-1.976539	1.049824	179.150943	-61.739964	-94.298677			
40845	9.952804	-3.035389	-3.819081	2.996200	-1.600194	0.738107	178.825071	-61.876153	-93.846085			
40846	9.453965	-2.617227	-4.225169	2.666184	-0.939432	0.487218	178.373484	-62.047731	-93.292963			
40847	8.671525	-2.310658	-5.092077	2.493406	0.251275	0.196469	177.851505	-62.237004	-92.668371			
40848	7.775319	-2.006358	-5.837980	2.308804	1.386542	-0.257073	177.316688	-62.408023	-92.001852			
40849	7.175608	-1.565743	-6.482905	1.961322	2.296053	-0.493342	176.845866	-62.505086	-91.333366			
40850	6.723223	-0.908495	-6.811322	1.354157	2.859956	-0.734797	176.492181	-62.534201	-90.727897			
40851	6.587796	-0.046127	-6.787017	0.500199	2.962661	-0.844007	176.243235	-62.502113	-90.210913			
40852	6.208390	0.585011	-6.830380	-0.129137	3.210007	-1.139764	176.127538	-62.452874	-89.802238			
40853	5.834835	0.914748	-6.771182	-0.477052	3.336416	-1.483722	176.141139	-62.357346	-89.484360			
40854	6.135500	1.255843	-6.986028	-0.830338	3.382044	-1.100727	176.300749	-62.209774	-89.247877			
40855	6.850871	1.863754	-7.016813	-1.466432	3.072060	-0.428899	176.516270	-62.073528	-89.050339			
40856	7.563620	2.398397	-6.808973	-2.035865	2.546927	0.121651	176.656087	-62.006405	-88.851462			
40857	8.427883	2.431611	-6.526452	-2.088481	1.878893	0.753510	176.651605	-62.024211	-88.626734			
40858	9.279801	2.289520	-6.242322	-1.945950	1.228377	1.368884	176.501143	-62.108664	-88.349396			
40859	10.170435	1.992541	-6.084770	-1.622581	0.690307	2.075243	176.171045	-62.297183	-87.999730			
40860	10.445202	1.617134	-5.849976	-1.214446	0.400775	2.199952	175.686085	-62.630160	-87.557912			
40861	10.258606	1.501894	-5.575937	-1.063541	0.315690	1.907133	175.058160	-63.006126	-87.002136			
40862	10.035884	1.479847	-5.259568	-1.000507	0.213022	1.568206	174.308246	-63.377393	-86.343877			
40863	9.611598	1.289810	-4.802728	-0.777137	0.064281	0.981002	173.452131	-63.731413	-85.612461			
40864	9.338745	1.130365	-4.283448	-0.584565	-0.219675	0.504637	172.564107	-64.025096	-84.845235			
40865	9.361016	1.157221	-3.883890	-0.566074	-0.533234	0.358205	171.701391	-64.276829	-84.080873			
40866	9.263390	1.247628	-3.707838	-0.609992	-0.594635	0.206735	170.868360	-64.550265	-83.303834			
40867	8.700820	1.418956	-3.591290	-0.760712	-0.399347	-0.332371	170.049050	-64.864555	-82.497160			
40868	8.227831	1.284671	-3.572960	-0.604981	-0.161566	-0.772718	169.231923	-65.201874	-81.684380			
40869	7.653754	1.205834	-3.436266	-0.525168	0.009497	-1.353043	168.432896	-65.560752	-80.882111			
40870	7.033567	1.138607	-3.397666	-0.463890	0.282637	-1.937650	167.676076	-65.911918	-80.121436			
40871	6.473496	1.059664	-3.330767	-0.396882	0.493895	-2.483202	166.964276	-66.216787	-79.415657			
40872	6.184329	1.005160	-3.112115	-0.349337	0.446395	-2.839878	166.301702	-66.460238	-78.769128			
40873	5.960322	1.177206	-2.887715	-0.526621	0.361383	-3.116261	165.705485	-66.625815	-78.202643			
40874	5.887280	1.262951	-2.676557	-0.607991	0.217776	-3.255102	165.159389	-66.726400	-77.714126			
40875	6.079327	1.424105	-2.397796	-0.746854	-0.096595	-3.166745	164.630499	-66.755319	-77.300601			
40876	6.281036	1.509757	-2.133466	-0.809069	-0.408279	-3.070201	164.136758	-66.747625	-76.948914			
40877	6.617799	1.532795	-2.044972	-0.785710	-0.614972	-2.789080	163.662641	-66.710977	-76.606534			
40878	7.084518	1.634330	-1.841976	-0.836234	-0.977664	-2.423563	163.244111	-66.662695	-76.291463			
40879	7.390747	1.738044	-1.968866	-0.880719	-0.977520	-2.080344	162.889105	-66.592628	-75.994746			
40880	7.748547	2.024293	-2.308489	-1.086769	-0.801194	-1.588099	162.647488	-66.491016	-75.733383			
40881	8.240792	2.258961	-2.727899	-1.223541	-0.612257	-0.947980	162.465055	-66.369389	-75.491195			
40882	8.902647	2.419689	-2.860595	-1.291143	-0.760226	-0.270676	162.328080	-66.249405	-75.273625			
40883	9.087352	2.530753	-2.960906	-1.361688	-0.752406	-0.048912	162.215220	-66.182270	-75.059089			
40884	9.171684	2.430391	-3.016936	-1.239151	-0.744328	0.038148	162.120636	-66.152088	-74.902676			
40885	9.296342	2.231020	-2.908063	-1.029516	-0.897993	0.086301	162.049706	-66.174466	-74.821481			
40886	9.204632	2.324578	-2.628431	-1.151105	-1.108924	-0.092461	162.041628	-66.243039	-74.854687			
40887	9.067004	2.309531	-2.251361	-1.182901	-1.389662	-0.363736	162.066545	-66.321138	-75.015436			
40888	8.594901	2.209077	-2.137388	-1.149251	-1.298562	-0.850896	162.083001	-66.399696	-75.254678			
40889	8.085145	2.062189	-2.175507	-1.060220	-1.056529	-1.320651	162.075026	-66.453007	-75.487079			
40890	7.808586	1.750615	-2.270896	-0.774995	-0.863584	-1.575623	162.031833	-66.464904	-75.673556			
40891	7.509479	1.036194	-2.374837	-0.086193	-0.677012	-1.898141	161.916828	-66.453087	-75.782183			
40892	7.120376	0.245840	-2.337198	0.660630	-0.597056	-2.367570	161.797863	-66.412247	-75.854481			
40893	7.116516	-0.376220	-2.210207	1.269971	-0.750531	-2.498645	161.741505	-66.320253	-75.938226			
40894	7.547690	-0.729200	-2.083241	1.652076	-1.067407	-2.198850	161.776078	-66.209872	-76.057898			
40895	8.180607	-0.602601	-1.963890	1.574203	-1.433771	-1.651284	161.895107	-66.139745	-76.218149			
40896	8.511742	-0.007259	-1.927539	1.003811	-1.574291	-1.287479	162.099315	-66.155011	-76.402812			
40897	9.023869	1.116311	-1.804518	-0.089024	-1.830190	-0.725604	162.423514	-66.227578	-76.625140			
40898	9.316169	1.771369	-1.839935	-0.732198	-1.872603	-0.364338	162.864722	-66.339708	-76.886088			
40899	9.670523	2.366225	-1.873956	-1.316833	-1.949785	0.040939	163.426957	-66.403606	-77.149328			
40900	10.317909	2.931117	-1.971231	-1.843654	-2.104042	0.728197	164.067269	-66.381917	-77.376442			
40901	10.947182	3.375160	-2.083484	-2.250335	-2.267635	1.384052	164.693894	-66.283890	-77.509139			
40902	11.481654	3.730146	-2.265442	-2.566135	-2.353082	1.966626	165.221488	-66.144586	-77.513112			
40903	11.881248	3.764445	-2.894939	-2.540873	-1.990730	2.568607	165.568373	-65.994685	-77.381616			
40904	12.096427	4.048483	-3.695653	-2.764044	-1.394480	3.101910	165.676637	-65.841889	-77.085287			
40905	12.599883	4.063592	-4.511159	-2.676679	-0.902454	3.885525	165.476559	-65.643326	-76.627900			
40906	13.570883	3.655156	-5.078784	-2.102301	-0.819586	4.959960	164.929183	-65.437808	-76.000729			
40907	14.505217	3.368643	-5.241370	-1.630211	-1.073363	5.852894	164.079003	-65.305200	-75.237263			
40908	14.349424	3.332108	-5.166071	-1.503703	-1.069051	5.688667	162.995301	-65.284064	-74.392736			
40909	13.391165	3.247711	-5.295654	-1.402596	-0.523186	4.873101	161.767800	-65.323916	-73.556482			
40910	12.691014	2.990279	-5.715336	-1.084802	0.198296	4.380656	160.491257	-65.391734	-72.776795			
40911	12.091826	3.110290	-6.033130	-1.138589	0.792073	3.984400	159.289441	-65.478811	-72.091840			
40912	11.416815	3.558011	-6.128822	-1.555786	1.217375	3.478740	158.276000	-65.564247	-71.571045			
40913	10.651913	3.753787	-6.227239	-1.759325	1.663944	2.854917	157.569865	-65.612669	-71.301890			
40914	9.830266	3.697653	-6.264305	-1.754196	2.055913	2.113924	157.150462	-65.677160	-71.241246			
40915	8.707647	3.361207	-6.385882	-1.529471	2.621186	1.081822	157.001377	-65.750083	-71.361363			
40916	7.783326	2.925248	-6.389257	-1.209721	2.980528	0.167937	157.087893	-65.777101	-71.642060			
40917	7.122131	1.704987	-6.488214	-0.081127	3.268310	-0.590963	157.338066	-65.721158	-72.059961			
40918	6.639540	0.549980	-6.515572	0.997115	3.407260	-1.196717	157.646106	-65.633540	-72.525037			
40919	6.213986	-0.248275	-6.049552	1.678059	3.085523	-1.879467	157.909588	-65.584211	-72.967925			
40920	6.049554	-1.428175	-5.629402	2.775903	2.682632	-2.367906	158.071686	-65.569170	-73.364282			
40921	6.175439	-2.302072	-5.403909	3.628041	2.356532	-2.469536	158.258471	-65.556852	-73.740981			
40922	7.241714	-2.080861	-4.951469	3.471576	1.519710	-1.631731	158.572458	-65.572296	-74.127090			
40923	7.932646	-1.402575	-4.855632	2.847377	1.202030	-0.929065	158.949285	-65.692766	-74.492125			
40924	7.900112	-0.800860	-4.929020	2.227554	1.340416	-0.835521	159.347191	-65.897639	-74.790691			
40925	7.948897	-0.275062	-4.893520	1.671876	1.350401	-0.724882	159.804423	-66.106928	-75.067768			
40926	8.062206	0.245187	-4.718872	1.105210	1.206630	-0.612181	160.366497	-66.310189	-75.313566			
40927	7.926281	0.951281	-4.516064	0.318535	1.137510	-0.717084	161.044385	-66.488880	-75.551179			
40928	7.817971	1.648713	-4.483255	-0.441868	1.199463	-0.740517	161.731960	-66.632922	-75.816879			
40929	8.074936	2.016791	-4.331906	-0.847021	0.983533	-0.520084	162.368287	-66.734570	-76.149541			
40930	8.325250	2.010621	-4.134660	-0.877836	0.708907	-0.369461	162.926658	-66.826425	-76.566220			
40931	8.485908	1.914433	-3.986785	-0.817854	0.511711	-0.292221	163.455579	-66.901897	-77.087696			
40932	8.224205	1.830595	-3.762776	-0.809662	0.405758	-0.629723	163.966076	-66.954859	-77.708563			
40933	8.003393	1.870260	-3.604643	-0.912074	0.347369	-0.891196	164.502572	-66.973297	-78.418053			
40934	7.777676	1.952585	-3.665975	-1.037020	0.493155	-1.070519	165.050853	-66.972792	-79.168276			
40935	7.613403	1.915688	-3.802081	-1.031079	0.676753	-1.177389	165.635459	-66.958808	-79.945776			
40936	7.369057	1.835146	-3.785255	-0.999493	0.748473	-1.419855	166.212656	-66.964090	-80.692364			
40937	7.235667	1.496898	-3.717912	-0.707178	0.716820	-1.602666	166.773229	-66.972935	-81.419698			
40938	7.147434	1.006838	-3.729970	-0.251645	0.728444	-1.724536	167.314748	-66.963869	-82.138411			
40939	7.211534	0.482284	-3.719591	0.246675	0.653388	-1.714146	167.814615	-66.949625	-82.838481			
40940	7.371206	-0.176066	-3.620666	0.876159	0.445630	-1.657407	168.255545	-66.929917	-83.517890			
40941	7.403854	-0.690112	-3.437729	1.349573	0.216302	-1.735366	168.624508	-66.925152	-84.148746			
40942	7.203646	-1.012606	-3.246665	1.624040	0.084038	-2.014347	168.954154	-66.930998	-84.720485			
40943	7.260840	-1.135883	-3.008014	1.706529	-0.178439	-2.059362	169.236282	-66.903846	-85.253422			
40944	7.561889	-1.089688	-2.752967	1.627920	-0.542264	-1.875169	169.439624	-66.821927	-85.726714			
40945	7.498851	-1.210026	-2.761457	1.735584	-0.543605	-1.937742	169.575937	-66.709943	-86.136043			
40946	7.499305	-1.124918	-2.796204	1.647687	-0.529545	-1.917852	169.673271	-66.563362	-86.471237			
40947	7.612989	-0.756084	-2.745393	1.273353	-0.609694	-1.808112	169.726043	-66.406145	-86.700085			
40948	7.647118	-0.154244	-2.661316	0.664781	-0.658042	-1.768446	169.724902	-66.283201	-86.811220			
40949	7.667236	0.439084	-2.447650	0.050715	-0.815262	-1.793770	169.682700	-66.142829	-86.837782			
40950	8.000493	0.718899	-2.262828	-0.238935	-1.108627	-1.544743	169.591872	-65.975993	-86.798507			
40951	8.303649	0.842374	-2.053782	-0.374999	-1.429441	-1.345442	169.474889	-65.840748	-86.717492			
40952	8.299572	0.851078	-2.066628	-0.374969	-1.429685	-1.345482	169.382085	-65.772985	-86.617703			
40953	8.122187	0.885024	-2.065368	-0.406613	-1.360095	-1.505838	169.285930	-65.762167	-86.505497			
40954	7.779323	0.870232	-2.067187	-0.393104	-1.218126	-1.818311	169.149753	-65.789494	-86.361859			
40955	7.629353	0.903817	-2.110558	-0.415060	-1.109939	-1.933975	168.949880	-65.811586	-86.172424			
40956	7.721451	1.000517	-2.154319	-0.489263	-1.095583	-1.823743	168.675233	-65.801266	-85.936893			
40957	8.094338	1.023064	-2.231129	-0.472155	-1.177714	-1.450097	168.293717	-65.763875	-85.672969			
40958	8.522941	0.724274	-2.229372	-0.139659	-1.391305	-1.084578	167.827920	-65.718842	-85.413856			
40959	8.886709	0.374032	-2.457912	0.276631	-1.378709	-0.692522	167.352122	-65.668572	-85.204563			
40960	9.203760	0.181525	-2.629064	0.528417	-1.385521	-0.354613	166.891604	-65.599068	-85.070472			
40961	9.603348	0.215472	-2.673594	0.538469	-1.521397	0.026731	166.498911	-65.487657	-85.061663			
40962	10.077794	0.522069	-2.781511	0.285923	-1.605325	0.527158	166.225651	-65.327353	-85.194022			
40963	10.625396	0.827605	-2.981601	0.044270	-1.642603	1.131431	166.079912	-65.157309	-85.442809			
40964	10.970039	0.994274	-3.076515	-0.093462	-1.705664	1.495593	166.047517	-65.035634	-85.759878			
40965	11.178065	0.902426	-2.944390	-0.029852	-1.941640	1.618063	166.111613	-64.986885	-86.101891			
40966	11.453397	0.912618	-2.534450	-0.125499	-2.429290	1.699018	166.308958	-64.972512	-86.492340			
40967	11.796894	0.830377	-2.126875	-0.140477	-2.953544	1.833625	166.618909	-64.972745	-86.939429			
40968	11.882748	0.331251	-2.231763	0.333820	-2.972339	1.906691	166.977019	-65.011973	-87.425553			
40969	11.886784	0.184579	-2.694121	0.520806	-2.581938	2.089001	167.419295	-65.030755	-87.985627			
40970	12.002088	0.331688	-3.492651	0.477316	-1.899951	2.537245	167.929438	-64.987681	-88.663190			
40971	12.757200	0.782289	-4.175100	0.112377	-1.551873	3.542772	168.489374	-64.914062	-89.485621			
40972	13.417239	1.345079	-4.600024	-0.422504	-1.363281	4.363148	169.056786	-64.925262	-90.414367			
40973	13.309654	1.159163	-4.811318	-0.263019	-1.143768	4.338693	169.543179	-65.050823	-91.327202			
40974	12.225239	0.316438	-4.946619	0.551078	-0.681719	3.350020	169.911845	-65.282786	-92.046681			
40975	10.721711	-0.752725	-5.681031	1.743358	0.431299	2.211054	170.152453	-65.464663	-92.529305			
40976	10.291709	-1.796933	-6.542319	2.938196	1.169632	2.101552	170.327537	-65.381137	-92.863181			
40977	11.066062	-2.378101	-7.472156	3.671708	1.490854	3.158096	170.504154	-64.956455	-93.124581			
40978	11.895563	-3.126939	-8.553957	4.594769	1.815197	4.330982	170.641807	-64.341383	-93.315088			
40979	12.337365	-3.027591	-9.096129	4.582370	1.977856	4.992885	170.747111	-63.838501	-93.411527			
40980	11.724184	-2.251625	-8.871205	3.777389	2.123414	4.415695	170.808286	-63.659572	-93.422733			
40981	10.144105	-1.500484	-8.780194	3.058048	2.895230	3.013534	170.843587	-63.824709	-93.374078			
40982	8.109589	-0.980218	-8.699150	2.573211	3.885029	1.173030	170.979078	-64.194569	-93.323835			
40983	6.833649	0.244927	-8.222463	1.276721	4.337555	-0.121320	171.320526	-64.556013	-93.327982			
40984	5.564181	1.809705	-7.736135	-0.371535	4.816885	-1.401865	171.752235	-64.924990	-93.351980			
40985	4.918684	3.356806	-6.575948	-2.147720	4.395313	-2.411817	172.136297	-65.273116	-93.384296			
40986	5.395462	4.104764	-5.770865	-3.078929	3.645293	-2.296379	172.330069	-65.542705	-93.338239			
40987	6.591704	4.226389	-4.899638	-3.401314	2.423137	-1.573831	172.287735	-65.839811	-93.136976			
40988	7.466253	4.093827	-4.251162	-3.400314	1.507539	-1.052459	171.979130	-66.258628	-92.784324			
40989	7.913687	3.156951	-3.894911	-2.521397	0.909821	-0.836204	171.354901	-66.722023	-92.310514			
40990	8.142242	2.062216	-3.270167	-1.519387	0.129081	-0.929156	170.566920	-67.084118	-91.770790			
40991	7.991770	1.502464	-2.847222	-1.000221	-0.254506	-1.258916	169.731138	-67.225055	-91.213206			
40992	7.950090	0.913112	-3.070932	-0.328687	-0.142324	-1.248822	168.841670	-67.102792	-90.689825			
40993	8.267568	0.410769	-3.660634	0.335125	0.138126	-0.768914	167.951887	-66.822995	-90.236477			
40994	8.843498	0.168753	-3.983745	0.696341	0.102291	-0.137448	167.086517	-66.512580	-89.844334			
40995	8.441862	0.081544	-4.238190	0.896030	0.424380	-0.418511	166.230440	-66.311347	-89.429835			
40996	7.562326	-0.005737	-4.483924	1.090343	0.951150	-1.140861	165.412849	-66.227450	-88.929050			
40997	6.862841	0.100875	-4.600665	1.056581	1.349355	-1.729519	164.716739	-66.203291	-88.358292			
40998	6.457700	0.199304	-4.596676	0.989598	1.528106	-2.095397	164.168265	-66.178843	-87.757973			
40999	6.417865	0.475628	-4.253504	0.661436	1.295320	-2.236927	163.744432	-66.127367	-87.140735			
41000	6.120551	0.708447	-3.993218	0.381616	1.227098	-2.583758	163.430922	-66.050344	-86.539797			
41001	6.296517	0.904161	-3.636820	0.122395	0.867370	-2.537884	163.178185	-65.929521	-85.972442			
41002	6.787519	1.013078	-3.229108	-0.050160	0.310400	-2.234760	162.890311	-65.801097	-85.419345			
41003	7.351693	1.038491	-2.860227	-0.121051	-0.261277	-1.861350	162.578505	-65.667437	-84.871902			
41004	7.938381	1.078579	-2.801123	-0.128827	-0.565161	-1.345607	162.235750	-65.533858	-84.325953			
41005	8.322868	1.254429	-2.825827	-0.251546	-0.683824	-0.964069	161.822755	-65.454910	-83.730805			
41006	8.267421	1.492254	-2.910652	-0.435461	-0.546221	-0.949229	161.313924	-65.463031	-83.050254			
41007	7.838849	1.708371	-2.988184	-0.618002	-0.257557	-1.277644	160.797148	-65.496572	-82.352976			
41008	7.642317	1.838519	-3.153461	-0.692393	-0.005444	-1.371717	160.397457	-65.461896	-81.758805			
41009	7.938574	1.906231	-3.498810	-0.648162	0.181080	-0.955861	160.181752	-65.331882	-81.324242			
41010	8.592997	2.176417	-3.650597	-0.827481	0.070015	-0.262107	160.103143	-65.214903	-81.028136			
41011	9.127628	2.061011	-3.468638	-0.711115	-0.345397	0.135570	160.080285	-65.206305	-80.819116			
41012	9.200938	2.090244	-3.185128	-0.792847	-0.618702	0.094886	160.144148	-65.327861	-80.664076			
41013	9.070945	2.237460	-3.003301	-0.990810	-0.683268	-0.073107	160.290020	-65.531714	-80.582313			
41014	8.785500	2.418073	-2.756141	-1.249746	-0.729284	-0.403408	160.474526	-65.799466	-80.562253			
41015	8.575895	2.667490	-2.422017	-1.588651	-0.869459	-0.688670	160.658350	-66.115124	-80.577875			
41016	8.003231	2.664968	-2.170955	-1.687452	-0.822087	-1.307203	160.801095	-66.480758	-80.605231			
41017	7.450235	2.366318	-1.743397	-1.523000	-0.989214	-2.012260	160.909108	-66.817467	-80.669977			
41018	7.084886	1.861293	-1.322333	-1.138792	-1.264304	-2.566090	161.005832	-67.097076	-80.751937			
41019	6.902600	1.315641	-1.094441	-0.665575	-1.450920	-2.882580	161.101329	-67.316389	-80.850334			
41020	6.721360	1.077804	-0.932283	-0.481088	-1.545148	-3.135222	161.239297	-67.437021	-80.970098			
41021	7.083294	0.749245	-0.941690	-0.143336	-1.715284	-2.837126	161.426750	-67.441376	-81.134483			
41022	7.791053	0.863819	-0.971534	-0.217041	-1.943114	-2.159729	161.630893	-67.408584	-81.284937			
41023	8.233468	0.908918	-1.141801	-0.212718	-1.954530	-1.685302	161.799738	-67.385337	-81.385667			
41024	8.626989	0.942831	-1.256626	-0.208323	-1.997479	-1.276901	161.925082	-67.384489	-81.412073			
41025	8.766030	0.681664	-1.884758	0.163933	-1.511994	-0.949998	162.002177	-67.411483	-81.346298			
41026	8.958491	0.847271	-2.417957	0.103282	-1.070090	-0.557247	162.081932	-67.442381	-81.183577			
41027	9.371761	1.113872	-2.703388	-0.087230	-0.926956	-0.039660	162.159503	-67.453284	-80.955526			
41028	9.805617	1.390135	-2.669711	-0.337286	-1.089771	0.380869	162.224364	-67.424273	-80.667664			
41029	10.203112	1.630281	-2.653206	-0.545389	-1.240847	0.768599	162.243932	-67.323733	-80.312344			
41030	10.746390	1.699988	-2.630516	-0.568493	-1.489976	1.266623	162.214724	-67.140697	-79.913711			
41031	11.212084	1.658062	-2.735384	-0.458471	-1.618332	1.724769	162.128028	-66.921428	-79.457389			
41032	11.468706	1.867872	-2.447894	-0.658573	-2.004433	1.873227	161.974336	-66.703356	-78.947705			
41033	11.346957	1.686902	-2.738283	-0.413223	-1.753032	1.842917	161.728576	-66.480252	-78.368479			
41034	11.273575	1.704092	-3.372149	-0.313466	-1.186236	2.013685	161.462606	-66.243344	-77.755849			
41035	11.465627	1.706737	-4.518261	-0.114105	-0.259241	2.625467	161.135817	-65.990189	-77.095531			
41036	12.374542	1.438626	-5.478878	0.396100	0.192546	3.789617	160.743179	-65.750304	-76.380566			
41037	13.740215	1.674794	-5.636196	0.366136	-0.226675	5.126502	160.305093	-65.599150	-75.588498			
41038	13.669920	2.740284	-5.823342	-0.619652	0.028538	5.283743	159.845921	-65.575546	-74.712301			
41039	12.581242	4.313511	-6.471855	-2.184910	1.134838	4.772139	159.504851	-65.535764	-73.935389			
41040	11.996063	4.966642	-7.444791	-2.773948	2.263706	4.719301	159.221436	-65.424919	-73.342539			
41041	11.651040	5.260605	-7.713912	-3.053632	2.624063	4.564885	158.937368	-65.284597	-72.871811			
41042	10.976829	5.179801	-7.643540	-3.028697	2.786392	3.928037	158.631143	-65.075276	-72.511487			
41043	10.108163	4.741990	-7.744284	-2.650816	3.167511	3.132388	158.274238	-64.808423	-72.209655			
41044	9.398848	4.172746	-7.579193	-2.143026	3.244775	2.355830	157.838294	-64.575257	-71.868343			
41045	8.654481	3.179722	-6.947773	-1.268231	2.919005	1.284742	157.246985	-64.463168	-71.424267			
41046	7.655735	1.305564	-6.659227	0.470310	2.996574	-0.042368	156.547269	-64.409551	-70.921550			
41047	6.929127	0.011020	-6.062811	1.636961	2.701916	-1.164547	155.815116	-64.341719	-70.457810			
41048	6.513933	-1.883576	-5.871490	3.479462	2.605709	-1.966874	155.043513	-64.225628	-70.109430			
41049	6.706457	-3.628008	-5.733551	5.266433	2.286537	-2.193728	154.336912	-64.094496	-69.867452			
41050	7.540488	-3.972154	-5.382443	5.733739	1.573070	-1.672839	153.866827	-64.029159	-69.725728			
41051	8.381952	-3.429104	-5.209369	5.329242	1.092077	-0.893050	153.723486	-64.088727	-69.667594			
41052	8.450113	-2.234082	-5.119328	4.145234	1.077382	-0.633411	153.989275	-64.258459	-69.657782			
41053	8.339130	-0.338612	-4.897921	2.192372	1.067602	-0.447935	154.679597	-64.471087	-69.724869			
41054	8.045137	1.298258	-4.497904	0.413892	0.925653	-0.560013	155.730032	-64.683077	-69.915956			
41055	7.831428	2.545259	-4.070776	-0.985537	0.661141	-0.703817	157.040512	-64.843497	-70.248523			
41056	7.910117	3.541999	-3.992548	-2.066694	0.545358	-0.512881	158.436369	-64.945186	-70.685346			
41057	8.159275	4.046283	-3.996012	-2.628965	0.405512	-0.229503	159.702922	-65.036651	-71.131443			
41058	8.252822	4.032909	-3.998233	-2.687960	0.332958	-0.167858	160.696466	-65.150129	-71.540411			
41059	8.302366	3.265565	-4.352708	-1.971733	0.633601	-0.104453	161.370374	-65.273524	-71.904346			
41060	8.058644	2.469902	-4.375922	-1.256950	0.768289	-0.430759	161.764940	-65.374248	-72.253941			
41061	7.710411	1.577137	-4.362243	-0.437218	0.916957	-0.872051	161.944129	-65.425491	-72.623745			
41062	7.535358	0.950191	-4.159250	0.150628	0.813706	-1.192999	161.986198	-65.456270	-73.025759			
41063	7.326476	0.231786	-3.992083	0.833587	0.749208	-1.541562	161.983478	-65.478646	-73.459210			
41064	7.304240	-0.257597	-4.013943	1.322521	0.771894	-1.616034	161.992554	-65.476948	-73.893427			
41065	7.076741	-0.385175	-3.856214	1.416350	0.707509	-1.901153	162.070409	-65.480501	-74.300575			
41066	7.169829	-0.389707	-3.704226	1.418163	0.521310	-1.875644	162.246870	-65.470857	-74.711486			
41067	7.256945	-0.473970	-3.807176	1.506263	0.569153	-1.763483	162.569527	-65.456824	-75.135284			
41068	7.259416	-0.434184	-3.981094	1.455475	0.720527	-1.682552	163.080794	-65.468498	-75.561533			
41069	7.287080	-0.476137	-4.010176	1.466774	0.735027	-1.644584	163.703601	-65.537513	-75.971443			
41070	7.322518	-0.701455	-3.824962	1.640413	0.557827	-1.704709	164.375773	-65.674359	-76.368461			
41071	6.747730	-0.963064	-3.428804	1.779319	0.440042	-2.406187	165.057028	-65.848386	-76.757058			
41072	6.449914	-0.918502	-3.045526	1.649057	0.221909	-2.816152	165.739549	-65.932620	-77.173654			
41073	6.846648	-0.880932	-2.815809	1.604521	-0.144408	-2.533540	166.342874	-65.920296	-77.575790			
41074	7.293825	-0.701992	-2.740987	1.436170	-0.399399	-2.132614	166.828462	-65.847562	-77.919515			
41075	7.612462	-0.412350	-2.525476	1.147597	-0.739200	-1.898511	167.183043	-65.745286	-78.177967			
41076	7.817884	-0.115916	-2.348619	0.851224	-1.001689	-1.755345	167.410527	-65.627380	-78.333844			
41077	8.048534	0.022076	-2.289498	0.725654	-1.168756	-1.558683	167.543952	-65.486176	-78.383217			
41078	8.240710	0.162116	-2.352517	0.603562	-1.212100	-1.348858	167.652750	-65.322373	-78.362428			
41079	8.453567	0.316157	-2.419667	0.471680	-1.262244	-1.117761	167.748418	-65.167880	-78.293026			
41080	8.414738	0.579892	-2.441171	0.207973	-1.249632	-1.123698	167.856882	-65.052027	-78.190378			
41081	8.565248	0.698349	-2.496011	0.105651	-1.279374	-0.956432	167.941743	-64.964587	-78.086677			
41082	8.499467	0.647708	-2.573685	0.153727	-1.190886	-0.989849	167.979465	-64.921765	-77.969077			
41083	8.452990	0.736541	-2.562029	0.064578	-1.184541	-1.029054	167.918951	-64.951400	-77.807002			
41084	8.341174	0.506446	-2.498829	0.289565	-1.180600	-1.175667	167.746572	-65.037247	-77.607822			
41085	8.364145	0.295163	-2.422697	0.511215	-1.237479	-1.203230	167.496188	-65.146265	-77.374536			
41086	8.448665	0.214041	-2.419894	0.612860	-1.253118	-1.133074	167.201899	-65.255284	-77.118605			
41087	8.688129	0.146284	-2.489484	0.719868	-1.267949	-0.892118	166.883533	-65.329008	-76.836984			
41088	9.117829	0.081350	-2.616167	0.845788	-1.313783	-0.456174	166.587839	-65.348825	-76.578603			
41089	9.461043	0.220516	-2.726447	0.761218	-1.351255	-0.087046	166.330455	-65.325741	-76.365082			
41090	9.648733	0.601258	-2.980708	0.422490	-1.206301	0.222775	166.152231	-65.266922	-76.245713			
41091	9.916123	0.791993	-3.192570	0.275893	-1.138363	0.568894	166.067387	-65.152873	-76.272479			
41092	10.364945	0.868712	-3.321733	0.252134	-1.226400	1.034109	166.098583	-65.030255	-76.435716			
41093	10.713719	0.798004	-3.275899	0.350776	-1.434016	1.321611	166.248311	-64.923304	-76.695354			
41094	11.203797	0.233733	-3.432442	0.949594	-1.509796	1.770925	166.495007	-64.832024	-77.028530			
41095	11.775477	0.273060	-3.259351	0.934833	-1.924181	2.219907	166.849025	-64.800114	-77.392157			
41096	12.014137	0.169244	-3.233888	1.025622	-2.054369	2.416528	167.238573	-64.820578	-77.785104			
41097	12.286458	0.087352	-3.276633	1.093118	-2.128199	2.676376	167.656567	-64.879929	-78.222845			
41098	12.233469	0.118725	-3.627579	1.019975	-1.781276	2.781663	168.160687	-64.967686	-78.742924			
41099	12.237241	0.747398	-4.287110	0.358131	-1.176814	3.116913	168.694576	-65.081273	-79.339010			
41100	12.427843	1.317622	-4.871481	-0.236643	-0.708246	3.579878	169.215523	-65.221661	-79.978363			
41101	12.176912	1.395744	-5.389340	-0.373013	-0.101630	3.570901	169.674213	-65.421386	-80.593621			
41102	11.581517	0.727218	-5.930950	0.223698	0.676463	3.199947	170.043408	-65.626586	-81.107196			
41103	10.775441	-0.323801	-6.755147	1.212668	1.786267	2.724679	170.349348	-65.767346	-81.466777			
41104	10.717688	-0.820106	-7.362845	1.695586	2.375647	2.885113	170.638526	-65.788788	-81.719212			
41105	10.870706	-1.560401	-7.569343	2.427737	2.488002	3.064344	170.850458	-65.697170	-81.899687			
41106	11.165388	-2.425823	-7.459446	3.292258	2.225765	3.241070	171.017007	-65.468616	-82.049495			
41107	11.042955	-2.324112	-7.263192	3.167163	2.040260	3.067856	171.234251	-65.199178	-82.213244			
41108	10.081551	-1.440963	-7.047289	2.209611	2.203380	2.172344	171.459948	-65.089869	-82.404661			
41109	8.841284	-0.559400	-7.275736	1.248330	2.924032	1.201359	171.700568	-65.158804	-82.623756			
41110	7.603944	0.376766	-7.400338	0.223651	3.579959	0.180338	172.031875	-65.396778	-82.868043			
41111	6.860943	1.197754	-7.244041	-0.676288	3.794276	-0.532122	172.444729	-65.785854	-83.121317			
41112	5.873629	2.060564	-6.980200	-1.640125	4.012052	-1.525260	172.945247	-66.238234	-83.357343			
41113	5.448166	3.436806	-6.213081	-3.096977	3.520450	-2.189611	173.386987	-66.644265	-83.481934			
41114	6.076615	4.393088	-5.424771	-4.069262	2.570094	-1.907740	173.612081	-66.932860	-83.468077			
41115	7.287620	4.532140	-4.745536	-4.173811	1.499307	-1.066197	173.553450	-67.198900	-83.309160			
41116	7.842128	3.877765	-4.231130	-3.491190	0.864919	-0.784858	173.183016	-67.531246	-83.012943			
41117	7.843020	2.898826	-3.788872	-2.491376	0.519430	-0.992559	172.577613	-67.759339	-82.635123			
41118	8.102709	1.914972	-3.521461	-1.462547	0.212118	-0.894307	171.898550	-67.765095	-82.237568			
41119	8.446109	1.176308	-3.776668	-0.658239	0.319634	-0.514946	171.177400	-67.585043	-81.865800			
41120	9.030168	0.550228	-4.105754	0.058642	0.373615	0.115076	170.463669	-67.311106	-81.581037			
41121	9.552397	-0.048949	-4.398160	0.753161	0.397896	0.669128	169.751531	-67.052557	-81.350317			
41122	9.011238	-0.388712	-4.696259	1.128775	0.844727	0.258082	169.084075	-66.941947	-81.087104			
41123	8.167859	-0.506256	-4.992954	1.257662	1.433926	-0.417913	168.475033	-66.951462	-80.762854			
41124	7.581889	-0.573591	-5.201187	1.337351	1.857898	-0.889348	167.954478	-67.009186	-80.375718			
41125	6.959512	-0.559107	-5.265720	1.311707	2.173829	-1.444352	167.519239	-67.111476	-79.895952			
41126	6.666974	-0.625402	-5.050678	1.359227	2.105379	-1.808385	167.181517	-67.184867	-79.355199			
41127	6.696657	-0.572877	-4.737942	1.297135	1.822872	-1.899657	166.935127	-67.215313	-78.774078			
41128	7.132492	-0.357288	-4.455287	1.102029	1.413938	-1.588578	166.741885	-67.251285	-78.181234			
41129	7.331304	-0.039334	-3.986995	0.782548	0.928391	-1.556093	166.516029	-67.377051	-77.548429			
41130	7.466111	0.516324	-3.391880	0.224998	0.353163	-1.606663	166.218859	-67.536094	-76.892851			
41131	7.768112	1.095892	-3.036929	-0.323150	-0.066350	-1.406822	165.817699	-67.681054	-76.189031			
41132	7.880547	1.718613	-3.106177	-0.910707	-0.025799	-1.217640	165.277454	-67.839384	-75.373526			
41133	7.605735	2.329786	-3.167078	-1.517390	0.146178	-1.387634	164.607602	-67.997342	-74.467660			
41134	7.553102	2.539910	-3.253585	-1.699236	0.261293	-1.378797	163.896355	-68.079308	-73.572243			
41135	7.703085	2.639082	-3.300273	-1.748267	0.258169	-1.206243	163.262247	-68.082098	-72.746344			
41136	8.004756	2.607969	-3.448627	-1.652159	0.290440	-0.870842	162.766515	-68.056545	-72.024384			
41137	8.404274	2.537425	-3.241510	-1.513101	-0.044992	-0.577635	162.402974	-68.041070	-71.435741			
41138	8.699259	2.364281	-2.954278	-1.289079	-0.411479	-0.423138	162.155002	-68.058537	-70.960312			
41139	8.948739	2.255423	-2.802807	-1.139086	-0.632342	-0.256265	162.010252	-68.107984	-70.602558			
41140	8.930091	2.068002	-2.676272	-0.949976	-0.726141	-0.338732	161.926268	-68.196959	-70.345338			
41141	8.701931	1.841844	-2.627256	-0.753585	-0.666367	-0.592790	161.873305	-68.314801	-70.149475			
41142	8.477314	1.912087	-2.370297	-0.852198	-0.815162	-0.882487	161.842069	-68.443967	-69.998330			
41143	8.210627	1.957213	-2.109472	-0.931050	-0.950148	-1.214706	161.762120	-68.592502	-69.873823			
41144	7.805240	2.091464	-1.835699	-1.114180	-1.054024	-1.669385	161.645642	-68.734222	-69.751899			
41145	7.707290	2.081211	-1.711517	-1.114528	-1.116915	-1.801860	161.471384	-68.848291	-69.631508			
41146	7.445953	2.150158	-1.625514	-1.211642	-1.095109	-2.064118	161.245005	-68.938344	-69.496235			
41147	7.420232	2.071219	-1.440556	-1.129104	-1.242030	-2.157137	160.990683	-68.981925	-69.360149			
41148	7.536899	2.030546	-1.368462	-1.065922	-1.340120	-2.075211	160.791927	-68.959334	-69.259879			
41149	7.742248	2.217477	-1.325717	-1.216635	-1.458799	-1.874877	160.637841	-68.902525	-69.166417			
41150	8.124872	2.007846	-1.413075	-0.950944	-1.502501	-1.513293	160.523213	-68.806608	-69.100032			
41151	8.577350	1.780499	-1.460524	-0.658004	-1.610198	-1.103582	160.422890	-68.721741	-69.034411			
41152	8.783792	1.423894	-1.766583	-0.269552	-1.385711	-0.851078	160.345723	-68.648522	-68.974232			
41153	9.053908	1.245333	-2.045953	-0.050585	-1.216707	-0.526833	160.322000	-68.575817	-68.939309			
41154	9.333013	0.903672	-2.404230	0.328271	-0.967896	-0.186811	160.331937	-68.540046	-68.937916			
41155	9.532956	0.878858	-2.738667	0.377780	-0.723193	0.111234	160.387683	-68.555708	-68.962947			
41156	9.679042	1.089850	-2.933535	0.180591	-0.597966	0.340493	160.524151	-68.588930	-69.044152			
41157	9.871627	1.564257	-2.925667	-0.276940	-0.691399	0.574838	160.736181	-68.630293	-69.163223			
41158	10.041905	2.038181	-2.770245	-0.739868	-0.916383	0.736299	160.973072	-68.684974	-69.276073			
41159	10.353209	2.295870	-2.411998	-0.969236	-1.369603	0.932658	161.213951	-68.740117	-69.370678			
41160	10.626211	2.477377	-2.055709	-1.124436	-1.805886	1.084749	161.417288	-68.781489	-69.405480			
41161	11.035719	2.295157	-1.718264	-0.893258	-2.250449	1.329343	161.481699	-68.817775	-69.314682			
41162	11.311084	1.963233	-1.418303	-0.518610	-2.598946	1.447108	161.343234	-68.869141	-69.037250			
41163	10.967323	1.782969	-1.532593	-0.367771	-2.349706	1.148769	160.999340	-68.933432	-68.546933			
41164	10.616240	1.546665	-2.060778	-0.159967	-1.701759	0.977207	160.453812	-68.965330	-67.914065			
41165	10.397360	1.375099	-2.720565	0.005149	-0.979927	0.977912	159.828915	-68.961221	-67.231182			
41166	10.442367	1.428557	-3.442436	-0.014687	-0.303537	1.270707	159.176801	-68.947018	-66.553816			
41167	10.719228	2.063781	-3.725782	-0.567661	-0.155782	1.706680	158.575036	-68.935837	-65.944966			
41168	10.839816	3.224366	-3.819276	-1.662273	-0.172726	2.006446	158.081913	-68.928938	-65.435240			
41169	10.420170	4.338819	-4.133590	-2.804106	0.192188	1.874564	157.742002	-68.910996	-65.059327			
41170	10.197267	5.136042	-4.991643	-3.623248	1.012078	2.067018	157.599191	-68.820825	-64.862719			
41171	10.365221	5.553319	-6.095440	-4.020187	1.937842	2.657847	157.675035	-68.636754	-64.872487			
41172	11.121115	5.777535	-6.796116	-4.128965	2.275753	3.641623	157.861276	-68.353096	-65.017030			
41173	11.382541	5.194747	-7.318326	-3.505318	2.658699	3.998513	157.914637	-68.085346	-65.121376			
41174	10.611857	4.340598	-7.316687	-2.748704	2.941011	3.178890	157.684473	-67.901909	-65.056345			
41175	9.802625	3.112926	-7.050016	-1.604562	3.043190	2.172656	157.125072	-67.756774	-64.847626			
41176	9.351133	1.427822	-6.673072	0.072005	2.954572	1.380026	156.282078	-67.596061	-64.550744			
41177	8.761500	-0.117342	-6.503506	1.602796	3.079270	0.532425	155.230848	-67.414154	-64.165286			
41178	8.112165	-1.644890	-6.609220	3.119546	3.453074	-0.297545	154.004578	-67.231868	-63.722162			
41179	7.725778	-3.268548	-6.688521	4.782377	3.675826	-0.940107	152.747732	-67.053336	-63.349614			
41180	7.822924	-4.098725	-6.439251	5.724521	3.371288	-1.133718	151.626908	-66.969044	-63.041814			
41181	8.109707	-4.390786	-5.807569	6.116046	2.640558	-1.187433	150.696782	-67.022899	-62.757228			
41182	8.231597	-4.137904	-5.120540	5.891006	1.945638	-1.291431	150.150379	-67.208120	-62.519547			
41183	8.505594	-3.213162	-4.723837	5.006807	1.508506	-1.001312	150.176898	-67.421398	-62.469776			
41184	8.952825	-1.679082	-4.278323	3.512763	0.983812	-0.433527	150.727536	-67.643016	-62.607291			
41185	9.211417	-0.282264	-3.769684	2.088649	0.452659	-0.087850	151.655626	-67.881341	-62.873439			
41186	9.093745	0.660512	-3.453800	1.040591	0.206492	-0.120680	152.925855	-68.112723	-63.283747			
41187	8.983547	1.681708	-3.125723	-0.091778	-0.094409	-0.154313	154.527086	-68.271319	-63.890701			
41188	8.930583	2.291492	-3.387050	-0.799982	0.111940	-0.023675	156.230723	-68.353459	-64.635641			
41189	8.773003	2.425917	-3.737789	-1.060028	0.435461	-0.039903	157.899361	-68.347201	-65.484229			
41190	8.562242	2.326171	-4.026709	-1.091514	0.723866	-0.157580	159.415555	-68.257369	-66.366276			
41191	8.262284	2.364652	-4.379092	-1.260141	1.093592	-0.312750	160.639492	-68.126001	-67.183088			
41192	7.954432	2.390143	-4.672125	-1.394339	1.421487	-0.493383	161.499999	-67.990222	-67.883571			
41193	7.686824	2.279990	-4.585411	-1.347998	1.408722	-0.784402	161.954577	-67.862159	-68.449000			
41194	7.496736	2.036805	-4.370061	-1.130035	1.272967	-1.063424	162.123067	-67.719930	-68.922364			
41195	7.671979	1.563138	-3.961574	-0.614044	0.849587	-1.100751	162.103631	-67.566028	-69.313729			
41196	8.118355	0.937800	-3.508651	0.091438	0.294424	-0.924341	162.005444	-67.427617	-69.649463			
41197	8.458271	0.384673	-3.100650	0.702846	-0.190959	-0.825260	161.940384	-67.328368	-69.974695			
41198	8.427869	-0.034447	-3.050506	1.117238	-0.218858	-0.922265	162.009712	-67.283624	-70.350094			
41199	8.305193	-0.191293	-3.176995	1.247649	-0.060018	-1.006675	162.257676	-67.291827	-70.828036			
41200	8.159325	-0.439072	-3.519866	1.454503	0.317094	-1.041107	162.683403	-67.353295	-71.411418			
41201	7.834544	-0.422823	-3.659470	1.366934	0.563633	-1.282490	163.304666	-67.463357	-72.096906			
41202	7.437621	-0.255700	-3.511895	1.113300	0.568052	-1.679132	164.038421	-67.603562	-72.813993			
41203	7.099203	0.126021	-3.189254	0.652315	0.380909	-2.065744	164.823512	-67.731177	-73.531806			
41204	6.846487	0.417909	-2.857805	0.294039	0.154201	-2.389365	165.603442	-67.809075	-74.233531			
41205	6.770303	0.363541	-2.486964	0.305906	-0.165246	-2.599285	166.307052	-67.817851	-74.886737			
41206	6.809617	0.211981	-2.087122	0.434079	-0.556396	-2.722283	166.908749	-67.757883	-75.445718			
41207	7.066174	0.097044	-1.932925	0.552536	-0.806547	-2.551795	167.371745	-67.631966	-75.876909			
41208	7.340509	-0.158757	-1.889532	0.820075	-0.960807	-2.337202	167.649273	-67.456731	-76.160073			
41209	7.503803	-0.158031	-1.857337	0.831233	-1.078074	-2.201611	167.725294	-67.256975	-76.276486			
41210	7.673559	-0.328723	-1.956587	1.022499	-1.071072	-2.026352	167.615776	-67.037876	-76.254859			
41211	7.782994	-0.257924	-2.217599	0.975530	-0.904439	-1.825856	167.401613	-66.791423	-76.132351			
41212	8.046231	-0.153266	-2.447264	0.916263	-0.829587	-1.492439	167.129388	-66.538758	-75.940154			
41213	8.233647	-0.005317	-2.639931	0.810939	-0.758702	-1.237791	166.818859	-66.341410	-75.684578			
41214	8.235228	0.195774	-2.702411	0.635475	-0.728845	-1.197281	166.497708	-66.209722	-75.367734			
41215	8.270447	0.243802	-2.741636	0.614701	-0.719676	-1.147789	166.187802	-66.113817	-75.031407			
41216	8.401362	0.299623	-2.616755	0.594530	-0.896550	-1.074109	165.915699	-66.021537	-74.718307			
41217	8.584967	0.428713	-2.375308	0.505788	-1.207018	-0.991419	165.692015	-65.898625	-74.468674			
41218	8.782989	0.410042	-2.271568	0.565015	-1.398245	-0.857540	165.519447	-65.721263	-74.286451			
41219	9.006870	0.491523	-2.446021	0.527731	-1.356397	-0.580683	165.371615	-65.518593	-74.154114			
41220	9.059688	0.724856	-2.572842	0.320500	-1.300545	-0.462358	165.223413	-65.313583	-74.045051			
41221	9.128354	1.025737	-2.699908	0.048861	-1.254667	-0.321018	165.053069	-65.103484	-73.952675			
41222	9.438966	1.193451	-2.890520	-0.059930	-1.245587	0.052316	164.886023	-64.875957	-73.851624			
41223	9.992204	1.298487	-3.022498	-0.077166	-1.391097	0.614415	164.766594	-64.645269	-73.762144			
41224	10.728757	1.069733	-3.046981	0.256941	-1.697939	1.259147	164.695312	-64.452414	-73.670966			
41225	11.475471	0.497384	-2.809830	0.927624	-2.226889	1.763556	164.657724	-64.324460	-73.613184			
41226	12.099676	0.040499	-2.541435	1.462095	-2.729003	2.157170	164.689328	-64.256295	-73.616290			
41227	12.420496	-0.223191	-2.364193	1.758748	-3.025510	2.338898	164.783053	-64.211113	-73.746363			
41228	12.418817	-0.234955	-2.600234	1.761424	-2.824569	2.433234	164.913672	-64.164512	-73.969028			
41229	12.705482	-0.113010	-2.829748	1.660137	-2.762114	2.799375	165.076210	-64.092859	-74.301556			
41230	12.467818	-0.036737	-3.331775	1.542217	-2.233526	2.804025	165.253067	-64.036328	-74.675959			
41231	12.257363	0.120933	-3.903866	1.346462	-1.652101	2.874127	165.483956	-64.004060	-75.096777			
41232	12.052276	0.649903	-4.499818	0.779630	-1.054880	3.001657	165.784779	-64.014701	-75.546385			
41233	12.215275	1.608731	-4.699596	-0.188116	-0.974148	3.336558	166.157623	-64.053588	-76.032467			
41234	11.993551	1.814593	-5.166827	-0.447472	-0.457258	3.356392	166.526887	-64.136493	-76.467390			
41235	11.476282	1.015470	-5.656891	0.266841	0.241443	3.017239	166.827648	-64.273371	-76.799580			
41236	10.803474	0.213649	-6.294532	0.977474	1.141930	2.601912	167.109333	-64.380826	-76.984222			
41237	10.425558	-0.578536	-6.986612	1.713872	1.955190	2.478754	167.340281	-64.377018	-77.067246			
41238	10.767044	-1.252567	-7.179101	2.400425	1.990729	2.809220	167.515015	-64.257455	-77.082324			
41239	10.500556	-2.232971	-7.505582	3.344533	2.399308	2.622703	167.623257	-64.092340	-77.084818			
41240	9.608632	-2.790426	-7.914437	3.804334	3.135409	1.953652	167.830852	-63.907551	-77.102057			
41241	8.731424	-2.276014	-7.974643	3.179543	3.519652	1.255975	168.201220	-63.738488	-77.220818			
41242	7.900835	-1.450203	-8.218307	2.232500	4.047467	0.708746	168.673539	-63.666060	-77.391701			
41243	7.260900	-0.399491	-8.272492	1.063558	4.329872	0.258806	169.240931	-63.768985	-77.578962			
41244	6.256567	0.912950	-8.026492	-0.421869	4.506531	-0.652179	169.946268	-64.122265	-77.738832			
41245	5.286256	2.404366	-7.426454	-2.086647	4.334147	-1.704817	170.772999	-64.599893	-77.938795			
41246	5.008890	3.682850	-7.022661	-3.471165	4.021319	-2.082920	171.559346	-64.944317	-78.117700			
41247	5.881629	4.656864	-6.021889	-4.396014	2.679966	-1.686458	172.071165	-65.168600	-78.188453			
41248	7.065912	4.336078	-5.263003	-3.976986	1.535871	-0.966644	172.195202	-65.423516	-78.043040			
41249	7.871469	3.269913	-4.536600	-2.818712	0.665417	-0.601549	172.017263	-65.690827	-77.700219			
41250	8.676570	2.467141	-4.002086	-1.907526	-0.046172	-0.130464	171.595290	-65.829732	-77.148630			
41251	9.244316	1.837231	-3.942143	-1.190732	-0.252782	0.330850	170.927151	-65.838176	-76.488311			
41252	9.948910	1.425109	-3.923092	-0.651794	-0.515082	0.944253	170.019433	-65.654645	-75.818995			
41253	10.356204	0.694071	-4.204669	0.185593	-0.375254	1.378197	168.930818	-65.421561	-75.195520			
41254	9.854997	0.419504	-4.137010	0.499844	-0.231093	0.869441	167.834719	-65.242586	-74.548171			
41255	9.273184	0.418464	-4.349038	0.515176	0.185658	0.423559	166.811173	-65.079297	-73.939121			
41256	8.680890	0.322038	-4.624728	0.613261	0.680773	-0.014235	165.834999	-65.000571	-73.280528			
41257	7.896087	0.087058	-4.814022	0.812343	1.198923	-0.678523	164.982322	-65.027461	-72.581373			
41258	7.322316	0.048778	-4.845380	0.821644	1.484632	-1.197759	164.297253	-65.110243	-71.825711			
41259	7.002802	-0.001867	-4.904735	0.854515	1.698632	-1.477220	163.777310	-65.224688	-71.068559			
41260	6.964830	0.064996	-4.574932	0.798800	1.439508	-1.643678	163.393436	-65.382329	-70.288771			
41261	6.714352	0.083444	-4.311947	0.750716	1.334861	-1.980908	163.073535	-65.628865	-69.495666			
41262	6.633501	0.372343	-3.575080	0.471855	0.706632	-2.315951	162.805610	-65.880162	-68.742280			
41263	6.772043	0.429174	-3.185068	0.450569	0.328501	-2.337503	162.501287	-66.109987	-68.021104			
41264	6.989634	0.547194	-2.780503	0.390978	-0.100960	-2.281258	162.125674	-66.329191	-67.302813			
41265	7.156872	0.910836	-2.474035	0.086541	-0.448408	-2.199370	161.630359	-66.535804	-66.532200			
41266	7.172039	1.309999	-2.280227	-0.273913	-0.644162	-2.205877	161.025522	-66.702129	-65.724999			
41267	6.791116	1.500956	-2.398824	-0.506011	-0.392876	-2.483568	160.377139	-66.780754	-64.912397			
41268	6.723401	1.783234	-2.538848	-0.775639	-0.262909	-2.453409	159.851902	-66.698457	-64.220851			
41269	7.147535	1.663637	-2.702317	-0.564814	-0.257653	-2.017051	159.470321	-66.483764	-63.697562			
41270	7.676041	1.468858	-2.887930	-0.262205	-0.275699	-1.489564	159.286047	-66.209043	-63.337264			
41271	8.323671	1.552069	-2.954837	-0.206913	-0.490501	-0.860595	159.257591	-65.972854	-63.100658			
41272	8.942701	1.692718	-2.921062	-0.213964	-0.793313	-0.289315	159.327555	-65.838306	-62.947002			
41273	9.419068	1.781175	-2.882181	-0.207677	-1.027189	0.142218	159.467110	-65.863031	-62.823122			
41274	9.452540	1.905457	-2.855447	-0.335123	-1.071606	0.181017	159.655708	-66.055811	-62.698901			
41275	9.274954	2.077548	-2.820883	-0.560774	-1.037811	0.031431	159.914375	-66.338771	-62.616036			
41276	8.913671	2.087694	-2.757833	-0.665871	-0.936230	-0.320716	160.204381	-66.648993	-62.583726			
41277	8.577166	2.026388	-2.645961	-0.691700	-0.879672	-0.679086	160.509690	-66.945267	-62.610520			
41278	8.293522	1.797997	-2.531847	-0.541783	-0.822170	-1.011783	160.839858	-67.209380	-62.713604			
41279	7.984220	1.679020	-2.257804	-0.482615	-0.927383	-1.412003	161.191715	-67.435000	-62.886243			
41280	7.775587	1.721690	-1.961404	-0.557028	-1.122603	-1.707104	161.591300	-67.606312	-63.138894			
41281	7.642033	1.817280	-1.731908	-0.673062	-1.298947	-1.903050	162.000086	-67.714895	-63.424723			
41282	7.627572	2.120714	-1.338776	-0.947793	-1.710342	-2.025134	162.401356	-67.763022	-63.718928			
41283	7.832028	2.284448	-0.878887	-1.035179	-2.238018	-1.986355	162.706836	-67.782667	-63.962489			
41284	8.007474	2.492790	-0.443994	-1.168493	-2.738731	-1.959997	162.875046	-67.809346	-64.095487			
41285	8.177928	2.317262	-0.191636	-0.943501	-2.997763	-1.912804	162.888515	-67.851274	-64.105835			
41286	8.192995	2.197473	-0.470971	-0.858494	-2.718698	-1.809717	162.830370	-67.888499	-64.024356			
41287	8.335164	2.041924	-0.876935	-0.729310	-2.358345	-1.547112	162.728747	-67.924134	-63.886912			
41288	8.748297	1.917256	-1.303435	-0.586979	-2.077160	-1.023582	162.675104	-67.935902	-63.769131			
41289	8.941857	1.722385	-1.988601	-0.445565	-1.478045	-0.620582	162.739241	-67.887194	-63.727922			
41290	9.628959	1.764568	-2.594121	-0.446694	-1.178090	0.235820	162.964715	-67.733289	-63.823948			
41291	10.322585	1.754954	-3.116234	-0.388576	-0.968216	1.061960	163.282783	-67.536193	-64.006805			
41292	10.915350	1.978455	-3.418609	-0.551869	-0.979951	1.740709	163.663063	-67.347206	-64.227988			
41293	11.382339	2.276242	-3.402931	-0.772197	-1.257608	2.193178	164.057817	-67.192467	-64.455564			
41294	11.675484	2.437665	-3.182543	-0.863809	-1.630557	2.393161	164.392032	-67.101635	-64.645316			
41295	11.567749	2.525692	-3.260723	-0.990015	-1.566191	2.327786	164.665115	-67.028031	-64.760647			
41296	11.669234	2.680728	-3.630021	-1.182758	-1.318861	2.572627	164.851757	-66.952280	-64.769693			
41297	11.793324	2.249351	-4.446292	-0.854974	-0.549479	2.949706	164.818154	-66.911899	-64.575466			
41298	12.618111	1.696876	-4.890310	-0.227051	-0.325285	3.820135	164.560623	-66.924656	-64.189525			
41299	13.475727	1.738153	-4.810345	-0.082390	-0.680643	4.584726	164.077690	-67.030627	-63.622642			
41300	13.209110	2.487438	-5.100621	-0.865322	-0.422396	4.531534	163.462969	-67.163145	-62.975783			
41301	12.350282	3.410540	-5.840667	-1.978565	0.414293	4.122444	162.784126	-67.204933	-62.417504			
41302	11.808441	3.681998	-6.559914	-2.384156	1.246026	3.927457	162.044076	-67.190113	-61.988727			
41303	11.010724	4.290848	-6.878201	-3.097646	1.732439	3.391849	161.330636	-67.157252	-61.654444			
41304	10.225456	4.956081	-6.982377	-3.832957	2.004027	2.803496	160.719763	-67.033358	-61.480561			
41305	9.476424	4.894967	-6.854211	-3.822654	2.175307	2.078417	160.153216	-66.840950	-61.391085			
41306	8.650361	3.957593	-6.403354	-2.939960	2.228392	1.044785	159.569917	-66.704650	-61.290397			
41307	7.642164	2.930603	-6.035268	-2.027836	2.434433	-0.149527	158.970274	-66.645930	-61.125822			
41308	6.832485	1.462871	-5.587533	-0.648928	2.562593	-1.265461	158.291413	-66.619657	-60.926421			
41309	6.334733	-0.008943	-5.354884	0.769904	2.763844	-2.029896	157.582966	-66.607776	-60.716365			
41310	6.277730	-1.269298	-5.240992	2.056682	2.866149	-2.326436	156.914158	-66.565331	-60.592738			
41311	7.089509	-2.132933	-5.263355	3.114814	2.705850	-1.720135	156.480592	-66.437249	-60.734939			
41312	8.148276	-2.643756	-5.567531	3.851779	2.640697	-0.725809	156.377393	-66.262584	-61.150703			
41313	8.958173	-2.532438	-6.217507	3.891627	2.897124	0.275983	156.575523	-66.191251	-61.661872			
41314	9.218608	-1.431907	-6.495605	2.835770	2.913362	0.803177	157.061012	-66.293346	-62.179220			
41315	9.451241	-0.276108	-6.253712	1.700853	2.479969	1.117429	157.809583	-66.517887	-62.740283			
41316	9.862689	0.644398	-5.427861	0.826027	1.474962	1.335891	158.874307	-66.779844	-63.400689			
41317	10.059626	1.495555	-4.866392	-0.049537	0.788263	1.434074	160.115305	-67.028887	-64.124450			
41318	10.130836	2.237010	-4.651238	-0.859664	0.467919	1.514853	161.294715	-67.267277	-64.851907			
41319	9.973375	2.404318	-4.494287	-1.132963	0.359361	1.324376	162.249216	-67.518454	-65.541086			
41320	8.971214	2.164600	-4.492008	-1.132997	0.757250	0.360254	163.002507	-67.811605	-66.194749			
41321	7.976626	2.104224	-4.279234	-1.263961	0.934122	-0.653225	163.647201	-68.028754	-66.898022			
41322	7.280443	1.885717	-4.183283	-1.178206	1.130415	-1.363158	164.103478	-68.153325	-67.626506			
41323	6.662067	1.513676	-4.017538	-0.900713	1.248673	-2.038082	164.420602	-68.209546	-68.362873			
41324	6.154096	1.285104	-3.897243	-0.737850	1.344999	-2.576705	164.652925	-68.201353	-69.088084			
41325	5.959440	1.255884	-3.713079	-0.718081	1.243265	-2.825716	164.875314	-68.139241	-69.815343			
41326	6.108290	1.150106	-3.700401	-0.590098	1.185150	-2.701139	165.128657	-68.071294	-70.551728			
41327	6.397023	0.943266	-3.377419	-0.333360	0.798597	-2.569089	165.424036	-68.070058	-71.277286			
41328	7.080770	0.663078	-2.835394	0.039639	0.075578	-2.157028	165.834579	-68.115008	-72.057149			
41329	7.589192	0.155090	-2.473427	0.591286	-0.398571	-1.861011	166.359287	-68.229578	-72.894869			
41330	7.581938	-0.417841	-2.563380	1.119145	-0.265353	-1.881215	167.046060	-68.368823	-73.824883			
41331	7.374134	-0.568620	-2.766333	1.197749	0.007044	-2.007628	167.899492	-68.453138	-74.844816			
41332	7.154169	-0.501058	-2.951447	1.059600	0.243380	-2.134010	168.800172	-68.462612	-75.905316			
41333	7.133051	-0.596434	-3.161060	1.105283	0.432602	-2.078382	169.683363	-68.377008	-76.940238			
41334	7.259220	-0.518546	-3.463488	0.992149	0.634335	-1.839358	170.505050	-68.217500	-77.894241			
41335	7.648045	-0.116756	-3.496002	0.588578	0.464929	-1.436204	171.213084	-68.025024	-78.735075			
41336	8.182928	0.212483	-3.296322	0.278139	0.031608	-0.992669	171.713337	-67.868832	-79.413540			
41337	8.578233	0.250041	-3.079582	0.254444	-0.339955	-0.704884	171.976899	-67.801089	-79.906947			
41338	8.703190	0.419562	-2.725508	0.090666	-0.729543	-0.712715	172.039060	-67.812319	-80.221488			
41339	8.690205	0.477973	-2.497138	0.033745	-0.933924	-0.806553	171.890765	-67.862444	-80.361837			
41340	8.526267	0.394284	-2.400104	0.115811	-0.948348	-0.997905	171.556635	-67.939059	-80.348003			
41341	8.144087	0.206532	-2.311831	0.295172	-0.869200	-1.394214	171.108913	-68.009125	-80.214263			
41342	7.873849	0.207033	-2.426299	0.297715	-0.652048	-1.602118	170.601267	-68.052132	-79.987535			
41343	7.803411	0.309665	-2.482365	0.215047	-0.567753	-1.640625	170.062616	-68.075391	-79.710581			
41344	7.831776	0.398725	-2.398731	0.154076	-0.648325	-1.639226	169.460547	-68.118185	-79.394236			
41345	7.760897	0.211863	-2.267635	0.362402	-0.727810	-1.765487	168.784903	-68.202249	-79.041169			
41346	7.940903	-0.127731	-2.067729	0.739214	-0.962174	-1.696195	168.100249	-68.265376	-78.678712			
41347	8.405140	-0.430041	-1.868734	1.098164	-1.304705	-1.361936	167.451491	-68.304022	-78.320233			
41348	9.005823	-0.672108	-1.582374	1.402398	-1.782723	-0.929241	166.870172	-68.328387	-78.008453			
41349	9.238835	-0.815884	-1.486961	1.581846	-1.954289	-0.762203	166.414896	-68.327649	-77.809043			
41350	9.186881	-0.665045	-1.699428	1.450529	-1.742418	-0.724836	166.147774	-68.264726	-77.765926			
41351	9.233467	-0.254149	-2.055186	1.067953	-1.440096	-0.521248	166.067094	-68.136570	-77.883073			
41352	9.280684	0.199530	-2.340482	0.634142	-1.210870	-0.337438	166.134980	-67.974567	-78.113410			
41353	9.430462	0.611826	-2.567227	0.241118	-1.078353	-0.082450	166.339045	-67.798294	-78.389340			
41354	9.961205	1.038851	-2.679505	-0.149293	-1.195736	0.484516	166.636351	-67.628430	-78.672051			
41355	10.452921	1.232500	-2.709386	-0.320022	-1.377849	0.963324	166.969031	-67.513813	-78.943174			
41356	10.842480	1.115917	-2.530244	-0.204113	-1.715271	1.242759	167.328170	-67.434591	-79.226853			
41357	11.304480	1.068003	-2.395475	-0.152004	-2.032165	1.611731	167.665918	-67.386881	-79.525264			
41358	11.607425	1.023113	-2.091444	-0.123704	-2.438987	1.771319	167.940795	-67.374903	-79.857333			
41359	11.676745	0.839526	-1.868809	0.030876	-2.677283	1.736113	168.098725	-67.388015	-80.195955			
41360	11.274631	0.566634	-2.146900	0.271738	-2.270740	1.448637	168.143065	-67.423043	-80.513724			
41361	10.928013	0.484501	-2.733306	0.350328	-1.595528	1.343420	168.137049	-67.445322	-80.868210			
41362	11.074984	1.047378	-3.306386	-0.178786	-1.103469	1.738712	168.201759	-67.427672	-81.338694			
41363	11.954675	1.735164	-3.887012	-0.790192	-0.879421	2.822030	168.364682	-67.368601	-81.938698			
41364	12.846045	1.551036	-4.364239	-0.543744	-0.790563	3.809078	168.526396	-67.365291	-82.544681			
41365	12.487883	0.326382	-4.836533	0.677303	-0.274770	3.563093	168.639339	-67.475295	-83.049528			
41366	11.381725	-1.388252	-5.679533	2.392710	0.829505	2.729835	168.768332	-67.547663	-83.407848			
41367	10.473392	-2.627592	-7.197727	3.710001	2.484378	2.372022	168.988597	-67.461501	-83.639318			
41368	10.233464	-3.155290	-8.214346	4.295395	3.439802	2.510953	169.316248	-67.187141	-83.849608			
41369	10.371599	-3.291119	-8.808822	4.460587	3.841030	2.889486	169.713134	-66.651076	-84.104667			
41370	10.826770	-3.088986	-9.148315	4.272964	3.844887	3.506784	170.221479	-65.907773	-84.451404			
41371	11.162567	-1.843831	-8.924502	2.985089	3.418267	3.864000	170.778984	-65.265648	-84.837489			
41372	10.362894	-0.736830	-8.504167	1.771508	3.325393	3.073597	171.282481	-64.995136	-85.207728			
41373	8.907593	0.607957	-7.642589	0.259669	3.209210	1.490285	171.884264	-65.101186	-85.557463			
41374	7.036625	1.947574	-7.085830	-1.245835	3.590334	-0.374849	172.625760	-65.451418	-85.900037			
41375	5.593932	3.640891	-6.864953	-3.069810	4.104689	-1.725492	173.412785	-65.874065	-86.194954			
41376	5.104835	5.187477	-6.623147	-4.709449	4.164054	-2.241912	173.999989	-66.165816	-86.388728			
41377	6.006049	5.672313	-6.464902	-5.214863	3.675836	-1.485856	174.118982	-66.237747	-86.385636			
41378	7.648438	5.198529	-5.723618	-4.728265	2.331638	-0.300064	173.791638	-66.297622	-86.175617			
41379	8.299581	4.118823	-5.265584	-3.616336	1.651514	0.075097	173.091774	-66.510684	-85.721240			
41380	8.667808	3.142431	-4.430066	-2.615410	0.758565	0.047069	172.121625	-66.739343	-85.113739			
41381	9.141473	2.104282	-3.699085	-1.535646	-0.095483	0.152746	170.979557	-66.833454	-84.495506			
41382	9.449504	1.125276	-3.499780	-0.483503	-0.428555	0.306100	169.770031	-66.770323	-83.925898			
41383	9.685433	0.416639	-3.800750	0.339417	-0.300797	0.590222	168.591625	-66.562341	-83.456682			
41384	9.532535	-0.004074	-4.131758	0.868385	-0.005917	0.540366	167.449986	-66.292696	-83.020632			
41385	8.657242	-0.384749	-4.260738	1.301565	0.387740	-0.252109	166.367470	-66.077368	-82.580286			
41386	7.528712	-0.702900	-4.440410	1.652674	0.945242	-1.253040	165.415414	-65.930079	-82.095246			
41387	6.827332	-0.588433	-4.784268	1.603011	1.533753	-1.755041	164.643727	-65.844006	-81.597772			
41388	6.342009	-0.572116	-5.029313	1.632843	1.951932	-2.107750	164.010723	-65.847813	-81.016281			
41389	5.985242	-0.314381	-4.907777	1.365554	2.023494	-2.460892	163.502949	-65.938252	-80.388072			
41390	5.628587	-0.215823	-4.655607	1.222761	1.968779	-2.882251	163.085071	-66.060154	-79.709165			
41391	5.673286	0.325695	-3.953844	0.605019	1.379458	-3.055753	162.797437	-66.136027	-79.089776			
41392	6.115823	0.727110	-3.404839	0.178294	0.747411	-2.817368	162.539995	-66.172111	-78.501421			
41393	6.824393	1.055336	-2.704355	-0.162281	-0.141123	-2.399635	162.239042	-66.200377	-77.923081			
41394	7.487769	1.410737	-2.171865	-0.500387	-0.860085	-1.952427	161.876808	-66.208494	-77.343360			
41395	7.797188	1.618609	-2.347266	-0.633216	-0.805383	-1.573997	161.432166	-66.171822	-76.771975			
41396	7.901336	2.089116	-2.519966	-1.038736	-0.664434	-1.349521	160.956606	-66.044037	-76.197212			
41397	8.190080	2.311342	-3.010086	-1.139922	-0.334316	-0.864561	160.459813	-65.838583	-75.658432			
41398	8.210083	2.361057	-3.383103	-1.107822	-0.029500	-0.691445	160.057490	-65.560475	-75.192724			
41399	8.541711	2.408347	-3.580761	-1.062520	-0.021206	-0.302002	159.767253	-65.236937	-74.861622			
41400	8.967839	2.437771	-3.724582	-0.998840	-0.108718	0.148619	159.579583	-64.940698	-74.596054			
41401	9.146031	2.470190	-3.657452	-0.995145	-0.280984	0.289752	159.452252	-64.737326	-74.405055			
41402	9.394871	2.210269	-3.429126	-0.719972	-0.631601	0.384884	159.387487	-64.624429	-74.262325			
41403	9.342397	2.035284	-3.133577	-0.579597	-0.898063	0.192292	159.392638	-64.618874	-74.180540			
41404	8.984671	1.973888	-3.040927	-0.573367	-0.834578	-0.177206	159.468153	-64.693150	-74.111701			
41405	8.610764	2.244158	-2.693473	-0.929983	-0.971810	-0.613394	159.595651	-64.817429	-74.099011			
41406	8.181003	2.117153	-2.539066	-0.882180	-0.926537	-1.082209	159.721027	-64.969622	-74.077498			
41407	8.055496	1.910136	-2.382049	-0.720030	-1.008566	-1.287543	159.835900	-65.132583	-74.089831			
41408	7.959940	1.648063	-2.283816	-0.492814	-1.050350	-1.449290	159.930153	-65.303385	-74.087883			
41409	7.863226	1.343941	-2.115554	-0.230418	-1.156297	-1.644340	160.019785	-65.474718	-74.129993			
41410	7.806243	1.115621	-1.918474	-0.040602	-1.303173	-1.802530	160.122153	-65.630369	-74.198787			
41411	7.582357	1.064598	-1.807923	-0.038092	-1.301620	-2.053925	160.298108	-65.748954	-74.339353			
41412	7.680802	1.282251	-1.682420	-0.268421	-1.438399	-1.981444	160.547600	-65.806732	-74.546166			
41413	7.828102	1.579409	-1.239240	-0.602825	-1.891130	-1.978810	160.865829	-65.813163	-74.803513			
41414	7.981619	1.703466	-1.072915	-0.739734	-2.105863	-1.889475	161.211381	-65.796774	-75.041655			
41415	8.140486	1.908555	-1.023171	-0.947303	-2.214116	-1.740683	161.588577	-65.791264	-75.297820			
41416	8.056939	2.127729	-1.190435	-1.176180	-2.025609	-1.727385	161.992176	-65.828344	-75.500145			
41417	8.141170	2.187955	-1.541849	-1.218945	-1.737614	-1.509801	162.447215	-65.887152	-75.717517			
41418	8.541846	2.092512	-1.798738	-1.087221	-1.668146	-1.059838	162.953027	-65.930584	-75.926425			
41419	9.075413	1.748268	-2.172694	-0.691641	-1.551504	-0.471672	163.450229	-65.955354	-76.136528			
41420	9.803056	1.307952	-2.503369	-0.185396	-1.554028	0.268388	163.854953	-65.945034	-76.285647			
41421	10.469436	0.862531	-2.975347	0.333619	-1.402699	1.009828	164.104091	-65.909226	-76.332190			
41422	10.862436	0.556160	-3.452022	0.696260	-1.135651	1.520617	164.219803	-65.859203	-76.252754			
41423	11.319595	0.484054	-3.517661	0.817042	-1.266297	1.954657	164.222960	-65.812184	-76.094809			
41424	11.376009	0.463318	-3.306813	0.840522	-1.485257	1.919780	164.164212	-65.797554	-75.836491			
41425	11.465252	0.358390	-2.950737	0.947269	-1.842565	1.848998	164.090494	-65.820296	-75.537343			
41426	11.164943	0.623301	-2.757415	0.655422	-1.885768	1.530242	164.074254	-65.898477	-75.163995			
41427	10.642598	1.138545	-2.862313	0.098284	-1.565990	1.155083	164.133834	-66.005548	-74.787319			
41428	10.694823	1.669787	-3.034591	-0.418690	-1.417527	1.331435	164.272005	-66.116988	-74.384832			
41429	10.841057	2.203850	-3.812764	-0.924054	-0.753873	1.827776	164.452837	-66.265671	-73.980569			
41430	11.473409	2.786376	-4.467085	-1.441234	-0.395788	2.722223	164.617270	-66.444439	-73.560262			
41431	12.398039	3.775055	-4.467906	-2.339058	-0.765920	3.673108	164.741591	-66.665031	-73.164324			
41432	12.684437	5.131447	-4.453329	-3.672725	-0.932611	4.068959	164.868221	-66.885243	-72.786018			
41433	11.605101	6.466398	-5.337513	-5.160716	0.208131	3.540412	165.121130	-66.983315	-72.524676			
41434	10.774271	6.873279	-6.871445	-5.727014	1.864425	3.388392	165.397340	-66.901977	-72.411139			
41435	10.344154	5.822888	-7.896189	-4.781916	2.996752	3.279675	165.489652	-66.765494	-72.376379			
41436	10.047675	4.953920	-7.810250	-3.945284	3.054209	2.899650	165.406156	-66.589984	-72.321043			
41437	9.495532	4.443678	-7.645847	-3.465271	3.113790	2.297895	165.159195	-66.301600	-72.307079			
41438	8.920569	3.653847	-8.048699	-2.695471	3.721292	1.874671	164.687746	-65.947936	-72.241598			
41439	8.225334	2.410907	-8.246640	-1.456712	4.223469	1.210693	163.922727	-65.671566	-72.013068			
41440	7.489863	0.512583	-7.966374	0.449418	4.349148	0.222529	162.836875	-65.516004	-71.550202			
41441	6.974439	-1.433927	-7.198575	2.433512	3.927581	-0.803296	161.560810	-65.382015	-70.984303			
41442	6.831016	-3.481393	-6.799518	4.564786	3.660030	-1.399522	160.158036	-65.211191	-70.386665			
41443	7.083041	-5.455260	-7.019829	6.692835	3.751046	-1.425757	158.805415	-65.037920	-69.841583			
41444	7.910302	-5.421676	-6.479758	6.862478	2.864095	-0.943806	157.886290	-64.927051	-69.469663			
41445	8.455264	-5.110032	-5.656956	6.645363	1.872144	-0.760662	157.378831	-65.052879	-69.162315			
41446	8.094896	-3.931669	-5.223457	5.400993	1.649921	-1.073323	157.525109	-65.310784	-68.998951			
41447	8.120676	-1.753529	-4.919755	3.181737	1.400386	-0.804973	158.380510	-65.533653	-69.126028			
41448	8.289362	0.070600	-4.654659	1.296567	1.092350	-0.458064	159.699788	-65.739439	-69.471890			
41449	8.519751	1.500579	-4.161072	-0.213602	0.506526	-0.228900	161.284995	-65.941479	-69.970406			
41450	8.922587	2.787953	-3.552399	-1.555215	-0.295038	0.061407	162.978239	-66.140290	-70.500649			
41451	9.165574	3.584724	-3.253868	-2.418315	-0.754231	0.238552	164.547901	-66.360598	-70.973176			
41452	9.095883	3.252112	-3.061090	-2.185381	-0.910927	0.039990	165.859221	-66.568776	-71.384200			
41453	8.686036	2.452200	-3.399229	-1.539496	-0.386700	-0.299788	166.902999	-66.719835	-71.759944			
41454	7.946318	2.163693	-3.999290	-1.443801	0.462247	-0.783767	167.632939	-66.802855	-72.085589			
41455	7.304010	1.958377	-4.607960	-1.397013	1.275517	-1.161764	167.985798	-66.772833	-72.384759			
41456	6.979691	1.882550	-4.806233	-1.379297	1.578137	-1.388498	167.998857	-66.666380	-72.652721			
41457	6.620117	1.916945	-4.559111	-1.419814	1.477198	-1.807185	167.799281	-66.539909	-72.894596			
41458	6.574561	1.688119	-4.162782	-1.143663	1.146771	-2.016522	167.495578	-66.344996	-73.117584			
41459	7.071053	1.513926	-3.682816	-0.855320	0.516069	-1.759310	167.183343	-66.097907	-73.330602			
41460	7.930092	1.482595	-3.252442	-0.678979	-0.233645	-1.143943	166.961575	-65.849592	-73.544581			
41461	8.757964	1.173338	-3.020131	-0.252414	-0.771405	-0.509944	166.867152	-65.689526	-73.800112			
41462	8.932034	0.572814	-3.052132	0.364824	-0.776982	-0.395254	166.866926	-65.715004	-74.082076			
41463	8.240922	-0.184603	-3.269858	1.022994	-0.243165	-1.007397	167.018342	-65.870614	-74.424394			
41464	7.477252	-0.753542	-3.647123	1.474744	0.454273	-1.603100	167.397335	-66.017832	-74.868816			
41465	6.998216	-0.869337	-3.859566	1.504193	0.850548	-1.961515	167.992610	-66.088514	-75.439807			
41466	6.838253	-0.988480	-3.916749	1.569384	0.970022	-2.087683	168.682503	-66.112316	-76.073798			
41467	6.970837	-0.917429	-3.588893	1.482535	0.604808	-2.082838	169.390022	-66.104173	-76.705322			
41468	7.194117	-0.886444	-3.151292	1.448947	0.102989	-2.043416	170.033821	-66.078385	-77.291806			
41469	7.543956	-0.869028	-2.680307	1.445480	-0.479717	-1.905039	170.578268	-66.036433	-77.788203			
41470	8.185408	-0.628279	-2.314702	1.246925	-1.096863	-1.446356	170.990866	-65.978003	-78.144104			
41471	8.476757	-0.442603	-2.182431	1.073430	-1.356863	-1.220775	171.242821	-65.928640	-78.332796			
41472	8.440339	-0.591847	-2.433530	1.202863	-1.113107	-1.162498	171.339080	-65.862956	-78.381922			
41473	8.334850	-0.494734	-2.651431	1.090569	-0.887419	-1.165855	171.314565	-65.794663	-78.318910			
41474	8.085670	-0.317719	-3.049851	0.886663	-0.444616	-1.222185	171.201536	-65.712227	-78.179312			
41475	8.083177	0.012302	-3.255799	0.563245	-0.288050	-1.121434	170.996103	-65.616795	-77.984629			
41476	8.269844	0.418837	-3.409137	0.187315	-0.260894	-0.863678	170.713524	-65.531024	-77.748903			
41477	8.463113	0.654967	-3.362213	-0.006122	-0.402432	-0.691520	170.328650	-65.491038	-77.472301			
41478	8.678177	0.751689	-3.087745	-0.048103	-0.741524	-0.600863	169.876052	-65.512630	-77.152447			
41479	8.878052	0.606657	-2.656090	0.154291	-1.192334	-0.604154	169.373604	-65.588891	-76.797010			
41480	8.863162	0.431072	-2.292442	0.363313	-1.486901	-0.776439	168.870441	-65.691923	-76.434402			
41481	8.796890	0.176218	-2.023730	0.641746	-1.670620	-0.963454	168.384122	-65.768257	-76.067878			
41482	8.725809	-0.029640	-2.080550	0.863185	-1.564738	-1.022024	167.941292	-65.792621	-75.718944			
41483	8.769057	-0.089411	-2.131865	0.950270	-1.526502	-0.968710	167.548621	-65.760317	-75.423312			
41484	8.872594	0.028709	-2.243644	0.864592	-1.475351	-0.821944	167.207630	-65.684391	-75.201136			
41485	9.032142	0.074712	-2.467980	0.853898	-1.346120	-0.585832	166.913584	-65.578950	-75.059160			
41486	9.368664	0.284295	-2.786493	0.697135	-1.215416	-0.135191	166.691051	-65.456242	-74.990437			
41487	9.861494	0.538119	-2.950305	0.512074	-1.292500	0.400545	166.529808	-65.354555	-74.979493			
41488	10.385448	0.689509	-2.796501	0.428486	-1.663409	0.826995	166.427902	-65.301769	-75.024203			
41489	10.743744	0.932923	-2.613640	0.227755	-1.991650	1.101109	166.402576	-65.286957	-75.125736			
41490	11.080610	1.353233	-2.442771	-0.159929	-2.304635	1.378441	166.479937	-65.281092	-75.300150			
41491	11.423985	1.406642	-2.308298	-0.189819	-2.569378	1.640546	166.602327	-65.296063	-75.529727			
41492	11.410380	1.375968	-2.551091	-0.178949	-2.339524	1.723893	166.807627	-65.326876	-75.810405			
41493	11.360056	1.835408	-2.895602	-0.663871	-2.022768	1.860861	167.077421	-65.326076	-76.175487			
41494	11.395670	2.111318	-3.730426	-0.956963	-1.291378	2.255930	167.359427	-65.292089	-76.629848			
41495	11.973586	3.160753	-4.050940	-1.972340	-1.271632	3.003707	167.643754	-65.280040	-77.177744			
41496	12.128305	2.972839	-4.381160	-1.793119	-1.011426	3.259792	167.728798	-65.368591	-77.713311			
41497	12.068006	1.620348	-4.708902	-0.460386	-0.626028	3.219275	167.693320	-65.521793	-78.188729			
41498	11.702126	0.003755	-5.451901	1.133904	0.250578	3.044778	167.633754	-65.676344	-78.559431			
41499	11.350260	-1.019148	-6.507629	2.161842	1.373114	3.058105	167.638600	-65.714457	-78.853518			
41500	11.756371	-1.964423	-7.509869	3.181799	2.099912	3.749602	167.686755	-65.592475	-79.183332			
41501	12.328027	-2.787056	-8.465783	4.095945	2.670744	4.592422	167.842926	-65.340890	-79.593910			
41502	12.259768	-2.774832	-9.053092	4.107202	3.146645	4.788302	168.116930	-65.050925	-80.026661			
41503	11.579404	-1.772000	-8.843965	3.034452	3.180919	4.191307	168.458543	-64.872078	-80.432107			
41504	10.389478	-0.899138	-8.189904	2.023975	3.071653	2.926726	168.788392	-64.910370	-80.837537			
41505	8.547981	-0.407293	-7.515782	1.345941	3.261330	1.016566	169.166042	-65.186418	-81.267572			
41506	7.154616	0.578552	-6.862446	0.198454	3.313874	-0.453481	169.790325	-65.563239	-81.795194			
41507	6.327588	1.789275	-6.460911	-1.135821	3.366342	-1.306209	170.584539	-66.025024	-82.390078			
41508	5.106997	3.055179	-6.147208	-2.539710	3.654037	-2.505107	171.376972	-66.616531	-82.976639			
41509	3.955520	4.219960	-5.972582	-3.814012	4.023085	-3.616447	172.068734	-67.164176	-83.560351			
41510	3.676312	5.005823	-5.880129	-4.638583	4.103478	-3.914025	172.440587	-67.476255	-84.026772			
41511	5.268710	4.915669	-4.908185	-4.514805	2.637249	-2.835964	172.352716	-67.580106	-84.295503			
41512	7.196534	3.412158	-4.220578	-2.940270	1.276888	-1.388302	171.835814	-67.692428	-84.331996			
41513	7.924252	1.973997	-3.412691	-1.479519	0.251634	-1.090056	171.132538	-67.865198	-84.186145			
41514	8.013483	1.321541	-2.669937	-0.831946	-0.466274	-1.316733	170.378638	-67.910455	-84.006761			
41515	8.677215	0.780596	-2.490898	-0.240897	-0.910668	-0.800449	169.584376	-67.706072	-83.922900			
41516	9.344841	0.207826	-2.757542	0.421545	-0.991635	-0.127038	168.752993	-67.376264	-83.915042			
41517	9.289059	-0.345472	-3.489930	1.093011	-0.399958	0.047853	167.903043	-67.018302	-83.910870			
41518	8.740351	-0.720319	-4.144390	1.577546	0.306677	-0.246862	167.068653	-66.634487	-83.843232			
41519	8.380865	-0.870662	-4.708124	1.846070	0.874381	-0.379229	166.344454	-66.273176	-83.712735			
41520	8.003437	-0.606557	-5.302456	1.705445	1.537614	-0.471071	165.777730	-66.039153	-83.507501			
41521	7.886927	-0.477192	-5.771839	1.681683	1.994997	-0.382032	165.362090	-65.931736	-83.253199			
41522	7.985444	-0.603351	-6.090390	1.883101	2.222448	-0.182587	165.094989	-65.935144	-82.964169			
41523	7.660623	-0.522687	-5.823786	1.754236	2.137743	-0.580815	164.982569	-66.063342	-82.631807			
41524	7.374357	0.081264	-5.050744	1.021597	1.648026	-1.086979	165.017740	-66.242172	-82.318250			
41525	7.206287	0.718029	-4.040075	0.228723	0.892216	-1.571334	165.090023	-66.431642	-82.013719			
41526	7.397713	1.070255	-3.251480	-0.223856	0.156238	-1.665960	165.151574	-66.599665	-81.726706			
41527	7.800864	1.219368	-2.625314	-0.429721	-0.541763	-1.520859	165.098293	-66.726517	-81.399016			
41528	7.992667	1.348054	-2.333531	-0.572789	-0.856892	-1.441132	164.862796	-66.830960	-80.972860			
41529	7.955317	1.391694	-2.135303	-0.622246	-1.006553	-1.543287	164.428928	-66.901888	-80.440744			
41530	7.573800	1.405764	-2.212734	-0.624618	-0.777524	-1.860327	163.890345	-66.915175	-79.858512			
41531	7.450028	1.449292	-2.442716	-0.618754	-0.514602	-1.880319	163.350217	-66.839090	-79.313750			
41532	7.660889	1.533364	-2.683584	-0.627545	-0.379308	-1.584427	162.886436	-66.684864	-78.876557			
41533	7.747595	1.585043	-2.826710	-0.627539	-0.296519	-1.443335	162.540001	-66.507468	-78.556827			
41534	8.042309	1.555703	-2.883009	-0.546877	-0.385703	-1.154583	162.325474	-66.321559	-78.361025			
41535	8.513254	1.507288	-2.837577	-0.452491	-0.640392	-0.747129	162.261143	-66.168147	-78.267845			
41536	8.729666	1.515401	-2.704016	-0.456236	-0.867597	-0.601047	162.399421	-66.080945	-78.258904			
41537	9.098047	1.597101	-2.591587	-0.529656	-1.122053	-0.299436	162.702296	-66.076810	-78.309214			
41538	9.050310	1.777030	-2.459904	-0.745909	-1.211695	-0.373808	163.101483	-66.162498	-78.387209			
41539	8.971072	1.965464	-2.340025	-0.975748	-1.268596	-0.471520	163.505907	-66.303759	-78.482994			
41540	9.015867	1.828591	-2.222110	-0.871176	-1.386226	-0.491382	163.814338	-66.481204	-78.564807			
41541	8.835142	1.855938	-2.100846	-0.943080	-1.400569	-0.698593	164.032155	-66.693995	-78.613621			
41542	8.691437	1.866929	-2.058129	-0.983421	-1.356719	-0.843043	164.169927	-66.884460	-78.635714			
41543	8.600962	2.139986	-2.040266	-1.273192	-1.300552	-0.901667	164.273169	-67.030854	-78.631829			
41544	8.651781	2.356913	-2.048339	-1.490523	-1.283734	-0.827455	164.325138	-67.147935	-78.591560			
41545	8.573098	2.559044	-2.025767	-1.702398	-1.249643	-0.885724	164.329474	-67.251861	-78.502434			
41546	8.748320	2.337918	-2.153647	-1.458338	-1.196347	-0.697911	164.293002	-67.347648	-78.384395			
41547	8.712444	2.462767	-2.168737	-1.581957	-1.147229	-0.710129	164.213911	-67.469777	-78.209929			
41548	8.605534	2.257864	-2.265132	-1.373836	-1.009179	-0.791707	164.048411	-67.601878	-77.982753			
41549	8.550617	1.959287	-2.450578	-1.057291	-0.811615	-0.802662	163.816115	-67.711217	-77.705165			
41550	8.698250	1.750149	-2.669014	-0.807691	-0.658283	-0.606142	163.576750	-67.774816	-77.421843			
41551	8.968842	1.265062	-2.838014	-0.275974	-0.615214	-0.344839	163.335936	-67.786107	-77.160615			
41552	9.447238	0.962121	-2.736101	0.070460	-0.899294	0.028477	163.161184	-67.751394	-76.965889			
41553	9.916771	0.775299	-2.527001	0.289885	-1.280373	0.366004	163.064598	-67.698462	-76.842701			
41554	10.218342	0.891461	-2.346195	0.193414	-1.563078	0.590832	163.041066	-67.640373	-76.744001			
41555	10.559988	1.387008	-2.297660	-0.266861	-1.723588	0.942516	163.051324	-67.582849	-76.623365			
41556	10.699860	1.740580	-2.398403	-0.590850	-1.676508	1.146746	163.029222	-67.555740	-76.428625			
41557	10.757709	1.986071	-2.797985	-0.789369	-1.322664	1.373418	162.954575	-67.550559	-76.112181			
41558	10.694665	2.188321	-3.517916	-0.930389	-0.632889	1.601082	162.830659	-67.494240	-75.666422			
41559	11.691632	1.985491	-4.326974	-0.559389	-0.281657	2.795514	162.654462	-67.329910	-75.107799			
41560	13.151459	2.265654	-4.818311	-0.630311	-0.402507	4.355962	162.393485	-67.146649	-74.404816			
41561	13.539762	2.997802	-5.309789	-1.248570	-0.120095	4.983672	162.051661	-67.020687	-73.623345			
41562	12.888600	3.823702	-6.327506	-2.051339	1.035015	4.867046	161.718147	-66.878574	-72.925615			
41563	12.572313	4.231522	-7.510359	-2.406220	2.208482	5.077134	161.419712	-66.708663	-72.446240			
41564	12.520414	3.853720	-8.023434	-1.980514	2.680947	5.183225	161.075255	-66.639279	-72.084880			
41565	11.234811	4.232341	-7.904619	-2.479685	3.060542	4.011233	160.652382	-66.673941	-71.750976			
41566	9.577093	4.530410	-7.726193	-2.942262	3.536194	2.466464	160.159142	-66.642288	-71.487036			
41567	9.156735	4.047486	-7.403221	-2.472238	3.403948	1.906375	159.633937	-66.501211	-71.282192			
41568	8.887488	2.991544	-7.026680	-1.414511	3.158296	1.382622	158.993556	-66.419414	-70.960189			
41569	7.975686	1.610706	-6.574528	-0.127670	3.090416	0.180460	158.188625	-66.428761	-70.467004			
41570	7.061682	-0.160255	-5.948270	1.525009	2.853697	-1.163679	157.283840	-66.452289	-69.911542			
41571	6.331308	-1.899432	-5.482540	3.170601	2.676107	-2.293581	156.376655	-66.453652	-69.387387			
41572	6.213432	-3.051362	-5.150687	4.321224	2.382113	-2.734597	155.509840	-66.448364	-68.935635			
41573	6.655403	-3.222039	-4.684594	4.559194	1.768949	-2.552815	154.871646	-66.460077	-68.661293			
41574	7.186292	-2.923885	-4.506020	4.354800	1.406107	-2.095521	154.582866	-66.485726	-68.609398			
41575	7.272296	-2.044307	-4.694935	3.523583	1.580938	-1.800641	154.727845	-66.534339	-68.715178			
41576	7.669905	-0.636222	-4.801205	2.177582	1.592586	-1.152120	155.262900	-66.628061	-68.903014			
41577	7.741312	0.448712	-4.428416	1.029063	1.271027	-1.034008	156.066479	-66.826638	-69.118201			
41578	7.790383	1.288813	-3.850792	0.083838	0.748200	-1.059845	157.235576	-67.035671	-69.468833			
41579	8.252039	2.387073	-3.581311	-1.046747	0.333586	-0.570810	158.617229	-67.202611	-69.956533			
41580	8.646413	2.838671	-3.814533	-1.524542	0.381262	-0.071087	159.955368	-67.313535	-70.531910			
41581	8.679603	2.573768	-3.911152	-1.340759	0.434390	-0.052053	161.130720	-67.363204	-71.152267			
41582	8.858391	2.005274	-4.205160	-0.819434	0.625370	0.142843	162.145988	-67.315057	-71.833904			
41583	8.982875	1.517831	-4.586109	-0.369273	0.915704	0.338820	162.916706	-67.227975	-72.512350			
41584	8.556752	1.260083	-4.859982	-0.194199	1.308462	0.019676	163.429391	-67.154862	-73.152040			
41585	8.215961	1.239920	-4.801328	-0.230600	1.363657	-0.316403	163.751506	-67.096458	-73.787219			
41586	7.768719	0.886904	-4.698409	0.066316	1.431063	-0.803675	163.920499	-67.058926	-74.391830			
41587	7.769035	0.774563	-4.148574	0.164418	0.914426	-1.020344	164.039017	-67.026025	-74.936604			
41588	7.880521	0.807796	-3.644109	0.124767	0.399408	-1.102947	164.115148	-67.019856	-75.380000			
41589	8.092405	0.943790	-3.357587	-0.005450	0.052001	-1.000854	164.232367	-67.019356	-75.770056			
41590	8.398320	0.999159	-3.204613	-0.048791	-0.204774	-0.770823	164.445686	-67.055913	-76.157237			
41591	8.397635	0.942364	-3.151006	-0.014504	-0.246443	-0.797359	164.770536	-67.175264	-76.576478			
41592	7.888240	0.680381	-3.311455	0.180590	0.108051	-1.233143	165.210247	-67.354576	-77.054649			
41593	7.404240	0.526971	-3.366395	0.261046	0.356661	-1.674039	165.786690	-67.519878	-77.637152			
41594	7.117424	0.469613	-3.337021	0.257379	0.446750	-1.954696	166.446875	-67.623796	-78.307813			
41595	6.785139	0.293280	-3.175864	0.366091	0.420588	-2.336108	167.081969	-67.659717	-79.011379			
41596	6.909030	-0.010093	-2.895761	0.635020	0.102182	-2.349011	167.658913	-67.625009	-79.725015			
41597	7.336444	-0.264151	-2.593340	0.877588	-0.358345	-2.084819	168.113983	-67.542801	-80.372623			
41598	7.771496	-0.526154	-2.177199	1.125250	-0.935173	-1.858293	168.400571	-67.425009	-80.911210			
41599	8.158139	-0.640025	-1.801647	1.226998	-1.459884	-1.653404	168.562180	-67.252535	-81.325739			
41600	8.773966	-0.731487	-1.724496	1.340849	-1.805850	-1.127508	168.622320	-67.017882	-81.611162			
41601	9.302958	-0.564352	-1.992021	1.218746	-1.798916	-0.533136	168.627984	-66.777757	-81.780924			
41602	9.414387	-0.553601	-2.407025	1.243731	-1.496582	-0.276219	168.578281	-66.608097	-81.871597			
41603	9.045947	-0.403570	-2.773791	1.102206	-1.031560	-0.463519	168.543420	-66.518194	-81.911235			
41604	8.749061	-0.063976	-3.064343	0.769879	-0.643998	-0.596782	168.531609	-66.484254	-81.917782			
41605	8.521050	0.208387	-3.235360	0.499876	-0.385899	-0.717607	168.483346	-66.507348	-81.853656			
41606	8.441561	0.379982	-3.150684	0.323281	-0.415793	-0.809702	168.345584	-66.590708	-81.698278			
41607	8.524525	0.426521	-2.766018	0.264461	-0.781819	-0.878536	168.102321	-66.713674	-81.436591			
41608	8.769297	0.283385	-2.188658	0.396081	-1.390772	-0.886328	167.767700	-66.860553	-81.096107			
41609	8.938294	0.174755	-1.694198	0.498578	-1.887844	-0.925545	167.389388	-67.032244	-80.705454			
41610	8.939236	0.006336	-1.361617	0.662591	-2.171669	-1.060048	167.006692	-67.203405	-80.316191			
41611	8.822980	-0.003094	-1.201741	0.672006	-2.247334	-1.222753	166.634256	-67.350903	-79.953174			
41612	8.613242	0.047860	-1.231285	0.625924	-2.116500	-1.396341	166.309425	-67.455841	-79.660270			
41613	8.322777	0.082828	-1.463027	0.601258	-1.778005	-1.572961	166.048911	-67.494825	-79.458812			
41614	8.222701	0.325837	-1.699441	0.379326	-1.511237	-1.555609	165.915955	-67.437667	-79.389229			
41615	8.461788	0.694210	-2.157506	0.069244	-1.174628	-1.132016	165.891721	-67.313936	-79.429743			
41616	8.918592	1.014145	-2.472267	-0.190826	-1.062445	-0.565167	165.918101	-67.185670	-79.535354			
41617	9.297120	0.962609	-2.649251	-0.100032	-1.063365	-0.156559	165.972115	-67.096802	-79.658632			
41618	9.994497	0.786160	-2.591408	0.114440	-1.404815	0.445811	166.098077	-67.045207	-79.825560			
41619	10.889214	0.549135	-2.429698	0.386734	-1.916798	1.185324	166.318622	-67.028098	-80.054073			
41620	11.726995	0.412507	-2.271330	0.546274	-2.394998	1.884194	166.624467	-67.042912	-80.328701			
41621	12.219188	0.560034	-2.117246	0.391863	-2.715562	2.294211	167.000138	-67.108343	-80.652644			
41622	12.139762	0.631373	-2.160217	0.286936	-2.628537	2.247468	167.339544	-67.220352	-80.997187			
41623	11.721425	0.656733	-2.496616	0.229688	-2.138395	1.995386	167.668511	-67.331014	-81.363125			
41624	11.125445	0.733926	-3.560397	0.169281	-0.913801	1.854654	167.983727	-67.375616	-81.764022			
41625	11.285623	1.872645	-4.161738	-0.938263	-0.367842	2.318941	168.372649	-67.313426	-82.227251			
41626	12.095352	2.555317	-4.507131	-1.575123	-0.338173	3.246638	168.636896	-67.242726	-82.654467			
41627	12.461258	1.707206	-4.539353	-0.725124	-0.497493	3.530097	168.692366	-67.272573	-82.966650			
41628	11.682241	-0.014679	-4.824049	0.974431	-0.029801	2.788741	168.610216	-67.323683	-83.108499			
41629	10.927439	-1.529975	-5.697003	2.534224	0.964584	2.305598	168.459898	-67.269242	-83.081407			
41630	10.903227	-2.052124	-6.310313	3.125314	1.473691	2.474381	168.309325	-67.062032	-83.029361			
41631	11.348994	-3.124022	-7.398020	4.339793	2.155997	3.218306	168.120177	-66.665386	-83.045701			
41632	11.957442	-3.376691	-8.346661	4.739279	2.643485	4.137170	168.124357	-66.091483	-83.175206			
41633	12.083322	-2.417651	-8.674355	3.833666	2.824875	4.484794	168.291630	-65.612627	-83.322330			
41634	11.472065	-1.542629	-8.288521	2.888696	2.703786	3.863290	168.448931	-65.426938	-83.413688			
41635	10.018664	-0.782602	-7.883383	2.004693	2.973757	2.445849	168.674966	-65.484640	-83.507223			
41636	8.556969	0.209148	-7.262706	0.851345	3.106811	0.940680	169.113968	-65.714478	-83.646394			
41637	7.631483	1.495256	-6.809269	-0.575481	3.198882	-0.000618	169.791045	-66.061262	-83.844738			
41638	6.491929	3.105935	-6.088566	-2.366127	3.143747	-1.246482	170.537883	-66.630312	-84.009514			
41639	4.955040	4.223293	-5.713161	-3.642514	3.514250	-2.783457	171.119355	-67.328521	-84.093569			
41640	4.269278	5.048913	-5.601933	-4.553790	3.749184	-3.463980	171.505986	-67.849582	-84.125052			
41641	5.145818	5.415320	-4.801672	-4.951545	2.719856	-2.960994	171.465918	-68.100026	-84.042799			
41642	6.500888	4.387511	-4.090639	-3.894179	1.558703	-2.024837	170.847621	-68.276836	-83.764070			
41643	7.246473	2.770997	-3.655840	-2.233295	0.865331	-1.577512	169.929812	-68.479358	-83.321326			
41644	7.982162	2.064416	-2.873552	-1.500480	-0.123390	-1.212276	169.005385	-68.565860	-82.884335			
41645	8.675755	1.808757	-2.726254	-1.175370	-0.506292	-0.629294	168.036258	-68.499427	-82.577447			
41646	8.931543	1.230445	-3.111476	-0.497445	-0.280236	-0.292108	167.032756	-68.339811	-82.408347			
41647	8.819691	0.630394	-3.581061	0.203418	0.128998	-0.275920	166.102713	-68.131814	-82.306358			
41648	8.501497	0.285988	-4.293719	0.677423	0.839267	-0.345401	165.269830	-67.889697	-82.188755			
41649	8.184665	-0.069181	-4.771516	1.138875	1.320079	-0.500288	164.545373	-67.647039	-82.040133			
41650	8.014394	-0.290120	-5.162831	1.457691	1.679163	-0.537734	164.009221	-67.436999	-81.875041			
41651	8.051385	-0.233379	-5.385935	1.475098	1.845076	-0.415495	163.660809	-67.282764	-81.693873			
41652	8.179961	-0.574949	-5.576898	1.870589	1.914024	-0.263787	163.439806	-67.221841	-81.473623			
41653	7.921309	-0.966321	-5.526818	2.242503	1.925281	-0.566549	163.314054	-67.272159	-81.195021			
41654	7.498963	-0.946181	-5.019238	2.116929	1.645911	-1.144819	163.315916	-67.396601	-80.894113			
41655	7.242039	-0.306544	-4.158197	1.332950	1.052075	-1.630512	163.389195	-67.539988	-80.580165			
41656	7.247434	0.410799	-3.511989	0.522451	0.554126	-1.784732	163.485601	-67.669919	-80.276788			
41657	7.199274	0.972009	-3.149449	-0.092210	0.309378	-1.901358	163.523529	-67.772362	-79.964438			
41658	7.296849	1.414579	-2.877154	-0.559698	0.071048	-1.862546	163.440280	-67.825386	-79.605506			
41659	7.390808	1.764921	-2.800928	-0.902549	-0.001236	-1.764732	163.223221	-67.834288	-79.188521			
41660	7.578082	2.197974	-2.700239	-1.315954	-0.131315	-1.578569	162.928984	-67.791432	-78.757553			
41661	7.836207	2.394207	-2.745857	-1.467849	-0.178316	-1.298482	162.634222	-67.705876	-78.370174			
41662	8.118126	2.541983	-2.756050	-1.573231	-0.276394	-1.014394	162.396969	-67.597809	-78.047477			
41663	8.250266	2.707883	-2.856515	-1.700251	-0.238178	-0.834292	162.244182	-67.472932	-77.809372			
41664	8.695747	2.648128	-2.819090	-1.598163	-0.466044	-0.442282	162.190485	-67.332078	-77.691300			
41665	9.128707	2.305218	-2.847198	-1.214751	-0.648922	-0.073226	162.236468	-67.235319	-77.659000			
41666	9.522283	2.135849	-2.765476	-1.026828	-0.898421	0.238285	162.397685	-67.215185	-77.689859			
41667	9.251020	1.911247	-2.727372	-0.842701	-0.846998	-0.053321	162.634034	-67.287676	-77.762938			
41668	8.863714	1.797391	-2.755124	-0.776727	-0.674969	-0.414400	162.940120	-67.384320	-77.891874			
41669	8.727759	1.680803	-2.800279	-0.687482	-0.579904	-0.537372	163.227747	-67.478057	-78.049526			
41670	8.636473	1.637220	-2.788650	-0.670497	-0.548937	-0.631468	163.453631	-67.568867	-78.215898			
41671	8.669121	1.521081	-2.595297	-0.586085	-0.734147	-0.684685	163.605989	-67.676628	-78.376820			
41672	8.525421	1.376046	-2.437472	-0.479479	-0.817365	-0.889709	163.667044	-67.823192	-78.495683			
41673	8.369037	1.565753	-2.131182	-0.718335	-1.007826	-1.123469	163.711506	-67.987194	-78.596591			
41674	8.254898	1.728259	-1.854407	-0.923335	-1.187109	-1.309323	163.725963	-68.155499	-78.686383			
41675	8.206419	1.715824	-1.653883	-0.941759	-1.330497	-1.424154	163.733618	-68.330238	-78.765627			
41676	8.132214	1.853910	-1.430092	-1.113836	-1.475203	-1.554472	163.738124	-68.520315	-78.832827			
41677	7.915636	1.998692	-1.195428	-1.303778	-1.576217	-1.819145	163.736672	-68.737844	-78.873030			
41678	7.673272	1.783884	-1.231756	-1.110940	-1.441670	-2.049577	163.749085	-68.948728	-78.928078			
41679	7.384827	1.822103	-1.433852	-1.156024	-1.123250	-2.242118	163.837936	-69.121791	-79.025611			
41680	7.357215	1.786252	-1.717543	-1.102926	-0.835452	-2.173655	164.015163	-69.206831	-79.201636			
41681	7.797604	1.795548	-1.979074	-1.068529	-0.741906	-1.673206	164.314971	-69.186921	-79.470181			
41682	8.439968	1.729178	-2.347225	-0.939557	-0.638983	-0.955968	164.691169	-69.097178	-79.805032			
41683	9.174297	1.728429	-2.500029	-0.896000	-0.776730	-0.221070	165.105965	-68.958972	-80.165547			
41684	10.050484	1.648882	-2.407776	-0.792179	-1.208086	0.552701	165.492370	-68.807674	-80.490588			
41685	11.012280	1.402447	-2.195018	-0.526535	-1.794267	1.347894	165.725061	-68.698052	-80.686210			
41686	11.522327	0.978325	-1.922854	-0.107131	-2.275586	1.686388	165.743844	-68.664853	-80.672302			
41687	11.875986	0.559503	-1.749761	0.321876	-2.592296	1.917194	165.536448	-68.687559	-80.432700			
41688	11.913419	0.037681	-1.858283	0.877387	-2.528307	1.944095	165.118284	-68.739870	-79.969611			
41689	11.563563	-0.079806	-2.208821	1.043066	-2.066019	1.730477	164.548666	-68.794519	-79.332014			
41690	11.108501	-0.177804	-2.998510	1.231504	-1.157417	1.569977	163.888970	-68.800862	-78.551006			
41691	11.287734	-0.214632	-3.793754	1.408308	-0.471056	2.004507	163.180555	-68.754463	-77.689925			
41692	12.101397	-0.399921	-4.267465	1.759697	-0.315961	2.900228	162.364886	-68.736202	-76.697595			
41693	12.719949	0.246010	-4.384009	1.249399	-0.355655	3.580932	161.448610	-68.845591	-75.541872			
41694	12.914782	1.599427	-4.168784	-0.025217	-0.493594	3.843204	160.486690	-69.084472	-74.290283			
41695	12.328971	2.995511	-4.401123	-1.387732	0.064905	3.544549	159.595197	-69.374456	-73.065226			
41696	11.664056	3.990935	-5.314539	-2.330043	1.249201	3.349083	158.883753	-69.583287	-72.033756			
41697	11.258845	4.743653	-6.223907	-3.028390	2.297733	3.361153	158.389487	-69.672911	-71.248309			
41698	11.293021	5.309761	-6.832076	-3.528065	2.870986	3.667419	158.113669	-69.596366	-70.726910			
41699	11.352893	5.360268	-7.448925	-3.512266	3.397602	3.943299	157.877677	-69.399656	-70.330102			
41700	11.124060	4.858703	-7.577424	-3.001860	3.541318	3.723068	157.520103	-69.198422	-69.938096			
41701	10.398235	3.585998	-7.226200	-1.803221	3.414480	2.768652	156.838837	-69.147345	-69.343403			
41702	8.820012	2.536035	-6.607423	-0.944501	3.355392	0.945148	155.929874	-69.181954	-68.572915			
41703	7.587598	1.355346	-6.090882	0.090815	3.272309	-0.550354	154.937102	-69.136085	-67.824557			
41704	6.971550	-0.281674	-6.056965	1.695706	3.407500	-1.393561	153.858671	-69.008710	-67.140342			
41705	6.328218	-1.747444	-6.178608	3.141438	3.680877	-2.206307	152.742137	-68.891253	-66.469480			
41706	5.937150	-3.054746	-6.188670	4.451458	3.752163	-2.813683	151.679006	-68.784303	-65.883441			
41707	6.400026	-3.543022	-5.439744	4.992373	2.846527	-2.736158	150.867285	-68.712444	-65.503894			
41708	7.047456	-3.666019	-5.128948	5.221228	2.316948	-2.277247	150.328426	-68.758130	-65.254629			
41709	7.310234	-2.672584	-4.761243	4.254845	1.948875	-1.980077	150.296911	-68.912059	-65.129822			
41710	7.971478	-1.145367	-4.523759	2.801393	1.620716	-1.161332	150.746451	-69.069501	-65.134479			
41711	8.391373	-0.144892	-4.551941	1.827655	1.595412	-0.578506	151.374530	-69.316720	-65.068318			
41712	8.275640	0.487174	-3.932731	1.057869	1.112408	-0.766548	152.234526	-69.649437	-64.953359			
41713	8.004484	1.446003	-3.232311	-0.063835	0.580264	-1.079471	153.487513	-69.924564	-64.974049			
41714	7.984051	2.397315	-3.503222	-1.086632	0.832538	-0.874568	154.941886	-70.068416	-65.187984			
41715	8.289302	2.781108	-4.005878	-1.502033	1.168919	-0.385555	156.243538	-70.128937	-65.483310			
41716	8.356092	2.510493	-4.006815	-1.301840	1.118161	-0.366212	157.242865	-70.148495	-65.775662			
41717	8.277276	2.261784	-4.041354	-1.121220	1.157789	-0.465833	157.959392	-70.149799	-66.057504			
41718	8.247026	2.183580	-4.210001	-1.084433	1.308512	-0.452277	158.455068	-70.096800	-66.375269			
41719	8.180583	1.987478	-4.305575	-0.916299	1.410231	-0.507764	158.742553	-69.997849	-66.721490			
41720	7.900065	1.586280	-4.184367	-0.555166	1.384698	-0.856650	158.887337	-69.853981	-67.049505			
41721	8.043629	1.333358	-3.850532	-0.273767	1.009038	-0.856616	159.023959	-69.638035	-67.395782			
41722	8.382569	1.040265	-3.799934	0.072809	0.829571	-0.587966	159.169036	-69.385087	-67.731428			
41723	8.650709	1.096531	-3.619135	0.062032	0.530319	-0.386655	159.320927	-69.169144	-68.033695			
41724	8.722353	0.916181	-3.556476	0.254144	0.425674	-0.361681	159.461770	-69.043420	-68.305133			
41725	8.764608	0.786800	-3.358476	0.383678	0.212547	-0.403949	159.681653	-68.991959	-68.600515			
41726	8.721185	0.556140	-3.544600	0.592918	0.401793	-0.409522	160.042378	-69.002247	-68.943217			
41727	8.468959	0.707889	-3.876978	0.384287	0.788115	-0.512879	160.580943	-69.045763	-69.345273			
41728	8.208708	0.775449	-3.966638	0.248796	0.952680	-0.716050	161.203736	-69.097970	-69.794009			
41729	8.059995	0.519643	-3.653101	0.448014	0.715680	-0.988534	161.818045	-69.152827	-70.223211			
41730	7.965069	0.179910	-3.145462	0.743516	0.283785	-1.284194	162.379337	-69.203613	-70.616449			
41731	8.030186	-0.190425	-2.813366	1.095317	-0.034346	-1.372649	162.824464	-69.222201	-70.945958			
41732	7.995933	-0.630821	-2.628724	1.513331	-0.179319	-1.510837	163.106221	-69.201198	-71.175166			
41733	8.059015	-0.696014	-2.346681	1.581037	-0.472015	-1.553354	163.256956	-69.123428	-71.307408			
41734	8.032256	-0.747229	-2.117489	1.631793	-0.691852	-1.662975	163.319937	-68.988294	-71.360935			
41735	8.050813	-0.589235	-2.089809	1.482609	-0.756379	-1.642022	163.375172	-68.775473	-71.391948			
41736	8.208904	-0.196935	-2.267224	1.116414	-0.698050	-1.396547	163.464627	-68.517549	-71.432846			
41737	8.297299	0.355221	-2.490644	0.582409	-0.584039	-1.181681	163.560305	-68.295148	-71.454952			
41738	8.441474	1.051165	-2.686924	-0.089261	-0.520950	-0.907432	163.657114	-68.111085	-71.468966			
41739	8.701069	1.502480	-2.887343	-0.505424	-0.476077	-0.548744	163.703983	-67.987964	-71.437681			
41740	8.746437	1.653747	-2.999522	-0.647341	-0.411673	-0.450869	163.676845	-67.928646	-71.320838			
41741	8.680192	1.677132	-2.927836	-0.669633	-0.462014	-0.535357	163.542272	-67.906888	-71.092011			
41742	8.818768	1.476426	-2.596094	-0.434236	-0.810390	-0.547435	163.326420	-67.868149	-70.800904			
41743	8.868834	1.144181	-2.262413	-0.072813	-1.121243	-0.657287	163.032218	-67.800601	-70.468589			
41744	8.792491	0.883771	-1.950312	0.205550	-1.375250	-0.870705	162.704151	-67.688784	-70.133152			
41745	8.579961	0.694274	-1.854943	0.394076	-1.386645	-1.125892	162.328267	-67.551045	-69.796732			
41746	8.227990	0.681972	-1.850225	0.388010	-1.276989	-1.457635	161.898577	-67.396136	-69.465280			
41747	7.994636	0.747324	-1.950825	0.319536	-1.118817	-1.631950	161.461347	-67.206789	-69.173562			
41748	7.935331	1.036706	-2.084331	0.052637	-1.009554	-1.604971	161.045093	-67.006998	-68.925520			
41749	7.967874	1.445397	-2.293696	-0.320454	-0.870221	-1.447452	160.665900	-66.807943	-68.721980			
41750	8.295124	1.749483	-2.472902	-0.547304	-0.860301	-1.040842	160.311348	-66.614693	-68.551480			
41751	8.723872	1.763794	-2.518110	-0.471540	-0.995364	-0.628756	159.986316	-66.437343	-68.403228			
41752	9.081926	1.971343	-2.678368	-0.598376	-1.010768	-0.212612	159.750897	-66.255576	-68.293545			
41753	9.692447	2.049646	-2.862892	-0.560919	-1.094134	0.425911	159.565144	-66.087429	-68.188200			
41754	10.370144	1.809527	-2.888565	-0.200437	-1.331421	1.019910	159.384304	-65.974908	-68.081036			
41755	10.493540	1.636040	-2.765062	0.005670	-1.492184	1.059750	159.212054	-65.926304	-67.988481			
41756	10.410700	1.571630	-2.468848	0.065042	-1.733631	0.861496	159.069778	-65.900646	-67.981760			
41757	10.491800	1.555151	-2.279865	0.096831	-1.938808	0.860915	158.951911	-65.878176	-68.095670			
41758	10.769157	1.566451	-2.394561	0.129020	-1.935281	1.160028	158.828042	-65.904203	-68.304804			
41759	10.979090	1.652429	-2.292293	0.066203	-2.097333	1.328332	158.673060	-66.009668	-68.571848			
41760	10.967133	1.306205	-2.252292	0.391353	-2.088264	1.257219	158.489843	-66.213004	-68.853938			
41761	10.442658	1.116637	-2.426157	0.487833	-1.682518	0.822778	158.394707	-66.491532	-69.183942			
41762	9.968887	1.159697	-2.883674	0.371376	-1.036714	0.571255	158.423258	-66.768299	-69.615566			
41763	10.034137	1.316352	-3.203330	0.210520	-0.724921	0.775418	158.596034	-67.011699	-70.222284			
41764	10.419853	1.417597	-3.403819	0.134870	-0.645396	1.220623	158.889368	-67.241971	-71.013090			
41765	10.504482	1.303987	-3.410282	0.213578	-0.639746	1.287735	159.286033	-67.468498	-71.955263			
41766	10.426568	0.879984	-3.766379	0.600422	-0.266219	1.288741	159.783818	-67.644784	-73.031998			
41767	10.299327	0.338780	-4.645895	1.144017	0.585463	1.417786	160.421539	-67.737188	-74.202370			
41768	10.279184	0.230287	-5.455418	1.271099	1.325540	1.680930	161.240549	-67.754471	-75.448516			
41769	10.779515	-0.135886	-6.148081	1.691379	1.731265	2.359280	162.194877	-67.670329	-76.767578			
41770	11.352459	-0.835851	-6.986369	2.451236	2.194594	3.131832	163.312242	-67.492564	-78.149773			
41771	11.727427	-1.291108	-7.800531	2.930814	2.696723	3.758765	164.589108	-67.254997	-79.549539			
