// General information: 
//  MT Manager version: 2022.0.0 
//  XDA version: 2022.0.0 build 7085 rev 119802 built on 2022-11-08
// Device information: 
//  DeviceId: 00B49380
//  ProductCode: MTW2-3A7G6
//  Firmware Version: 4.6.0
//  Hardware Version: 2.0.0
// Device settings: 
//  Filter Profile: human(46.1)
//  Option Flags: Orientation Smoother Disabled, Position/Velocity Smoother Disabled, Continuous Zero Rotation Update Disabled, AHS Disabled, ICC Disabled
// Coordinate system: ENU
PacketCounter	Acc_X	Acc_Y	Acc_Z	FreeAcc_E	FreeAcc_N	FreeAcc_U	Roll	Pitch	Yaw	Vel_E	Vel_N	Vel_U
14665	9.572816	0.784255	2.497130	0.692598	-0.072788	0.087036	22.485610	-78.569296	154.713667			
14666	9.561065	0.791814	2.517128	0.714270	-0.082736	0.079726	22.475016	-78.565636	154.656253			
14667	9.538404	0.888582	2.525443	0.716499	-0.182290	0.066684	22.405477	-78.539200	154.659041			
14668	9.532136	0.928146	2.539440	0.725545	-0.223617	0.066352	22.357464	-78.516189	154.644804			
14669	9.501174	0.928037	2.527091	0.711281	-0.225707	0.034286	22.282920	-78.471702	154.664846			
14670	9.470736	0.993653	2.549670	0.728928	-0.293920	0.014075	22.250092	-78.433626	154.650235			
14671	9.409218	0.979040	2.587835	0.769179	-0.284786	-0.039456	22.209187	-78.380338	154.645356			
14672	9.395575	0.997269	2.581028	0.757395	-0.301491	-0.052127	22.213064	-78.337850	154.596028			
14673	9.338635	0.926414	2.676191	0.856242	-0.237481	-0.094622	22.205532	-78.279360	154.552199			
14674	9.294079	0.864485	2.684299	0.869938	-0.176900	-0.140841	22.237514	-78.236766	154.465696			
14675	9.308381	0.792941	2.761200	0.938871	-0.105048	-0.116996	22.242857	-78.183319	154.400593			
14676	9.411994	0.735645	2.824448	0.980108	-0.039954	-0.007479	22.242972	-78.149757	154.321940			
14677	9.498143	0.668871	2.849992	0.985360	0.033003	0.077335	22.158796	-78.102221	154.306973			
14678	9.548539	0.577115	2.834727	0.960426	0.128318	0.117290	22.060298	-78.059167	154.300577			
14679	9.546688	0.535841	2.709080	0.828901	0.174380	0.089232	21.889803	-77.993701	154.386968			
14680	9.484115	0.563490	2.850584	0.968106	0.130758	0.058353	21.741241	-77.953046	154.443007			
14681	9.398151	0.493211	2.893631	1.021403	0.185749	-0.021680	21.521116	-77.912237	154.546515			
14682	9.313391	0.439202	2.868634	1.010599	0.227243	-0.112778	21.334288	-77.886572	154.623880			
14683	9.224518	0.443196	2.785795	0.938713	0.213891	-0.214673	21.121799	-77.867015	154.729381			
14684	9.353464	0.423983	2.841708	0.967037	0.233051	-0.078579	20.896613	-77.862956	154.838835			
14685	9.310985	0.422651	2.848524	0.973873	0.220825	-0.117845	20.574514	-77.827994	155.041212			
14686	9.292689	0.523526	2.920224	1.033039	0.103248	-0.113306	20.269280	-77.824273	155.214217			
14687	9.332451	0.536735	3.057823	1.151612	0.069677	-0.045297	19.850627	-77.819351	155.450006			
14688	9.356218	0.610533	3.159895	1.235339	-0.028875	0.004113	19.334623	-77.833118	155.725645			
14689	9.455190	0.626265	3.272014	1.311401	-0.071332	0.125820	18.561373	-77.796738	156.160636			
14690	9.304670	0.589500	3.229887	1.284694	-0.075824	-0.030037	17.695033	-77.741956	156.667407			
14691	9.108814	0.581857	2.673729	0.758858	-0.064272	-0.332297	16.880266	-77.682082	157.182776			
14692	9.161715	0.722424	2.449030	0.499567	-0.202877	-0.317116	16.209049	-77.674561	157.609537			
14693	9.154800	0.666004	2.464059	0.510037	-0.171428	-0.323960	15.595254	-77.667210	158.000755			
14694	9.236161	0.553365	2.459827	0.497284	-0.073847	-0.251785	15.061146	-77.686497	158.326045			
14695	9.156281	0.426453	2.154528	0.225193	0.059779	-0.399557	14.575804	-77.689629	158.672835			
14696	9.190595	0.512755	2.079178	0.133319	-0.030753	-0.376894	14.181683	-77.726767	158.976400			
14697	9.198367	0.427350	1.927268	-0.006351	0.056902	-0.405049	13.813427	-77.755104	159.296810			
14698	9.206426	0.499280	1.659977	-0.273194	0.003549	-0.448478	13.549856	-77.807118	159.574660			
14699	9.342273	0.587779	1.581856	-0.385645	-0.076736	-0.327373	13.267870	-77.832617	159.911707			
14700	9.340908	0.544780	1.678115	-0.284690	-0.056583	-0.311048	12.950845	-77.858802	160.279334			
14701	9.361936	0.485211	1.410262	-0.545578	0.021217	-0.348439	12.597977	-77.853790	160.756892			
14702	9.336465	0.556411	1.365955	-0.594886	-0.060368	-0.379372	12.185226	-77.863311	161.298692			
14703	9.326160	0.556406	1.355373	-0.609142	-0.076979	-0.392132	11.638093	-77.858917	161.923541			
14704	9.311107	0.452323	1.765572	-0.198948	-0.038271	-0.327042	11.003799	-77.876329	162.591529			
14705	9.353382	0.246543	2.035959	0.074675	0.117178	-0.238122	10.320071	-77.901912	163.316912			
14706	9.518276	0.048779	2.074133	0.102768	0.294328	-0.075915	9.642384	-77.965882	164.034667			
14707	9.708484	-0.063231	1.882626	-0.105869	0.410322	0.067763	8.986997	-78.038485	164.739394			
14708	9.972268	-0.032900	1.588108	-0.438719	0.400013	0.267826	8.453842	-78.143044	165.336466			
14709	10.292236	0.119901	1.545572	-0.549928	0.247149	0.578161	8.021827	-78.235817	165.807551			
14710	10.429127	0.260319	1.400808	-0.718478	0.112180	0.688165	7.768226	-78.334636	166.094793			
14711	10.545000	0.393734	1.486115	-0.659803	-0.034406	0.823291	7.651188	-78.414449	166.218209			
14712	10.460481	0.463915	1.689492	-0.436792	-0.133332	0.783665	7.723385	-78.499904	166.111134			
14713	10.504327	0.285578	1.944552	-0.163429	0.021998	0.872653	7.947952	-78.566488	165.805125			
14714	10.337411	0.107074	1.813231	-0.222334	0.212549	0.678580	8.322291	-78.642944	165.320508			
14715	10.014708	0.027822	1.853174	-0.098354	0.282741	0.367674	8.791551	-78.698453	164.719558			
14716	9.809307	-0.081091	2.030112	0.143702	0.375119	0.196759	9.351151	-78.774411	164.010997			
14717	9.649772	-0.126806	1.973294	0.140262	0.433346	0.027056	9.951678	-78.835563	163.264024			
14718	9.491338	-0.285013	1.897936	0.135555	0.605827	-0.149177	10.603969	-78.916915	162.468763			
14719	9.352934	-0.406899	1.759958	0.061373	0.750479	-0.316723	11.272317	-78.996354	161.658500			
14720	9.236566	-0.606150	1.776078	0.148108	0.955243	-0.437106	12.025159	-79.100283	160.771228			
14721	9.218692	-0.714937	1.638408	0.055427	1.095543	-0.486572	12.831416	-79.193031	159.848771			
14722	9.251689	-0.757278	1.593766	0.039292	1.164040	-0.466529	13.744196	-79.297072	158.839983			
14723	9.385516	-0.811808	1.580987	0.036193	1.249333	-0.342512	14.682525	-79.378563	157.834438			
14724	9.445868	-0.718581	1.508368	-0.030943	1.192550	-0.294666	15.686418	-79.462490	156.787098			
14725	9.474224	-0.563118	1.603225	0.058221	1.052296	-0.245162	16.678755	-79.517667	155.775855			
14726	9.590438	-0.381170	1.653038	0.085870	0.898966	-0.115331	17.698261	-79.573900	154.748757			
14727	9.541992	-0.233279	1.568391	0.009086	0.783760	-0.171659	18.650861	-79.599355	153.795016			
14728	9.488100	-0.020161	1.781079	0.214371	0.565885	-0.177831	19.567278	-79.622226	152.870642			
14729	9.396413	0.027951	1.797946	0.251417	0.530910	-0.263822	20.376662	-79.620222	152.046560			
14730	9.279940	0.025217	1.819654	0.304078	0.541929	-0.376434	21.151569	-79.620639	151.245446			
14731	9.217976	-0.026748	1.917094	0.424766	0.595170	-0.425869	21.847337	-79.602127	150.503686			
14732	9.252545	-0.135426	2.085117	0.609268	0.703313	-0.372892	22.574059	-79.596746	149.716521			
14733	9.389889	-0.231264	2.072549	0.597656	0.829943	-0.248539	23.231145	-79.580256	148.978947			
14734	9.493705	-0.355191	1.905489	0.447265	1.000899	-0.185351	23.912619	-79.574089	148.213722			
14735	9.535083	-0.395518	1.822707	0.374265	1.072760	-0.163564	24.525825	-79.547412	147.511735			
14736	9.683537	-0.486023	1.757019	0.310730	1.203152	-0.037717	25.181827	-79.528248	146.773908			
14737	9.813171	-0.580562	1.655265	0.211780	1.341273	0.063111	25.748348	-79.480656	146.129912			
14738	9.867516	-0.647074	1.622463	0.187164	1.436726	0.102942	26.342162	-79.425188	145.476486			
14739	9.812616	-0.666965	1.721019	0.295186	1.458474	0.060501	26.862699	-79.340630	144.909738			
14740	9.692278	-0.655039	1.834892	0.423081	1.441148	-0.041289	27.430659	-79.251667	144.307577			
14741	9.627860	-0.647258	1.637139	0.234759	1.476339	-0.140040	27.945331	-79.144508	143.770808			
14742	9.554627	-0.531245	1.605192	0.194332	1.382444	-0.210563	28.488275	-79.038279	143.224156			
14743	9.462238	-0.420821	1.535553	0.118613	1.296178	-0.306123	28.987128	-78.933213	142.728088			
14744	9.519770	-0.228263	1.378566	-0.074622	1.157143	-0.261039	29.500735	-78.845469	142.244272			
14745	9.596491	-0.043648	1.290955	-0.203519	1.016379	-0.185297	29.899829	-78.763717	141.881955			
14746	9.803057	0.201290	1.255399	-0.307674	0.822252	0.033413	30.263407	-78.705783	141.551783			
14747	9.880520	0.306578	1.159943	-0.432000	0.754284	0.102379	30.469177	-78.644957	141.360479			
14748	9.951884	0.385946	1.039698	-0.574779	0.711457	0.158941	30.618515	-78.598897	141.219225			
14749	9.993709	0.374885	1.073967	-0.551753	0.730158	0.203829	30.632075	-78.551184	141.190775			
14750	9.970259	0.278207	1.010302	-0.600073	0.835803	0.159549	30.623658	-78.514489	141.170887			
14751	9.843264	0.071238	0.950361	-0.614721	1.034860	0.003080	30.543746	-78.468001	141.208075			
14752	9.737789	-0.213897	0.954359	-0.556077	1.305697	-0.129350	30.530373	-78.425160	141.165834			
14753	9.734119	-0.557325	0.915966	-0.546478	1.652568	-0.175620	30.495722	-78.376300	141.127773			
14754	9.843132	-0.953299	0.782203	-0.636337	2.080006	-0.134024	30.546955	-78.324552	141.009286			
14755	10.010856	-1.085029	0.662892	-0.764321	2.255179	-0.006367	30.579144	-78.254332	140.913284			
14756	10.240773	-1.187151	0.718098	-0.737114	2.388663	0.214743	30.650259	-78.164304	140.789366			
14757	10.360464	-1.076551	0.943124	-0.565703	2.277656	0.379462	30.670721	-78.051338	140.707959			
14758	10.792141	-0.911260	1.217066	-0.406035	2.148451	0.864448	30.692425	-77.941033	140.625804			
14759	11.087783	-0.756749	1.624592	-0.100291	1.990744	1.240716	30.466968	-77.808562	140.749195			
14760	11.053851	-0.741111	1.598665	-0.144927	1.982127	1.202879	30.126524	-77.678518	140.985415			
14761	11.134524	-0.351914	1.939711	0.082890	1.565804	1.385762	29.730409	-77.560933	141.314028			
14762	11.617321	-0.115849	2.439412	0.424345	1.327926	1.976409	29.345852	-77.469228	141.615495			
14763	12.031633	0.048512	2.373561	0.231256	1.229925	2.386904	28.822619	-77.331751	142.059042			
14764	11.898015	0.626952	2.581072	0.321062	0.615589	2.358409	28.317214	-77.170521	142.514110			
14765	11.594034	1.128679	3.001823	0.657784	0.021140	2.198692	27.819146	-77.033623	142.960991			
14766	11.466596	1.516351	3.516547	1.086631	-0.455283	2.218944	27.463336	-76.979024	143.284283			
14767	11.334814	1.684980	3.717067	1.264852	-0.679137	2.148611	27.190723	-77.020198	143.576778			
14768	11.374027	1.955598	3.730210	1.237598	-0.957851	2.214703	27.095638	-77.167926	143.776415			
14769	11.267794	2.603574	3.729831	1.177654	-1.630459	2.170966	27.026540	-77.383494	143.991803			
14770	11.290988	3.061645	3.229433	0.657011	-2.033626	2.133933	26.949352	-77.637126	144.262101			
14771	11.003580	3.356122	2.770723	0.252592	-2.326217	1.786622	26.669637	-77.831185	144.719852			
14772	10.241883	3.638344	2.788942	0.379828	-2.728332	1.064986	26.152787	-77.938608	145.348459			
14773	9.158577	3.829215	2.818457	0.564692	-3.074378	0.021712	25.446057	-77.963114	146.071768			
14774	8.014417	3.893016	2.779423	0.704120	-3.285232	-1.105044	24.738113	-77.952167	146.746138			
14775	7.100450	3.771580	2.439956	0.534898	-3.240976	-2.079350	24.014309	-77.926770	147.375634			
14776	6.444865	3.379168	2.185053	0.449579	-2.908969	-2.808027	23.364688	-77.935077	147.905717			
14777	6.247942	2.837760	2.089040	0.464848	-2.401919	-3.069661	22.670439	-77.986321	148.437884			
14778	6.610169	2.070404	2.141558	0.570766	-1.636374	-2.772543	21.996831	-78.100973	148.935377			
14779	7.206968	1.376602	2.063571	0.503814	-0.905458	-2.261529	21.224415	-78.243787	149.544549			
14780	8.015017	0.977662	2.155900	0.523789	-0.475139	-1.485382	20.376047	-78.404148	150.263803			
14781	8.675489	0.731525	2.581109	0.863909	-0.269519	-0.777077	19.317946	-78.512311	151.154358			
14782	9.203530	0.672771	2.878323	1.068509	-0.247479	-0.208561	18.269652	-78.609713	152.068969			
14783	9.949781	1.040849	3.408043	1.379744	-0.665742	0.644330	17.181101	-78.658004	153.019016			
14784	10.173774	1.242822	3.620137	1.490823	-0.918655	0.915267	16.002322	-78.609578	154.020510			
14785	9.892196	1.143372	3.014873	0.940386	-0.778725	0.519855	14.957121	-78.513858	154.980816			
14786	10.268768	1.263208	2.895242	0.703819	-0.869441	0.872550	14.067785	-78.406241	155.827726			
14787	10.104260	0.997272	2.818097	0.670030	-0.630746	0.684234	13.118909	-78.255582	156.711877			
14788	10.068365	0.750504	2.899767	0.761039	-0.426554	0.655482	12.185518	-78.097303	157.566880			
14789	9.808968	0.384643	2.859952	0.796794	-0.102281	0.380331	11.264998	-77.925822	158.400918			
14790	9.615314	0.142950	2.994830	0.969617	0.075274	0.212167	10.325778	-77.762092	159.269075			
14791	9.444789	-0.087609	3.023195	1.031680	0.260363	0.047287	9.321834	-77.579507	160.216214			
14792	9.196603	-0.362950	2.901864	0.976759	0.509489	-0.225392	8.330862	-77.409614	161.184813			
14793	8.994108	-0.637569	2.834949	0.965116	0.752389	-0.440404	7.346869	-77.228062	162.167047			
14794	8.933393	-0.739901	2.799152	0.925856	0.831173	-0.504627	6.399943	-77.071369	163.148459			
14795	9.008723	-0.704665	2.800088	0.868456	0.776668	-0.424580	5.469044	-76.921083	164.129447			
14796	9.074778	-0.603058	2.860931	0.862124	0.645698	-0.339574	4.591507	-76.789390	165.078671			
14797	9.174325	-0.431747	2.948101	0.860929	0.443876	-0.215417	3.772760	-76.652278	165.954221			
14798	9.125027	-0.260439	2.914185	0.780947	0.256507	-0.265403	3.066208	-76.530957	166.730795			
14799	8.977621	-0.240831	2.776701	0.652785	0.232972	-0.437973	2.421084	-76.413070	167.426461			
14800	8.901583	-0.183953	2.727250	0.591359	0.164168	-0.521121	1.886853	-76.314756	168.007949			
14801	8.762636	-0.280205	2.836188	0.722589	0.218481	-0.629205	1.400846	-76.196341	168.489666			
14802	8.489557	-0.546926	2.888865	0.864326	0.447556	-0.881291	1.060074	-76.093321	168.833138			
14803	8.280324	-0.619757	2.977586	0.992619	0.487198	-1.061047	0.830392	-75.988899	169.063123			
14804	8.180054	-0.870804	2.892830	0.964786	0.740639	-1.177835	0.703797	-75.899721	169.181844			
14805	8.062332	-1.161942	2.510377	0.665958	1.086609	-1.384813	0.694491	-75.829254	169.208338			
14806	8.188434	-1.216326	2.375566	0.511087	1.171390	-1.295655	0.767089	-75.818860	169.171142			
14807	8.213557	-1.357214	2.527327	0.673989	1.287986	-1.234881	0.832290	-75.822906	169.069241			
14808	8.037938	-1.622184	2.262109	0.515082	1.588951	-1.472005	1.003038	-75.862904	168.877949			
14809	7.979785	-1.660351	1.991913	0.287434	1.675538	-1.596156	1.280871	-75.945230	168.624817			
14810	8.052472	-1.740167	2.077963	0.383792	1.750566	-1.507472	1.611064	-76.080840	168.336515			
14811	8.112751	-1.921718	2.064847	0.409857	1.941589	-1.455923	1.937318	-76.227975	168.041204			
14812	8.249569	-2.144935	2.021110	0.398983	2.182657	-1.338149	2.284382	-76.392534	167.773137			
14813	8.441264	-1.933161	2.491466	0.791689	1.910715	-1.042180	2.527173	-76.551313	167.587629			
14814	8.507975	-1.900070	2.704248	0.998989	1.848643	-0.930494	2.662647	-76.713362	167.525902			
14815	8.691671	-1.585585	2.953944	1.165357	1.505428	-0.693445	2.667289	-76.877036	167.645706			
14816	9.077692	-1.088755	3.407887	1.455639	0.954946	-0.212025	2.490402	-77.050662	167.957441			
14817	9.415802	-0.707264	3.689880	1.609285	0.536662	0.182057	2.109274	-77.180222	168.455671			
14818	9.884001	-0.167856	3.674162	1.418523	0.010667	0.637612	1.597869	-77.260864	169.095264			
14819	10.235351	0.366102	3.720807	1.298284	-0.530397	0.993512	0.960965	-77.214380	169.788343			
14820	10.213804	0.551929	3.094828	0.651232	-0.636566	0.835081	0.406831	-77.078485	170.407060			
14821	10.078095	0.541421	2.423465	0.002911	-0.541274	0.552698	-0.015510	-76.880344	170.864219			
14822	9.593592	0.044677	2.516944	0.244616	-0.092292	0.102227	-0.354697	-76.682502	171.154274			
14823	9.336815	-0.772551	2.851593	0.722411	0.643006	-0.067476	-0.718085	-76.521137	171.348352			
14824	9.174679	-1.861073	2.935110	0.996740	1.684110	-0.198976	-1.125013	-76.416716	171.556649			
14825	9.093404	-2.692328	3.762151	1.937995	2.345806	-0.074426	-1.619126	-76.383813	171.844900			
14826	9.576243	-3.199799	4.328589	2.457204	2.740093	0.537857	-2.223160	-76.402788	172.295948			
14827	10.414389	-3.339924	4.243914	2.205633	2.888853	1.341462	-2.813199	-76.399184	172.854302			
14828	11.391252	-3.484977	3.700147	1.470661	3.134866	2.170906	-3.131717	-76.369672	173.397648			
14829	12.986185	-3.061791	3.475350	0.783793	2.798292	3.665026	-3.096175	-76.336068	173.862270			
14830	14.657704	-2.130050	4.184933	0.878602	1.831519	5.444188	-2.768172	-76.179546	174.179529			
14831	15.542256	-1.099247	5.767085	1.936302	0.658220	6.675029	-2.179552	-75.725567	174.344364			
14832	15.329708	-0.124578	6.616447	2.507000	-0.326083	6.691761	-1.407663	-74.992399	174.575695			
14833	13.714122	0.814522	4.826320	0.918077	-0.996272	4.685457	-0.855502	-74.292528	175.192714			
14834	12.754966	2.266524	1.135871	-2.594828	-2.091914	2.757397	-0.750636	-73.944899	176.114908			
14835	11.539467	3.526769	-0.038663	-3.524745	-3.313889	1.241405	-1.265037	-73.705985	176.798448			
14836	9.575477	4.118519	2.077029	-1.038776	-4.125715	-0.072814	-1.976945	-73.600003	177.019380			
14837	9.461062	3.369409	5.932395	2.674677	-3.750396	0.903552	-2.622882	-73.424667	176.983450			
14838	7.873870	1.784596	5.150359	2.459978	-2.161585	-0.813556	-2.793820	-73.034123	176.840386			
14839	6.004985	-0.072245	2.467884	0.584366	-0.084555	-3.346873	-2.902495	-72.687169	176.529841			
14840	5.512908	-2.769224	3.543549	2.024877	2.457540	-3.450469	-3.026820	-72.486515	176.119579			
14841	5.154731	-3.639795	4.099470	2.763405	3.236883	-3.606949	-2.737207	-72.377282	175.569588			
14842	6.103907	-2.034347	2.794925	1.052622	1.833340	-3.123991	-2.131827	-72.422265	174.986570			
14843	7.599875	-0.650587	2.636604	0.293404	0.541350	-1.765711	-1.509336	-72.514454	174.424042			
14844	8.561274	0.232562	3.122638	0.382763	-0.336320	-0.711007	-0.809676	-72.694012	173.946388			
14845	9.659494	1.495143	2.259829	-0.869372	-1.428354	0.079320	-0.140513	-72.926821	173.576226			
14846	10.148575	2.671632	2.217111	-1.134034	-2.553512	0.542989	0.404273	-73.156088	173.257681			
14847	10.134221	3.465623	2.141755	-1.242239	-3.318159	0.519135	0.826410	-73.334329	173.001141			
14848	10.096309	3.925047	2.139380	-1.245759	-3.762747	0.493046	1.137689	-73.458964	172.790714			
14849	9.744553	3.741795	2.273648	-0.978758	-3.598021	0.198460	1.290669	-73.535049	172.613439			
14850	9.321858	3.189251	2.433251	-0.638532	-3.075806	-0.162777	1.336532	-73.608387	172.444175			
14851	8.696338	2.240014	2.406476	-0.383615	-2.152299	-0.776343	1.308982	-73.655007	172.265740			
14852	8.398392	1.198767	2.387259	-0.197840	-1.128500	-1.074474	1.264497	-73.726768	172.073123			
14853	8.250426	0.288329	2.559967	0.122071	-0.253339	-1.173996	1.183140	-73.811253	171.930818			
14854	8.245213	-0.177126	2.602129	0.236348	0.197073	-1.170277	1.080961	-73.946233	171.853042			
14855	8.396108	-0.255768	2.427327	0.059551	0.293394	-1.074136	0.970528	-74.108221	171.826854			
14856	8.511751	-0.133032	2.360181	-0.023537	0.177489	-0.980591	0.941608	-74.301351	171.781756			
14857	8.688846	0.224631	2.422922	-0.027084	-0.182322	-0.791435	0.978879	-74.500156	171.707174			
14858	8.870336	0.594202	2.358689	-0.149798	-0.534936	-0.631693	1.117763	-74.718383	171.542231			
14859	8.831204	1.020928	2.343079	-0.175426	-0.954779	-0.670478	1.365865	-74.929578	171.268996			
14860	9.075452	1.425367	2.308652	-0.287601	-1.334475	-0.439229	1.714212	-75.145088	170.863336			
14861	9.378666	1.683102	2.160351	-0.507566	-1.547501	-0.179057	2.154049	-75.333530	170.323648			
14862	9.436238	1.633929	2.132764	-0.510721	-1.476745	-0.126651	2.664386	-75.511891	169.671223			
14863	9.356995	1.573143	1.966660	-0.616534	-1.380553	-0.241389	3.201588	-75.659471	168.976088			
14864	9.003507	1.459238	2.077237	-0.385804	-1.279890	-0.554156	3.744716	-75.787626	168.243894			
14865	8.559103	1.216381	2.089909	-0.214465	-1.045988	-0.982885	4.271706	-75.904570	167.503325			
14866	8.315491	0.896903	2.073099	-0.106120	-0.724347	-1.227027	4.828031	-76.038575	166.734637			
14867	8.346433	0.614267	2.119534	-0.005326	-0.434111	-1.190382	5.410473	-76.173099	165.941694			
14868	8.538596	0.219558	2.059422	-0.019916	-0.007981	-1.026534	6.067651	-76.336785	165.086223			
14869	8.836202	-0.042429	1.952096	-0.119797	0.302142	-0.769171	6.753574	-76.492936	164.216323			
14870	9.169872	-0.282925	1.886227	-0.185968	0.589311	-0.466969	7.459634	-76.650984	163.336329			
14871	9.204361	-0.497252	1.776929	-0.231830	0.838934	-0.465639	8.163810	-76.782022	162.455446			
14872	9.250133	-0.728119	1.681306	-0.263434	1.105237	-0.451553	8.927449	-76.903091	161.527732			
14873	9.254028	-0.773254	1.650961	-0.258378	1.177855	-0.458200	9.729880	-76.981304	160.573503			
14874	9.216528	-0.806249	1.626347	-0.242903	1.238118	-0.504230	10.642268	-77.043344	159.528427			
14875	9.279363	-0.788754	1.680599	-0.186204	1.247968	-0.433940	11.635289	-77.060195	158.412862			
14876	9.281044	-0.575889	1.733676	-0.156234	1.067009	-0.415241	12.752589	-77.033376	157.200174			
14877	9.272181	-0.293462	1.652330	-0.274582	0.845314	-0.431882	13.935159	-76.942155	155.933935			
14878	9.197747	0.072948	1.459879	-0.508526	0.560284	-0.530318	15.179624	-76.790109	154.627746			
14879	9.042281	0.565119	1.281766	-0.745499	0.146257	-0.694151	16.392347	-76.570114	153.347604			
14880	9.048622	1.050032	1.038102	-1.083644	-0.229448	-0.711560	17.589850	-76.316091	152.065182			
14881	9.184116	1.387657	0.898225	-1.330716	-0.460573	-0.587880	18.623092	-76.013359	150.880094			
14882	9.323806	1.526014	1.155157	-1.168800	-0.561494	-0.383228	19.424516	-75.687876	149.831596			
14883	9.463759	1.271433	1.352318	-0.998870	-0.274039	-0.224421	19.831009	-75.345935	149.055610			
14884	9.409490	0.796990	1.393917	-0.893509	0.217884	-0.311603	19.874984	-75.022889	148.561476			
14885	9.271953	0.052908	1.288478	-0.847881	0.971976	-0.540778	19.597190	-74.738750	148.339644			
14886	9.134260	-0.686009	1.393814	-0.585389	1.664304	-0.716788	19.119464	-74.527671	148.310706			
14887	9.178377	-1.549876	1.382860	-0.428153	2.508814	-0.752911	18.466032	-74.389867	148.460559			
14888	9.471149	-2.370705	1.231584	-0.449431	3.363110	-0.575417	17.788578	-74.335889	148.715073			
14889	10.011354	-2.669775	1.371859	-0.365482	3.675691	-0.035543	17.144732	-74.368109	149.040871			
14890	11.065185	-2.339121	1.929357	-0.152476	3.349091	1.159661	16.628486	-74.496800	149.348864			
14891	12.408266	-1.599252	2.542444	-0.052284	2.642322	2.677385	16.124234	-74.641646	149.667105			
14892	13.118900	-0.889014	2.989613	0.040881	1.909443	3.535940	15.568852	-74.741410	149.997740			
14893	13.350107	-0.381493	3.674431	0.510640	1.245835	3.973511	14.969450	-74.866254	150.348719			
14894	13.276109	0.024733	4.467273	1.185083	0.606225	4.131487	14.477323	-75.050287	150.631912			
14895	12.872748	0.305595	4.486237	1.241427	0.231129	3.764227	14.031101	-75.210734	150.949499			
14896	12.280390	0.882455	4.595162	1.345349	-0.463628	3.251660	13.684571	-75.378552	151.296332			
14897	11.990773	1.442145	4.077328	0.800304	-0.945790	2.873835	13.353362	-75.559967	151.755743			
14898	12.012027	2.089545	3.375830	0.000439	-1.431485	2.757191	13.023744	-75.764486	152.341205			
14899	11.764024	2.934524	2.802227	-0.664811	-2.178377	2.421222	12.597648	-75.970732	153.103572			
14900	11.153895	4.369824	2.670393	-0.968119	-3.646701	1.866335	12.164678	-76.215168	153.910284			
14901	10.475461	6.049690	2.788812	-1.058341	-5.420671	1.305182	11.679143	-76.519624	154.702346			
14902	9.974184	7.166931	2.868740	-1.073351	-6.623445	0.867019	11.132525	-76.878363	155.391717			
14903	9.590320	7.470837	3.171876	-0.726937	-7.075317	0.543927	10.384342	-77.251451	156.013842			
14904	9.270773	6.758663	3.213263	-0.433051	-6.476931	0.177972	9.443409	-77.613255	156.568299			
14905	8.927724	5.336474	3.457680	0.209771	-5.243744	-0.189981	8.304357	-77.955658	157.147441			
14906	9.119579	3.556638	3.789505	0.931421	-3.656381	-0.017814	7.000914	-78.290143	157.779072			
14907	9.321947	1.700192	3.830780	1.421177	-1.938042	0.121493	5.596103	-78.546299	158.513581			
14908	9.291375	0.030716	4.021734	2.073446	-0.462250	0.086385	4.286770	-78.737069	159.247674			
14909	9.176267	-1.375398	4.355101	2.818673	0.715507	0.016110	3.101981	-78.857755	159.959196			
14910	9.224905	-2.568267	3.837813	2.682672	1.951202	-0.044393	2.142291	-78.916214	160.652257			
14911	9.178057	-2.812498	3.201438	2.162484	2.332298	-0.206436	1.350844	-78.873465	161.417329			
14912	9.117265	-2.393608	3.051766	1.887651	1.954491	-0.284634	0.614021	-78.760135	162.264066			
14913	9.030660	-1.379037	3.215042	1.720611	0.923044	-0.326994	-0.122075	-78.548073	163.178425			
14914	8.880558	-0.281253	2.827004	1.019735	-0.030363	-0.544765	-0.812615	-78.271506	164.117248			
14915	8.621824	0.722203	2.503649	0.429857	-0.920258	-0.863171	-1.503133	-77.959967	165.082191			
14916	8.227789	1.251038	2.302521	0.125573	-1.401223	-1.293073	-2.235765	-77.644251	166.056821			
14917	8.157386	1.479263	2.422970	0.144405	-1.669486	-1.339569	-3.067688	-77.340158	167.049467			
14918	7.975933	1.208646	2.469241	0.258314	-1.448093	-1.505485	-3.977085	-77.073027	168.033810			
14919	7.667732	0.691619	2.636674	0.582901	-1.031234	-1.761531	-4.931238	-76.829369	169.001146			
14920	7.397244	0.096354	2.837711	0.959562	-0.548503	-1.966710	-5.905361	-76.645804	169.948485			
14921	7.396165	-0.351935	3.038894	1.242948	-0.198080	-1.908402	-6.865248	-76.518068	170.881468			
14922	7.629970	-0.587737	3.060595	1.256315	0.003088	-1.667094	-7.809407	-76.458428	171.816649			
14923	7.939377	-0.837048	2.920479	1.110057	0.262005	-1.388757	-8.708534	-76.430080	172.739379			
14924	8.218376	-0.973050	2.731913	0.900663	0.423879	-1.154688	-9.526073	-76.436968	173.615724			
14925	8.544824	-1.073129	2.674964	0.795793	0.518185	-0.845012	-10.229115	-76.456149	174.416962			
14926	8.923853	-1.160018	2.702122	0.757088	0.580539	-0.465387	-10.812704	-76.486509	175.122332			
14927	9.159978	-1.237718	2.760658	0.777860	0.625813	-0.217812	-11.276844	-76.508730	175.721933			
14928	9.240756	-1.219898	2.967895	0.949957	0.540725	-0.091921	-11.629168	-76.527983	176.198370			
14929	9.073921	-1.317707	3.066072	1.104175	0.597390	-0.226389	-11.852762	-76.516025	176.528567			
14930	8.768215	-1.508782	2.824327	0.996189	0.837762	-0.569279	-11.922347	-76.522328	176.758235			
14931	8.579347	-1.386234	2.772474	0.959183	0.732275	-0.770719	-11.900829	-76.541895	176.909983			
14932	8.130330	-1.657247	2.497882	0.877261	1.063972	-1.257775	-11.785044	-76.586559	176.961842			
14933	7.698548	-1.796481	2.110769	0.653767	1.299508	-1.760719	-11.549708	-76.676237	176.934580			
14934	7.396434	-1.772068	2.067154	0.689626	1.293122	-2.068476	-11.240440	-76.832931	176.830575			
14935	7.240608	-1.963884	2.045028	0.768446	1.493941	-2.220391	-10.865451	-77.003441	176.631938			
14936	7.011407	-1.953994	2.011146	0.807433	1.502003	-2.456424	-10.450365	-77.218824	176.398791			
14937	7.204307	-1.698946	2.140852	0.854944	1.237257	-2.255581	-10.113609	-77.501431	176.261086			
14938	7.747703	-1.173711	2.755499	1.233160	0.598613	-1.620122	-9.837839	-77.781498	176.178516			
14939	8.174499	-0.600719	3.171042	1.441458	-0.040227	-1.143243	-9.643644	-78.020745	176.214881			
14940	8.750115	0.140510	2.810507	0.851626	-0.661852	-0.684724	-9.500019	-78.279553	176.432504			
14941	9.462586	1.007739	3.133235	0.867795	-1.564811	0.044864	-9.493033	-78.497376	176.806861			
14942	9.881849	1.558931	3.987179	1.521846	-2.283435	0.601180	-9.677247	-78.623385	177.219935			
14943	9.765761	1.653576	3.759855	1.326042	-2.331060	0.436639	-9.881783	-78.637255	177.557764			
14944	9.953018	1.855101	2.820210	0.350744	-2.330470	0.429550	-10.008771	-78.603321	177.792719			
14945	9.935924	1.734692	2.167838	-0.256663	-2.078170	0.289123	-10.087414	-78.496735	177.879053			
14946	9.604693	0.729614	1.569721	-0.575359	-0.972567	-0.118900	-10.107914	-78.360110	177.799317			
14947	9.518119	-0.478983	1.621586	-0.276900	0.196380	-0.151513	-10.209029	-78.253635	177.731788			
14948	9.837277	-1.993790	2.484274	0.794138	1.482652	0.389758	-10.601810	-78.190881	177.830094			
14949	10.012710	-3.675195	3.407507	2.003405	2.894118	0.816652	-11.234332	-78.122169	178.110047			
14950	10.158923	-5.120747	3.852927	2.727159	4.163601	1.118812	-11.994474	-78.078081	178.597288			
14951	10.524182	-5.981821	3.880215	2.873409	4.959464	1.533844	-12.698163	-78.005532	179.199635			
14952	10.567713	-6.371423	4.169081	3.210396	5.246250	1.668729	-13.230906	-77.900524	179.813458			
14953	11.005614	-6.034285	4.582216	3.393727	4.817207	2.179382	-13.515725	-77.782331	-179.595180			
14954	11.694855	-5.409889	4.567847	3.031635	4.234676	2.827637	-13.304639	-77.619033	-179.217395			
14955	12.783845	-4.192894	4.624755	2.507139	3.092235	3.845514	-12.460354	-77.427329	-179.147489			
14956	14.538474	-2.546719	4.937542	1.997462	1.519238	5.547383	-10.867843	-77.113837	-179.534732			
14957	15.412366	-1.367190	5.436544	1.923838	0.427570	6.468487	-8.691257	-76.512650	179.717313			
14958	14.178611	-0.482485	3.703358	0.252243	-0.026696	4.847242	-6.930436	-75.952461	179.453490			
14959	12.764345	1.029965	0.378973	-2.891413	-1.048797	2.624051	-6.264821	-75.626040	179.825013			
14960	11.977678	4.174942	-0.857007	-4.251373	-4.054917	1.461744	-6.098624	-75.490819	-179.923172			
14961	12.731844	8.043063	2.782607	-1.342897	-8.292510	2.992173	-6.071871	-75.469819	179.885269			
14962	14.374873	9.488130	7.053105	2.132476	-10.191662	5.614213	-6.058259	-75.281201	179.504740			
14963	13.009806	8.395286	3.516724	-0.940610	-8.696659	3.438132	-5.592469	-74.630313	178.938547			
14964	9.674571	3.850800	2.416846	-0.747668	-4.050531	0.051382	-5.513502	-74.037450	178.453805			
14965	7.441760	-0.738649	3.865701	1.701657	0.305905	-1.573785	-5.698286	-73.631340	178.055414			
14966	6.415320	-2.050699	3.465062	1.738128	1.634451	-2.624102	-5.616624	-73.324453	177.597531			
14967	5.121705	-1.536576	2.726314	1.310786	1.210894	-4.081961	-5.280778	-72.993941	177.043736			
14968	4.715848	-1.527128	3.538624	2.173857	1.089853	-4.228806	-4.769333	-72.772511	176.453326			
14969	6.158444	-1.728227	3.291209	1.531085	1.371197	-2.919156	-4.022333	-72.763832	175.848409			
14970	7.725495	-0.810896	2.813470	0.499735	0.597560	-1.587759	-3.100025	-72.921550	175.264527			
14971	8.583323	0.823853	2.398080	-0.330697	-0.909561	-0.915158	-2.232886	-73.147203	174.834786			
14972	8.793296	2.494145	2.117124	-0.820093	-2.497421	-0.806297	-1.533125	-73.362390	174.567141			
14973	8.953527	3.726431	2.062885	-1.011701	-3.690009	-0.665697	-0.951633	-73.550231	174.354888			
14974	9.261435	4.541119	1.843327	-1.347121	-4.450583	-0.422739	-0.448297	-73.735498	174.110289			
14975	9.780551	4.849198	1.869646	-1.458258	-4.729874	0.095447	-0.038081	-73.892045	173.788797			
14976	9.681249	4.598627	1.992337	-1.261402	-4.480774	0.045043	0.317724	-74.006518	173.346671			
14977	9.391080	3.820114	2.017427	-1.067836	-3.701266	-0.220191	0.645850	-74.065355	172.789025			
14978	9.027181	2.734535	2.226645	-0.650828	-2.640199	-0.510464	0.979005	-74.085752	172.129901			
14979	8.631028	1.666187	2.398315	-0.259747	-1.597248	-0.845857	1.309820	-74.098023	171.421309			
14980	8.401071	0.573562	2.421533	-0.035997	-0.512976	-1.065897	1.582493	-74.150634	170.741451			
14981	8.246172	-0.206741	2.623613	0.313079	0.235148	-1.165601	1.793206	-74.227189	170.135382			
14982	8.183479	-0.501412	2.833015	0.589334	0.497506	-1.172556	1.934707	-74.339190	169.650189			
14983	8.210082	-0.486172	2.726730	0.500831	0.496919	-1.176771	2.029275	-74.484478	169.275046			
14984	8.446389	-0.062822	2.570365	0.252211	0.109441	-0.987918	2.090217	-74.663899	168.970676			
14985	8.606785	0.353366	2.367467	-0.020852	-0.266961	-0.883256	2.134190	-74.847206	168.717881			
14986	8.774178	0.915109	2.361954	-0.131216	-0.816294	-0.717697	2.157558	-75.038103	168.490806			
14987	9.032075	1.324936	2.352269	-0.248526	-1.209400	-0.466964	2.198466	-75.210081	168.215187			
14988	9.217254	1.576974	2.267003	-0.395789	-1.436029	-0.306633	2.300704	-75.377681	167.837680			
14989	9.452811	1.688887	2.360315	-0.366935	-1.546339	-0.052911	2.480662	-75.508687	167.344222			
14990	9.441737	1.529331	2.396470	-0.286418	-1.389426	-0.054832	2.762183	-75.628123	166.711655			
14991	9.428063	1.141106	2.328380	-0.262318	-0.984039	-0.087737	3.220596	-75.734824	165.903209			
14992	9.206400	0.738065	2.255124	-0.186512	-0.569241	-0.324314	3.844370	-75.807293	164.950528			
14993	8.948677	0.250223	2.127544	-0.137478	-0.058105	-0.612387	4.607912	-75.847550	163.907792			
14994	8.695019	-0.066837	2.155677	0.027889	0.257716	-0.857941	5.423540	-75.881047	162.852280			
14995	8.561609	-0.310673	2.144172	0.112943	0.516735	-0.997060	6.232080	-75.909107	161.834153			
14996	8.586107	-0.378506	2.115597	0.112018	0.616530	-0.983898	7.020549	-75.956343	160.849138			
14997	8.855973	-0.330841	2.144650	0.085087	0.610918	-0.715617	7.772963	-75.993049	159.900008			
14998	9.144348	-0.236481	2.026036	-0.095705	0.592649	-0.462855	8.532551	-76.022058	158.968403			
14999	9.325634	-0.146529	2.198073	0.022791	0.512246	-0.244122	9.286574	-76.043314	158.042218			
15000	9.418620	-0.059289	2.346151	0.140136	0.431560	-0.116690	10.052860	-76.065292	157.085288			
15001	9.449624	-0.031880	2.356888	0.151567	0.433794	-0.084373	10.832520	-76.057332	156.119522			
15002	9.264148	-0.080328	2.404730	0.261806	0.482136	-0.256928	11.638681	-76.032678	155.124270			
15003	9.144910	-0.114819	2.257769	0.166221	0.567004	-0.411046	12.467046	-75.981099	154.102012			
15004	8.902397	-0.110962	2.085735	0.064637	0.608047	-0.689021	13.310559	-75.924216	153.057211			
15005	8.893105	0.002171	1.856379	-0.170067	0.582676	-0.748200	14.165109	-75.852028	151.991968			
15006	8.962160	0.258349	1.879580	-0.219132	0.373476	-0.662154	15.015678	-75.763486	150.917195			
15007	9.117502	0.451119	2.240473	0.041527	0.159939	-0.414567	15.773204	-75.645290	149.891417			
15008	9.043733	0.372634	2.407211	0.233258	0.221541	-0.452183	16.424339	-75.519928	148.939868			
15009	8.874577	0.306014	2.277559	0.160117	0.324751	-0.652563	16.949183	-75.387655	148.120580			
15010	8.767213	0.220891	2.274017	0.199214	0.417704	-0.764495	17.362394	-75.288555	147.422457			
15011	8.851248	0.051499	2.312150	0.261252	0.599899	-0.687714	17.629708	-75.222053	146.860956			
15012	9.049670	-0.203727	2.254543	0.238248	0.895349	-0.530307	17.745207	-75.202665	146.449537			
15013	9.425224	-0.576485	2.029204	0.057657	1.363839	-0.251230	17.728109	-75.212511	146.183564			
15014	9.820537	-0.845049	1.847507	-0.109031	1.719663	0.066644	17.655142	-75.252261	145.993347			
15015	10.327364	-1.090100	1.522288	-0.436722	2.105182	0.460462	17.554000	-75.299612	145.850407			
15016	10.793186	-1.082806	1.618779	-0.431862	2.132101	0.936889	17.486973	-75.351211	145.674704			
15017	11.458971	-0.922335	1.811994	-0.424514	2.015727	1.641511	17.403208	-75.392374	145.464112			
15018	12.031628	-0.597506	1.662841	-0.766773	1.825580	2.185705	17.288084	-75.415808	145.234553			
15019	12.273394	-0.350410	2.000526	-0.577507	1.527649	2.519946	16.998443	-75.366748	145.087085			
15020	12.058389	-0.297845	2.909230	0.279689	1.173470	2.536473	16.453608	-75.287204	145.066103			
15021	11.683018	-0.311089	3.640133	1.015619	0.885630	2.353836	15.729994	-75.245254	145.178659			
15022	11.411255	-0.343000	3.875730	1.284827	0.760753	2.150838	14.993836	-75.271791	145.340931			
15023	11.214819	-0.366874	3.599793	1.072524	0.797305	1.895391	14.306174	-75.320266	145.574673			
15024	10.987806	0.134831	3.647776	0.984413	0.239439	1.721168	13.726596	-75.398883	145.826520			
15025	11.105608	0.973497	3.750107	0.757668	-0.600927	1.909522	13.192424	-75.556473	146.152407			
15026	11.598770	2.096582	2.856073	-0.539390	-1.324597	2.230506	12.768934	-75.813810	146.554398			
15027	11.985352	3.304989	1.607374	-2.148023	-2.028485	2.370335	12.503643	-76.103631	147.011585			
15028	11.656329	4.426491	1.150529	-2.840781	-3.017097	2.003155	12.382634	-76.380692	147.421035			
15029	10.699605	5.773385	1.378613	-2.859074	-4.517211	1.193413	12.287554	-76.598351	147.737893			
15030	9.457908	7.008180	1.870976	-2.553494	-6.018494	0.153479	12.146954	-76.786154	147.875651			
15031	8.447137	7.338415	1.964614	-2.382669	-6.498964	-0.804221	11.797760	-76.964421	147.916460			
15032	7.815675	6.640573	2.462719	-1.592750	-6.104263	-1.360006	11.115605	-77.178087	147.984387			
15033	7.783982	4.909899	2.992890	-0.531761	-4.707799	-1.374189	10.009101	-77.412789	148.233285			
15034	8.033826	2.895540	3.275811	0.381527	-2.966382	-1.169081	8.541961	-77.622588	148.748214			
15035	8.133565	1.015820	3.269872	1.052629	-1.293450	-1.146823	6.778148	-77.799519	149.566434			
15036	8.936791	-0.902341	3.492412	1.864765	0.370446	-0.364832	4.797060	-77.971506	150.689630			
15037	9.687152	-2.810722	3.947963	2.926744	1.891369	0.443202	2.671097	-78.075369	152.090629			
15038	10.423080	-4.346112	4.115200	3.593713	3.172934	1.209150	0.624744	-78.105182	153.648418			
15039	10.810055	-5.021420	3.389666	3.154567	4.040902	1.469203	-1.127211	-78.043859	155.251410			
15040	11.036662	-4.473151	2.805958	2.310870	3.767764	1.595807	-2.504965	-77.890663	156.796148			
15041	11.188749	-3.400755	2.445336	1.424350	2.944993	1.677766	-3.575280	-77.634891	158.243716			
15042	10.902053	-1.965244	2.330769	0.683131	1.662209	1.364038	-4.461676	-77.316432	159.602594			
15043	10.516468	-0.731017	2.206316	0.052868	0.556689	0.943013	-5.222087	-76.957870	160.834573			
15044	9.762732	0.119877	1.953014	-0.431522	-0.179451	0.133206	-5.836679	-76.603320	161.932454			
15045	8.971151	0.853273	2.254076	-0.344333	-1.033014	-0.587474	-6.390356	-76.243393	162.924906			
15046	8.151084	1.116644	2.759355	0.139662	-1.533932	-1.272870	-6.957082	-75.907825	163.844079			
15047	7.619111	1.062802	3.085553	0.533612	-1.650669	-1.707661	-7.568017	-75.597854	164.731956			
15048	7.126523	0.691008	3.206442	0.864807	-1.392468	-2.140718	-8.208171	-75.311255	165.598689			
15049	6.921855	0.166260	3.231031	1.100007	-0.937016	-2.309944	-8.854162	-75.043147	166.467017			
15050	7.019372	-0.267467	3.112111	1.100345	-0.494430	-2.224997	-9.501191	-74.834621	167.356044			
15051	7.511876	-0.642455	3.025247	1.007210	-0.097763	-1.752350	-10.136703	-74.666058	168.265002			
15052	7.846890	-0.911800	3.028898	0.996809	0.155876	-1.412610	-10.744588	-74.534660	169.184664			
15053	8.121550	-1.023760	3.059941	0.968966	0.250044	-1.131131	-11.282159	-74.419269	170.077631			
15054	8.359423	-0.945968	3.096224	0.891129	0.163962	-0.894146	-11.753277	-74.331458	170.938931			
15055	8.608584	-0.886575	3.139199	0.825144	0.094600	-0.644347	-12.134581	-74.250240	171.740617			
15056	8.753328	-0.598926	3.017773	0.565316	-0.135887	-0.552647	-12.438769	-74.179615	172.478648			
15057	8.727461	-0.530629	3.027734	0.546297	-0.210219	-0.578259	-12.672743	-74.106496	173.139439			
15058	8.764644	-0.479175	2.872979	0.371116	-0.211424	-0.586628	-12.863138	-74.065543	173.730386			
15059	8.758532	-0.593381	2.776568	0.316872	-0.077261	-0.611224	-13.031824	-74.050257	174.268596			
15060	8.674929	-0.774529	2.671038	0.300621	0.120391	-0.708629	-13.183860	-74.071457	174.744464			
15061	8.559627	-1.070133	2.596021	0.358054	0.416794	-0.821035	-13.321024	-74.125309	175.173330			
15062	8.370650	-1.362239	2.471186	0.393323	0.723698	-1.017701	-13.454171	-74.228188	175.566525			
15063	8.178485	-1.629021	2.453346	0.521745	0.975164	-1.190794	-13.551706	-74.358177	175.898730			
15064	7.954067	-1.850092	2.373916	0.592684	1.202440	-1.414573	-13.632335	-74.531006	176.195542			
15065	7.830186	-2.120286	2.220810	0.583889	1.502038	-1.557850	-13.671941	-74.719647	176.462618			
15066	7.803882	-2.309069	2.081014	0.538258	1.723105	-1.608777	-13.658111	-74.926371	176.705652			
15067	7.845144	-2.422169	2.315929	0.797245	1.766420	-1.504809	-13.614049	-75.122640	176.918378			
15068	7.903217	-2.469581	2.490354	0.976289	1.767304	-1.405250	-13.539320	-75.286409	177.077878			
15069	7.791874	-2.725273	2.303784	0.913237	2.071976	-1.547051	-13.330289	-75.389636	177.122307			
15070	7.597515	-2.822116	2.212976	0.909526	2.200806	-1.755825	-13.012107	-75.496323	177.130162			
15071	7.631171	-2.726827	2.617715	1.257139	2.015833	-1.634743	-12.705401	-75.621529	177.160014			
15072	7.780871	-2.654631	3.091682	1.653780	1.838149	-1.384538	-12.500346	-75.778870	177.284973			
15073	7.911527	-2.370829	3.022469	1.501519	1.597740	-1.295586	-12.437244	-76.008533	177.657148			
15074	8.695491	-1.429375	3.133886	1.215177	0.673887	-0.563633	-12.607184	-76.309251	178.329722			
15075	9.575341	-0.718948	3.716517	1.425460	-0.152882	0.383444	-12.954548	-76.531701	179.098927			
15076	10.213237	-0.163340	4.235176	1.667732	-0.816175	1.088051	-13.185631	-76.609639	179.694735			
15077	10.598630	0.146475	3.632118	0.945795	-0.967009	1.310039	-12.952669	-76.556448	179.931434			
15078	10.903168	0.588562	2.841593	0.028059	-1.193264	1.406731	-12.201966	-76.487405	179.809295			
15079	11.278059	0.803659	2.831775	-0.110388	-1.360911	1.762933	-11.217361	-76.456829	179.473521			
15080	11.948012	0.854018	3.300833	0.187263	-1.457671	2.525049	-10.303572	-76.508216	179.148551			
15081	13.476973	1.076589	4.740811	1.181491	-1.899551	4.338591	-9.575680	-76.507551	178.851056			
15082	15.023501	0.345625	4.930063	1.131657	-1.158215	5.919706	-8.918986	-76.395884	178.657795			
15083	16.316036	0.701126	5.061293	0.862170	-1.466392	7.199873	-8.185361	-76.209438	178.661313			
15084	16.481808	1.567078	4.534457	0.147695	-2.186672	7.212692	-7.820986	-76.025835	179.001448			
15085	15.498919	2.001315	3.032878	-1.159140	-2.384460	5.884147	-7.962642	-75.781027	179.558649			
15086	13.756569	2.963972	0.049685	-3.778818	-2.925938	3.423245	-8.178304	-75.509364	179.958491			
15087	13.006762	3.710600	1.120078	-2.727857	-3.833004	2.917807	-8.431962	-75.277732	-179.978085			
15088	12.582549	2.480425	5.956198	2.104822	-3.342167	3.764801	-8.745561	-74.983961	179.974844			
15089	10.499894	1.819503	4.677503	1.428842	-2.514976	1.459844	-8.845106	-74.552388	179.874637			
15090	8.532441	0.610596	2.994257	0.451941	-1.067174	-0.823947	-8.900403	-74.157731	179.598883			
15091	7.382365	-2.083579	4.297089	2.368180	1.371917	-1.457150	-8.808431	-73.829963	179.154144			
15092	6.593445	-3.383429	3.837106	2.333403	2.727397	-2.278698	-8.404869	-73.641873	178.670355			
15093	6.246920	-2.999954	3.056504	1.615149	2.495803	-2.846472	-7.793664	-73.583834	178.156843			
15094	6.132992	-3.047050	2.771096	1.380399	2.614494	-3.042465	-7.086748	-73.661401	177.711263			
15095	6.944684	-1.996672	2.008548	0.268334	1.740472	-2.522403	-6.228669	-73.842499	177.390789			
15096	8.225881	-0.092416	1.733702	-0.608211	-0.054550	-1.427803	-5.362251	-74.098898	177.190641			
15097	9.492886	1.683393	1.412585	-1.452438	-1.729326	-0.334106	-4.551856	-74.379251	177.125883			
15098	10.646460	3.339730	1.134747	-2.157042	-3.309229	0.684171	-3.805214	-74.639565	177.099658			
15099	11.345577	4.450980	1.234659	-2.287490	-4.405425	1.386272	-3.109763	-74.834367	176.996754			
15100	11.492642	5.028315	1.471223	-2.084511	-4.986907	1.602847	-2.422716	-74.980479	176.721995			
15101	10.654871	4.991586	1.630227	-1.663864	-4.955550	0.853792	-1.765235	-75.045353	176.285057			
15102	9.165766	4.212529	1.867115	-0.959181	-4.203066	-0.503716	-1.193733	-75.064793	175.769106			
15103	7.913788	3.170292	1.987354	-0.421352	-3.178774	-1.667371	-0.669160	-75.071202	175.190592			
15104	7.392283	2.136422	2.075467	-0.104731	-2.152165	-2.139689	-0.245081	-75.103268	174.638441			
15105	7.199872	1.346295	2.129647	0.075998	-1.363448	-2.307936	0.065701	-75.165338	174.169895			
15106	7.461289	0.944797	2.412951	0.330974	-0.979471	-1.982177	0.183256	-75.273102	173.858792			
15107	7.899049	0.610527	2.238556	0.101603	-0.618680	-1.603806	0.145904	-75.415244	173.677440			
15108	8.285829	0.502682	2.168352	-0.030083	-0.499269	-1.247690	0.024781	-75.590083	173.578204			
15109	8.528844	0.400116	2.027408	-0.189207	-0.383143	-1.047473	-0.137672	-75.787650	173.490757			
15110	8.764020	0.425667	1.789842	-0.447321	-0.383956	-0.877075	-0.296619	-76.018333	173.392636			
15111	8.933756	0.528967	1.782127	-0.475143	-0.488697	-0.713066	-0.451360	-76.245673	173.289728			
15112	9.121431	0.542715	1.730942	-0.536665	-0.499647	-0.541579	-0.643208	-76.476365	173.197952			
15113	9.240221	0.674751	1.711528	-0.568741	-0.633420	-0.429643	-0.831849	-76.681512	173.126567			
15114	9.191145	0.721903	1.840413	-0.411138	-0.707179	-0.446994	-1.011175	-76.866586	173.058413			
15115	9.107998	0.718793	1.792535	-0.413918	-0.706642	-0.538274	-1.114058	-77.029375	172.943671			
15116	9.056549	0.624544	1.774536	-0.384032	-0.615738	-0.591328	-1.098770	-77.173013	172.740655			
15117	9.185680	0.596109	1.841968	-0.323110	-0.591284	-0.449416	-0.901922	-77.301699	172.403056			
15118	9.245913	0.384333	1.883209	-0.245049	-0.378583	-0.379889	-0.558402	-77.414314	171.947243			
15119	9.345831	0.064499	1.873255	-0.210148	-0.043913	-0.283172	-0.022977	-77.507772	171.367648			
15120	9.440693	-0.047195	1.783997	-0.281126	0.101162	-0.209446	0.611747	-77.596745	170.742920			
15121	9.454864	-0.031671	1.751257	-0.302003	0.112590	-0.202359	1.287156	-77.661376	170.086860			
15122	9.420336	0.034199	1.643471	-0.393527	0.083321	-0.258471	1.951477	-77.726602	169.456600			
15123	9.261985	0.224428	1.625743	-0.392716	-0.086776	-0.415029	2.629164	-77.778104	168.812045			
15124	9.194303	0.271370	1.567447	-0.429102	-0.106811	-0.492271	3.287406	-77.826721	168.177940			
15125	9.227477	0.280815	1.701984	-0.296507	-0.113039	-0.430726	3.944619	-77.859905	167.532328			
15126	9.168380	0.155410	1.864062	-0.098464	0.005569	-0.455962	4.591653	-77.890970	166.878901			
15127	9.321420	-0.031503	1.906343	-0.052137	0.213288	-0.300813	5.271265	-77.907546	166.188506			
15128	9.352060	-0.113691	1.869414	-0.073031	0.324021	-0.280726	5.980965	-77.920607	165.470612			
15129	9.221528	-0.315814	1.844200	-0.033541	0.545968	-0.419172	6.784422	-77.914713	164.658584			
15130	9.237775	-0.489360	1.687487	-0.154432	0.768896	-0.442072	7.685711	-77.912533	163.758453			
15131	9.171856	-0.537049	1.585672	-0.225243	0.858085	-0.531600	8.661470	-77.895760	162.800899			
15132	8.999879	-0.435021	1.546566	-0.236618	0.785375	-0.707413	9.706020	-77.872591	161.772316			
15133	8.949181	-0.248064	1.520320	-0.274651	0.636939	-0.758433	10.801497	-77.825548	160.688659			
15134	8.954479	0.059546	1.517218	-0.321412	0.371980	-0.743708	11.931043	-77.754504	159.556512			
15135	8.964644	0.412169	1.477279	-0.416375	0.071032	-0.727616	13.043259	-77.644183	158.411978			
15136	9.046527	0.714331	1.445600	-0.514046	-0.173992	-0.639629	14.112378	-77.507588	157.264285			
15137	9.145840	0.961450	1.510928	-0.519356	-0.374765	-0.515197	15.087872	-77.333542	156.168767			
15138	9.213975	1.116837	1.716388	-0.374782	-0.508459	-0.395072	15.903505	-77.135689	155.164778			
15139	9.235792	1.004952	1.841191	-0.261926	-0.375142	-0.352757	16.514410	-76.931778	154.277799			
15140	9.242334	0.694251	1.810647	-0.261192	-0.032107	-0.372782	16.943478	-76.760076	153.502457			
15141	9.221873	0.295460	1.782269	-0.232694	0.387594	-0.426405	17.213427	-76.605706	152.850972			
15142	9.210678	-0.221380	1.725756	-0.203365	0.921166	-0.486708	17.359613	-76.485807	152.310714			
15143	9.299574	-0.680013	1.609727	-0.253171	1.413360	-0.459932	17.454621	-76.396297	151.844361			
15144	9.522039	-1.129832	1.472687	-0.341770	1.912488	-0.307945	17.549802	-76.340994	151.399569			
15145	9.947836	-1.505634	1.341519	-0.474133	2.361414	0.047584	17.661755	-76.299999	150.980476			
15146	10.422051	-1.707040	1.216179	-0.641912	2.646658	0.463272	17.823161	-76.257242	150.561628			
15147	10.821375	-1.757908	1.033685	-0.881279	2.792324	0.802733	18.043267	-76.198548	150.125199			
15148	11.104419	-1.604418	0.962629	-1.034628	2.709049	1.068465	18.322830	-76.128942	149.653653			
15149	11.399666	-1.281472	0.831546	-1.290646	2.480784	1.343741	18.605953	-76.010046	149.157596			
15150	11.371478	-1.179118	0.838851	-1.308783	2.406423	1.318378	18.806933	-75.828812	148.697246			
15151	11.214122	-1.094072	0.957310	-1.201094	2.310629	1.191322	18.813466	-75.611035	148.375780			
15152	10.985926	-1.166070	1.074981	-1.048573	2.350576	0.984584	18.634841	-75.395722	148.239074			
15153	10.618319	-0.887800	2.076032	-0.114551	1.833220	0.886514	18.259240	-75.206298	148.277305			
15154	10.439866	-0.678557	2.705160	0.442786	1.467509	0.884015	17.767365	-75.084215	148.427894			
15155	10.402349	-0.602069	3.001398	0.691856	1.308448	0.929240	17.264117	-75.026705	148.633278			
15156	10.233176	-0.549834	3.237639	0.927753	1.161581	0.831207	16.820461	-75.024133	148.837561			
15157	9.954758	-0.244277	3.512184	1.166802	0.744372	0.655205	16.467012	-75.081181	149.021510			
15158	9.941769	0.439544	3.589204	1.077861	0.043792	0.711123	16.332547	-75.243206	149.118696			
15159	10.266719	1.239064	3.537971	0.784866	-0.690825	1.066862	16.461384	-75.491354	149.135464			
15160	10.736387	2.273062	3.055396	0.022604	-1.531306	1.475644	16.843899	-75.808924	149.065634			
15161	10.512327	3.684576	2.492963	-0.737441	-2.811706	1.225873	17.297996	-76.140937	149.048407			
15162	10.258398	5.492110	1.845389	-1.644955	-4.473478	0.961571	17.701356	-76.477238	149.138661			
15163	10.238717	7.041532	1.228074	-2.488908	-5.882224	0.917008	17.939223	-76.790148	149.395673			
15164	10.050640	7.972808	1.065403	-2.717897	-6.818892	0.762329	17.978478	-77.097653	149.723723			
15165	10.310390	7.817574	1.421256	-2.318547	-6.753966	1.070622	17.693591	-77.393305	150.125499			
15166	10.443443	6.130748	2.363621	-1.040422	-5.331489	1.265704	16.936114	-77.661676	150.665175			
15167	10.446107	3.985768	3.143540	0.177623	-3.460805	1.272445	15.669321	-77.888337	151.470649			
15168	10.178783	2.003910	3.800149	1.293159	-1.778210	1.014568	14.041260	-78.089106	152.507052			
15169	10.286480	-0.013892	4.479010	2.390697	-0.056359	1.148785	12.170675	-78.264486	153.799148			
15170	10.339191	-2.197283	4.742102	3.168682	1.898461	1.167698	10.182815	-78.391360	155.359046			
15171	10.522513	-3.692762	4.459891	3.238251	3.338156	1.260715	8.264610	-78.437470	157.119057			
15172	10.520589	-4.316827	3.647069	2.594865	4.075922	1.108482	6.539990	-78.367760	158.971738			
15173	10.571284	-3.845772	2.925289	1.716699	3.761797	1.050117	5.121492	-78.183713	160.792209			
15174	10.529664	-2.636036	2.068723	0.526439	2.768213	0.871935	4.083150	-77.884383	162.456397			
15175	9.965273	-1.093857	1.178400	-0.661097	1.420220	0.159127	3.418300	-77.525220	163.905494			
15176	9.499144	0.274907	0.687388	-1.408037	0.143227	-0.390460	2.918328	-77.182803	165.207124			
15177	9.204472	1.316098	0.815190	-1.491071	-0.940278	-0.646918	2.417737	-76.851866	166.421892			
15178	8.808657	1.740538	1.531126	-0.843095	-1.533861	-0.873865	1.764032	-76.522809	167.664460			
15179	8.502942	1.695670	2.311873	-0.058226	-1.662415	-0.994927	0.999779	-76.201031	168.912622			
15180	8.090731	1.577601	2.908262	0.590973	-1.684595	-1.255849	0.113668	-75.898776	170.196611			
15181	7.619445	0.974301	2.983309	0.840763	-1.142559	-1.695245	-0.889560	-75.635105	171.533339			
15182	7.630088	0.284227	2.848894	0.787820	-0.465736	-1.714694	-1.949309	-75.416606	172.921834			
15183	7.627329	-0.237365	2.824904	0.815010	0.024548	-1.716542	-3.012286	-75.231147	174.337269			
15184	7.583864	-0.635536	2.727110	0.763914	0.401875	-1.774601	-4.045632	-75.088302	175.756429			
15185	7.778370	-0.872713	2.682453	0.681283	0.616739	-1.589817	-5.045814	-74.996267	177.201152			
15186	8.157606	-0.799262	2.710603	0.584057	0.514147	-1.214597	-5.978902	-74.952435	178.614911			
15187	8.354044	-0.567849	2.758451	0.541523	0.250000	-1.016908	-6.833840	-74.944276	179.972992			
15188	8.686640	-0.348964	2.607252	0.286022	0.022060	-0.741034	-7.582674	-74.979144	-178.771723			
15189	8.814968	-0.087374	2.419849	0.052677	-0.244094	-0.674605	-8.204973	-75.024149	-177.668504			
15190	8.926664	0.025229	2.130499	-0.252973	-0.350916	-0.645474	-8.703269	-75.087572	-176.745558			
15191	8.800814	0.060086	2.008673	-0.327489	-0.390747	-0.799767	-9.062247	-75.153459	-176.036611			
15192	8.596845	-0.085862	1.866905	-0.384642	-0.242345	-1.026804	-9.314504	-75.244188	-175.515022			
15193	8.407134	-0.263873	1.878141	-0.295610	-0.069982	-1.199637	-9.453837	-75.351278	-175.162492			
15194	8.216669	-0.616015	1.792612	-0.286514	0.288971	-1.390042	-9.491107	-75.472659	-174.951505			
15195	8.015110	-0.940436	2.034889	0.037590	0.599207	-1.511682	-9.421157	-75.598883	-174.855267			
15196	7.897902	-1.279148	2.248073	0.311613	0.929283	-1.560039	-9.241526	-75.717729	-174.884233			
15197	7.749354	-1.721646	1.940695	0.090419	1.408364	-1.763391	-8.861679	-75.803997	-175.060683			
15198	7.624842	-1.827765	1.702782	-0.097664	1.549688	-1.940756	-8.346378	-75.892113	-175.283637			
15199	7.607794	-1.913451	1.835340	0.044219	1.644333	-1.925832	-7.878579	-76.002713	-175.464582			
15200	7.757553	-1.855608	2.240184	0.407306	1.573974	-1.688771	-7.598880	-76.148425	-175.505710			
15201	7.860412	-1.581513	3.089506	1.207967	1.260433	-1.399341	-7.565985	-76.297507	-175.354519			
15202	8.024067	-1.150445	3.723234	1.785347	0.796158	-1.109224	-7.797614	-76.469798	-174.953396			
15203	8.438472	-0.454379	3.503472	1.472581	0.102576	-0.784427	-8.156395	-76.672288	-174.284748			
15204	9.367058	0.601149	3.507533	1.258642	-0.976394	0.080153	-8.583734	-76.848344	-173.453495			
15205	10.336252	1.252075	3.783733	1.317320	-1.668443	1.059449	-8.985722	-76.890894	-172.703870			
15206	10.986304	1.344992	3.514688	0.907047	-1.778845	1.627323	-9.148871	-76.740668	-172.275579			
15207	10.965268	1.060609	2.206281	-0.387454	-1.458347	1.320714	-8.870506	-76.493621	-172.239908			
15208	10.797454	0.762657	0.819280	-1.728174	-1.116706	0.845838	-8.274024	-76.314206	-172.434489			
15209	10.591139	0.086494	1.096675	-1.430946	-0.425427	0.730260	-7.680098	-76.196189	-172.773964			
15210	10.038747	-1.212922	2.271296	-0.172173	0.891851	0.511136	-7.312036	-76.124038	-173.150362			
15211	9.784715	-2.404487	3.966818	1.535872	2.081066	0.702449	-7.102272	-76.141712	-173.474298			
15212	10.566723	-3.000053	5.065606	2.428315	2.650947	1.736861	-6.838965	-76.194908	-173.699840			
15213	12.118050	-3.171463	5.453136	2.427799	2.804916	3.335698	-6.332843	-76.160773	-173.860401			
15214	13.817361	-3.373679	4.850868	1.388599	3.019754	4.842829	-5.545600	-76.052319	-173.839979			
15215	15.856947	-2.155928	4.633694	0.621318	1.807726	6.737450	-4.819190	-75.853953	-173.576640			
15216	15.902992	-1.250820	3.288469	-0.775360	0.898310	6.431519	-4.417465	-75.463830	-173.168044			
15217	14.224095	0.306636	0.176346	-3.390818	-0.744779	3.985763	-4.389149	-75.187337	-172.612628			
15218	14.227575	2.776543	0.928212	-2.572554	-3.211462	4.117961	-4.770429	-75.039235	-172.149075			
15219	14.497503	4.672300	5.183424	1.530189	-4.937754	5.423867	-5.134507	-74.851162	-171.914006			
15220	14.185783	6.187260	4.880212	1.315839	-6.484609	5.004611	-5.298290	-74.437033	-171.852940			
15221	12.269121	5.505497	2.343609	-0.785466	-5.860262	2.490680	-5.099739	-73.828722	-172.218161			
15222	9.766989	2.215299	3.811577	1.010557	-2.427138	0.575581	-4.870406	-73.220877	-172.842422			
15223	7.993505	-0.078971	3.572260	1.087160	-0.084142	-1.125116	-4.495058	-72.728622	-173.529686			
15224	6.369792	-1.189942	3.031030	0.944295	1.066625	-2.802141	-4.110000	-72.289076	-174.170223			
15225	4.698814	-1.851453	3.382206	1.719556	1.793589	-4.265426	-3.638505	-71.897307	-174.734423			
15226	4.071632	-1.767354	3.073857	1.593228	1.731624	-4.953330	-3.040332	-71.651143	-175.212677			
15227	5.087184	-1.274263	2.950311	1.153582	1.231391	-4.036844	-2.312968	-71.580780	-175.618004			
15228	6.842353	0.002974	2.795804	0.500871	-0.060976	-2.438433	-1.586934	-71.677186	-175.831637			
15229	8.559617	1.419978	2.468208	-0.257656	-1.498149	-0.920871	-1.008604	-71.851126	-175.821426			
15230	9.745202	2.733778	2.282366	-0.677920	-2.823450	0.148232	-0.586507	-72.055475	-175.667350			
15231	10.502951	3.637747	2.136791	-0.925755	-3.734496	0.831896	-0.214316	-72.253326	-175.533989			
15232	10.787505	4.237750	2.059370	-0.978150	-4.328425	1.090406	0.155045	-72.424385	-175.517838			
15233	10.305660	4.361865	1.875915	-0.950492	-4.436701	0.587488	0.534292	-72.534493	-175.654931			
15234	9.514629	3.799465	1.935578	-0.680733	-3.835492	-0.141279	0.887902	-72.588413	-175.935712			
15235	8.677287	3.035044	2.064420	-0.369124	-3.027259	-0.898202	1.262514	-72.608055	-176.362409			
15236	8.174174	2.174690	2.277993	-0.091442	-2.125625	-1.315101	1.631741	-72.626942	-176.880236			
15237	7.872050	1.262747	2.462171	0.097090	-1.180966	-1.553034	1.982056	-72.663306	-177.426555			
15238	7.943281	0.576648	2.569760	0.129280	-0.476437	-1.458756	2.257471	-72.737597	-177.929186			
15239	8.004255	-0.022328	2.410545	-0.072651	0.119937	-1.454480	2.486633	-72.845930	-178.390544			
15240	8.085602	-0.370792	2.284389	-0.221787	0.467259	-1.418325	2.646526	-72.985566	-178.768849			
15241	8.149037	-0.340703	2.499101	-0.010042	0.458677	-1.294598	2.781692	-73.146870	-179.088858			
15242	8.075540	-0.204529	2.526050	0.074090	0.329503	-1.355562	2.857611	-73.352512	-179.330240			
15243	8.251203	0.247620	2.122769	-0.302365	-0.144039	-1.295790	2.881537	-73.586746	-179.492742			
15244	8.529470	0.647535	2.005574	-0.434981	-0.550794	-1.054788	2.811023	-73.830656	-179.576112			
15245	8.858526	0.995784	2.133115	-0.349155	-0.893739	-0.697072	2.729320	-74.079266	-179.661417			
15246	9.218079	1.128786	2.153219	-0.384072	-1.028065	-0.342791	2.670242	-74.326641	-179.791264			
15247	9.504510	1.103623	2.061006	-0.516441	-1.005948	-0.090408	2.727624	-74.541240	179.948108			
15248	9.564887	1.043328	2.011021	-0.551469	-0.940099	-0.043766	2.945122	-74.741760	179.509686			
15249	9.530449	0.717348	2.077963	-0.461525	-0.596770	-0.061137	3.297291	-74.929833	178.910991			
15250	9.432548	0.413780	2.087517	-0.408550	-0.274128	-0.155579	3.776584	-75.104947	178.183407			
15251	9.376230	0.119938	2.190520	-0.277357	0.047204	-0.187346	4.389988	-75.246931	177.366944			
15252	9.340144	-0.174988	2.210818	-0.233560	0.368296	-0.222779	5.011717	-75.356646	176.563532			
15253	9.012027	-0.415341	2.232491	-0.117743	0.630279	-0.541119	5.649252	-75.430554	175.786471			
15254	8.770550	-0.538417	2.141370	-0.132927	0.770866	-0.802364	6.276310	-75.499326	175.066787			
15255	8.784358	-0.530799	2.144703	-0.119683	0.787831	-0.789861	6.903650	-75.559945	174.381279			
15256	8.841011	-0.548128	2.026290	-0.235066	0.826621	-0.766630	7.509708	-75.628033	173.734160			
15257	8.939729	-0.450119	2.031328	-0.239205	0.755119	-0.668281	8.148010	-75.692980	173.078043			
15258	8.807331	-0.274758	2.097639	-0.126209	0.601947	-0.775745	8.823910	-75.747832	172.385590			
15259	8.781063	-0.126221	2.221974	0.015485	0.482296	-0.766846	9.569528	-75.800581	171.607313			
15260	8.962793	0.022685	2.258151	0.021478	0.369017	-0.577174	10.344117	-75.844004	170.768188			
15261	9.081668	0.136802	2.111757	-0.137984	0.287137	-0.493173	11.171912	-75.853756	169.849612			
15262	9.163731	0.227811	1.929196	-0.328926	0.228345	-0.453882	11.981729	-75.823082	168.920735			
15263	9.168612	0.242816	1.648663	-0.604005	0.242399	-0.516623	12.787221	-75.748737	167.962973			
15264	9.085385	0.192158	1.287489	-0.941684	0.317471	-0.688484	13.542501	-75.638593	167.024152			
15265	9.053858	0.211858	1.190331	-1.040852	0.330888	-0.743998	14.229709	-75.490046	166.110675			
15266	9.218753	0.278242	1.207565	-1.080927	0.310321	-0.579258	14.812992	-75.324117	165.250641			
15267	9.339600	0.249592	1.352104	-0.991590	0.382080	-0.432429	15.263688	-75.127420	164.467273			
15268	9.435683	0.190146	1.565828	-0.833551	0.478529	-0.294486	15.537668	-74.906761	163.800661			
15269	9.393053	0.043505	1.828051	-0.595935	0.645140	-0.283697	15.656753	-74.674541	163.245978			
15270	9.387756	-0.108446	1.916757	-0.533756	0.812029	-0.280043	15.618398	-74.458865	162.825575			
15271	9.386611	-0.394755	1.906980	-0.558342	1.108342	-0.306865	15.487067	-74.268839	162.495313			
15272	9.431242	-0.906833	1.708084	-0.756839	1.633563	-0.355052	15.296980	-74.120057	162.232917			
15273	9.604808	-1.495933	1.528140	-0.953605	2.245087	-0.279819	15.092984	-74.009241	162.020960			
15274	9.950005	-2.031342	1.396593	-1.137078	2.815454	-0.021891	14.934538	-73.961069	161.820283			
15275	10.402772	-2.272288	1.378337	-1.247130	3.098133	0.391576	14.865886	-73.958386	161.595664			
15276	10.926649	-1.980044	1.562781	-1.209579	2.847179	0.966226	14.890397	-74.007209	161.317392			
15277	11.545238	-1.487250	1.622266	-1.332028	2.414384	1.612399	14.953411	-74.030280	160.989974			
15278	11.847698	-0.948081	1.833275	-1.240485	1.900866	1.997291	14.935853	-73.997678	160.697571			
15279	11.979113	-0.627649	2.137516	-1.013526	1.580335	2.226306	14.751992	-73.909311	160.517057			
15280	11.637518	-0.313014	2.658757	-0.465522	1.195901	2.059627	14.397562	-73.821982	160.465449			
15281	11.088592	-0.046880	3.080334	0.043792	0.834196	1.665539	13.999530	-73.779371	160.491488			
15282	10.692821	0.283049	3.351665	0.365810	0.428290	1.382531	13.647434	-73.771324	160.523295			
15283	10.135809	0.541350	3.693089	0.808455	0.070211	0.958015	13.349195	-73.801070	160.552931			
15284	9.702830	0.845111	4.246850	1.427007	-0.346165	0.710553	13.095367	-73.934505	160.561597			
15285	9.942555	1.089578	4.544721	1.650329	-0.624727	1.030834	12.889632	-74.202518	160.564751			
15286	10.728044	1.238050	4.661794	1.598694	-0.747130	1.816649	12.740891	-74.585224	160.608329			
15287	11.322763	1.719321	4.069729	0.901904	-1.141852	2.254031	12.767982	-75.032799	160.686782			
15288	11.485611	3.322700	3.127431	-0.135119	-2.646233	2.258704	12.971319	-75.519005	160.808027			
15289	11.183102	5.246759	2.332728	-0.928897	-4.525655	1.878591	13.278317	-76.006079	160.920171			
15290	10.748349	6.866077	1.715540	-1.466636	-6.136800	1.403380	13.596148	-76.482436	161.018477			
15291	10.676120	7.883534	1.380926	-1.752878	-7.151457	1.314737	13.767911	-76.907334	161.103016			
15292	10.725443	7.780555	1.349715	-1.699149	-7.071491	1.345290	13.561068	-77.263365	161.261492			
15293	10.435737	6.445011	1.765283	-1.071673	-5.830922	1.068982	12.958156	-77.552740	161.537074			
15294	9.993128	4.558801	2.652528	0.076859	-4.109702	0.712774	11.957132	-77.810183	161.991858			
15295	9.693893	2.773441	3.929970	1.567705	-2.548331	0.587117	10.596140	-78.011191	162.610919			
15296	9.405446	0.640412	4.592636	2.523350	-0.615142	0.346954	8.959491	-78.161920	163.415462			
15297	9.321455	-1.209932	4.800696	2.997581	1.086203	0.248822	7.234919	-78.242637	164.409887			
15298	9.259661	-2.506382	4.641411	3.056880	2.293725	0.135159	5.549957	-78.272738	165.552669			
15299	9.289798	-3.288626	3.967339	2.523622	3.095152	0.031408	4.049169	-78.236538	166.755443			
15300	9.245708	-3.242178	2.913237	1.490639	3.161360	-0.207201	2.827942	-78.136478	167.970209			
15301	9.648057	-2.362996	2.217066	0.561173	2.388569	0.064749	1.903120	-77.986892	169.111564			
15302	10.127456	-1.260696	2.022653	0.057557	1.325388	0.506501	1.165505	-77.785927	170.173374			
15303	10.050394	-0.311254	2.010209	-0.134472	0.368416	0.433978	0.574619	-77.499684	171.101544			
15304	9.714976	0.475066	2.147630	-0.099768	-0.453785	0.137318	0.054452	-77.178101	171.932582			
15305	9.253094	1.030942	2.144568	-0.132615	-1.029339	-0.315087	-0.419308	-76.849084	172.648076			
15306	8.590129	1.196236	2.019877	-0.174459	-1.207400	-0.991534	-0.903485	-76.534469	173.306882			
15307	8.185462	0.930859	2.015190	-0.096425	-0.966712	-1.387412	-1.413949	-76.221896	173.931171			
15308	7.752149	0.569847	2.336673	0.318996	-0.673733	-1.730315	-1.948624	-75.928356	174.547645			
15309	7.571899	0.329453	2.852394	0.850485	-0.519037	-1.776177	-2.545995	-75.681831	175.203770			
15310	7.497163	-0.092791	3.138445	1.164696	-0.156193	-1.769997	-3.235700	-75.482379	175.931185			
15311	7.503455	-0.545157	3.021503	1.080018	0.287439	-1.782783	-3.889813	-75.317891	176.679837			
15312	7.830380	-0.773840	2.853126	0.840775	0.521229	-1.501529	-4.470558	-75.188785	177.431248			
15313	8.142432	-0.767229	2.783943	0.674026	0.510015	-1.214798	-4.973848	-75.089199	178.161136			
15314	8.470946	-0.570488	2.820633	0.586305	0.296740	-0.890440	-5.453704	-75.011957	178.885226			
15315	8.744219	-0.352715	3.089750	0.734878	0.035197	-0.561147	-5.916131	-74.919666	179.576197			
15316	8.836391	-0.245788	3.201613	0.791218	-0.098676	-0.444831	-6.329009	-74.817811	-179.798584			
15317	8.767580	-0.047467	3.228019	0.799368	-0.311031	-0.509083	-6.649807	-74.730331	-179.272650			
15318	8.661267	-0.126276	2.919875	0.529749	-0.210571	-0.689410	-6.909168	-74.680975	-178.827456			
15319	8.520739	-0.210266	2.744299	0.401919	-0.116082	-0.868227	-7.086328	-74.667411	-178.488690			
15320	8.460269	-0.402703	2.669528	0.365906	0.077925	-0.939991	-7.203863	-74.700256	-178.261620			
15321	8.360863	-0.675495	2.509427	0.271290	0.363065	-1.068997	-7.262556	-74.779215	-178.127935			
15322	8.321311	-1.036209	2.362887	0.188769	0.735292	-1.133698	-7.288512	-74.909335	-178.061074			
15323	8.242828	-1.368473	2.392042	0.288284	1.064937	-1.191692	-7.266979	-75.072977	-178.067277			
15324	8.149328	-1.662947	2.388771	0.361866	1.361560	-1.274637	-7.204316	-75.263270	-178.132086			
15325	8.048675	-1.937481	2.369983	0.421862	1.642187	-1.370116	-7.071620	-75.455315	-178.265160			
15326	7.965645	-2.198019	2.482394	0.602280	1.898359	-1.417540	-6.872201	-75.641806	-178.466226			
15327	7.993335	-2.305669	2.593618	0.736807	2.005209	-1.364459	-6.551961	-75.795167	-178.768292			
15328	8.003217	-2.421213	2.582962	0.751786	2.135849	-1.359382	-6.092900	-75.890680	-179.173454			
15329	7.915999	-2.271587	2.923345	1.097006	1.975751	-1.371003	-5.530347	-75.951375	-179.612930			
15330	7.965153	-1.881855	3.387390	1.509580	1.569107	-1.226742	-4.983573	-76.080501	-179.965419			
15331	8.437220	-1.404055	3.186133	1.180247	1.133523	-0.833180	-4.560108	-76.266309	179.895893			
15332	8.897944	-0.858670	3.524868	1.381388	0.580327	-0.321095	-4.361893	-76.446821	179.974760			
15333	9.305591	-0.525776	3.931544	1.679498	0.227941	0.160015	-4.349089	-76.576643	-179.831131			
15334	9.704163	-0.272479	3.722571	1.381484	-0.003417	0.492362	-4.323654	-76.621586	-179.640310			
15335	10.025420	0.066207	2.935833	0.521224	-0.278874	0.617226	-4.141274	-76.576794	-179.539584			
15336	10.263991	0.248104	2.189605	-0.280651	-0.403012	0.673696	-3.875714	-76.481897	-179.492911			
15337	10.233207	-0.015607	1.988078	-0.472152	-0.118533	0.600488	-3.623971	-76.367891	-179.498498			
15338	10.145059	-0.709929	2.174589	-0.255087	0.571189	0.568242	-3.499973	-76.248929	-179.504925			
15339	9.894184	-1.766939	2.327771	-0.016298	1.621000	0.375910	-3.525028	-76.124978	-179.458165			
15340	9.561678	-2.840862	2.589978	0.353791	2.676383	0.132963	-3.686740	-76.055764	-179.268363			
15341	9.507838	-3.607140	3.551896	1.327943	3.383801	0.326980	-3.951747	-76.053009	-178.942415			
15342	10.132573	-4.064823	3.945294	1.576599	3.808098	1.039496	-4.265271	-76.081202	-178.482224			
15343	10.958321	-4.178160	4.262140	1.673547	3.895691	1.923173	-4.424607	-76.032110	-178.054818			
15344	12.020323	-3.910072	4.678869	1.772893	3.612805	3.050939	-4.253103	-75.966118	-177.711003			
15345	14.094007	-2.630840	4.690025	1.181621	2.354685	5.040502	-3.612902	-75.841282	-177.477693			
15346	16.148469	-1.063771	5.613641	1.448880	0.829800	7.235109	-2.448584	-75.468524	-177.505249			
15347	17.054975	0.427975	5.682338	1.134499	-0.543615	8.124902	-0.861089	-74.858943	-177.621084			
15348	17.229101	2.626490	3.259270	-1.357589	-2.697017	7.658544	0.522453	-74.134179	-177.429640			
15349	15.748762	4.743080	-0.310837	-4.396421	-4.965114	5.241712	1.155996	-73.431333	-177.040172			
15350	13.295811	6.572097	1.221589	-2.190086	-6.666668	3.310647	1.319081	-73.019314	-177.024322			
15351	11.177031	8.427755	4.681435	1.777930	-8.238123	2.305084	1.417930	-72.831827	-177.523331			
15352	11.104584	8.318341	4.288786	1.297367	-8.155422	2.133209	1.711799	-72.433918	-178.222248			
15353	9.137970	5.914892	3.986585	1.300832	-5.746902	0.170280	2.109503	-71.579840	-178.857133			
15354	6.127600	1.889034	3.412321	1.351371	-1.735991	-2.890319	2.276211	-70.862894	-179.347521			
15355	5.084303	-1.386784	3.003059	1.081485	1.515465	-4.039879	2.388005	-70.418004	-179.867508			
15356	4.294062	-1.843989	3.217274	1.503415	1.978613	-4.712205	2.622462	-70.075668	179.538219			
15357	4.129760	-1.244671	3.042126	1.397488	1.377475	-4.912871	3.132492	-69.818065	178.934655			
15358	5.394748	-0.537342	3.286250	1.196262	0.706682	-3.627142	3.777978	-69.676182	178.386382			
15359	7.590204	0.154547	3.275268	0.444587	0.067011	-1.556768	4.468963	-69.746806	177.888031			
15360	9.174214	1.077118	2.762939	-0.525833	-0.821485	-0.220573	5.136312	-69.943420	177.454367			
15361	10.054149	2.472513	2.561963	-0.919124	-2.177818	0.588031	5.711380	-70.156832	177.059410			
15362	10.169640	3.650182	2.588474	-0.839657	-3.320339	0.756878	6.221233	-70.354440	176.627539			
15363	10.142176	4.437719	2.748028	-0.611465	-4.068964	0.825839	6.726846	-70.521061	176.094132			
15364	9.815512	4.651234	2.756353	-0.466835	-4.261048	0.541114	7.167716	-70.643214	175.473520			
15365	9.296887	4.312608	2.869335	-0.203274	-3.907098	0.084635	7.524524	-70.710163	174.787625			
15366	8.746993	3.359595	2.923533	-0.019200	-2.952830	-0.451908	7.767718	-70.707607	174.097811			
15367	8.173297	2.042528	3.088093	0.269570	-1.639862	-0.995139	7.955906	-70.658810	173.407929			
15368	7.625789	0.817447	3.110561	0.436692	-0.431693	-1.559239	8.069508	-70.624169	172.751586			
15369	7.275884	-0.169528	2.999627	0.440022	0.538181	-1.971659	8.161354	-70.638343	172.134532			
15370	7.194179	-0.492228	3.082566	0.561000	0.856001	-2.037521	8.241212	-70.744635	171.579191			
15371	7.426772	-0.305734	2.879028	0.316572	0.676719	-1.876632	8.299251	-70.923961	171.073509			
15372	7.699495	0.142164	2.684236	0.068271	0.239869	-1.661291	8.342755	-71.154228	170.651735			
15373	7.938391	0.874331	2.672633	-0.001625	-0.482846	-1.404821	8.376207	-71.430606	170.299132			
15374	8.157653	1.407470	2.623783	-0.095026	-1.010022	-1.188117	8.334640	-71.731096	169.995997			
15375	8.511957	1.829244	2.541374	-0.259593	-1.419021	-0.858528	8.291445	-72.045846	169.677822			
15376	8.976901	2.206527	2.538946	-0.380457	-1.778745	-0.400411	8.258263	-72.355929	169.307000			
15377	9.457778	2.120107	2.575374	-0.450246	-1.673819	0.065191	8.233400	-72.630822	168.846030			
15378	9.625565	1.627917	2.396503	-0.610687	-1.170515	0.152338	8.225790	-72.872661	168.299737			
15379	9.920276	1.106584	2.525289	-0.507796	-0.640279	0.451113	8.305588	-73.080467	167.641089			
15380	9.943564	0.474998	2.570761	-0.393102	-0.009625	0.461271	8.433692	-73.229891	166.922229			
15381	9.536205	-0.030189	2.819366	0.030166	0.453995	0.121187	8.646571	-73.351475	166.158259			
15382	9.351876	-0.345718	2.905285	0.222610	0.753841	-0.045401	8.932660	-73.466833	165.371823			
15383	9.143556	-0.436490	2.900365	0.312290	0.838844	-0.252038	9.325632	-73.559363	164.556996			
15384	8.844570	-0.407264	2.972174	0.484649	0.793151	-0.519568	9.809556	-73.641651	163.700704			
15385	8.965071	-0.337604	2.978939	0.473464	0.749393	-0.401273	10.360325	-73.709242	162.811238			
15386	8.902983	-0.273204	2.767470	0.301861	0.722931	-0.518452	10.965898	-73.762159	161.911001			
15387	8.944920	-0.171728	2.651425	0.185878	0.662973	-0.506938	11.622790	-73.799297	160.991386			
15388	8.917883	-0.120059	2.858222	0.401751	0.610276	-0.475741	12.284114	-73.828013	160.059669			
15389	8.876390	0.016341	2.800866	0.355206	0.503700	-0.525305	12.954779	-73.847246	159.120375			
15390	8.837127	0.085818	2.617252	0.195988	0.479223	-0.610294	13.611641	-73.863202	158.204600			
15391	8.759216	0.128035	2.513737	0.125108	0.468619	-0.711928	14.260554	-73.864722	157.304324			
15392	8.807510	0.152965	2.382748	-0.003158	0.491872	-0.700547	14.872873	-73.858320	156.433033			
15393	8.804644	0.007791	2.250478	-0.094186	0.677927	-0.750792	15.453297	-73.835565	155.588226			
15394	8.940457	-0.124088	1.899128	-0.430943	0.897699	-0.726312	15.998003	-73.808918	154.790957			
15395	8.977776	-0.166500	1.603443	-0.705648	1.013115	-0.775276	16.533826	-73.763277	154.019573			
15396	9.058757	-0.093491	1.641344	-0.695046	0.972157	-0.683855	17.004463	-73.712784	153.308426			
15397	9.291030	0.097511	1.716254	-0.712049	0.828047	-0.427297	17.401126	-73.644659	152.669568			
15398	9.475374	0.260895	1.710112	-0.793589	0.716335	-0.240211	17.711745	-73.564027	152.106976			
15399	9.488285	0.347926	1.613695	-0.908741	0.670747	-0.248334	17.958252	-73.467537	151.616970			
15400	9.328373	0.380420	1.724671	-0.775620	0.619298	-0.370622	18.139474	-73.374071	151.187106			
15401	9.223274	0.331662	1.959180	-0.523096	0.629280	-0.413351	18.259863	-73.304397	150.803900			
15402	9.274965	0.086476	1.988584	-0.459977	0.881224	-0.378771	18.348768	-73.272167	150.441886			
15403	9.380426	-0.290309	1.840777	-0.544270	1.296549	-0.352886	18.427488	-73.268965	150.101195			
15404	9.594071	-0.697029	1.831216	-0.510733	1.729660	-0.188093	18.513333	-73.290512	149.768043			
15405	9.812131	-0.999009	1.908689	-0.412381	2.044735	0.014215	18.641237	-73.328554	149.424200			
15406	10.174513	-1.064108	1.949980	-0.429314	2.157056	0.366616	18.837258	-73.390173	149.047380			
15407	10.597118	-0.799844	1.872173	-0.641414	1.983821	0.774885	19.137515	-73.465421	148.595660			
15408	11.007081	-0.430329	1.848656	-0.820792	1.701169	1.195982	19.469832	-73.517404	148.070639			
15409	11.201960	-0.281184	2.082269	-0.661670	1.555115	1.458630	19.735039	-73.514221	147.520590			
15410	11.312248	-0.372289	2.301091	-0.448464	1.630371	1.612781	19.848365	-73.480240	147.035877			
15411	11.245764	-0.392590	2.989867	0.224044	1.504283	1.730604	19.756327	-73.421440	146.680390			
15412	11.165033	-0.518230	3.570896	0.818558	1.479894	1.798414	19.450249	-73.389436	146.476906			
15413	11.104009	-0.559753	3.741172	1.002021	1.450636	1.784737	19.086894	-73.394867	146.389470			
15414	10.951287	-0.038271	4.401403	1.520538	0.744743	1.867969	18.722811	-73.447259	146.368100			
15415	10.777238	0.659652	4.669646	1.628022	-0.051565	1.837907	18.330508	-73.549773	146.418978			
15416	10.885351	0.881034	4.091684	1.012266	-0.144584	1.804682	18.008699	-73.693112	146.515828			
15417	10.961512	1.164838	3.772077	0.637073	-0.357681	1.815135	17.844345	-73.874783	146.608205			
15418	10.945490	1.833986	3.354064	0.098417	-0.923702	1.743865	17.869398	-74.106597	146.657716			
15419	10.869030	3.312117	2.902802	-0.659902	-2.263535	1.675250	18.120370	-74.414156	146.637898			
15420	10.838721	5.358354	2.495919	-1.509329	-4.158614	1.713217	18.525800	-74.795811	146.516510			
15421	10.443877	7.020934	2.030479	-2.206756	-5.732110	1.357055	18.966165	-75.184988	146.333489			
15422	10.074297	7.887386	1.894102	-2.395811	-6.616481	1.039577	19.291941	-75.558685	146.095326			
15423	9.803827	8.063531	1.963419	-2.268795	-6.868400	0.801835	19.268247	-75.894637	145.918866			
15424	9.798899	7.347070	2.188519	-1.860640	-6.265514	0.773561	18.793495	-76.200822	145.914983			
15425	9.586070	5.961719	2.604360	-1.079646	-5.108051	0.529427	17.900379	-76.470836	146.102834			
15426	8.960569	4.067778	2.900313	-0.189511	-3.508448	-0.173976	16.604735	-76.691860	146.530928			
15427	8.728593	2.071470	3.185926	0.675320	-1.782932	-0.485632	15.100313	-76.910707	147.079964			
15428	8.761791	0.180364	3.553290	1.583047	-0.179061	-0.491285	13.441085	-77.127314	147.793449			
15429	9.217831	-1.477783	4.079598	2.525612	1.175247	-0.012972	11.615705	-77.297576	148.757013			
15430	9.623109	-3.107712	4.199954	3.121013	2.604836	0.354653	9.724419	-77.404715	149.977688			
15431	10.285331	-3.939168	3.843953	2.957411	3.480078	0.921518	7.935918	-77.412115	151.373456			
15432	10.334124	-4.133689	3.109710	2.315448	3.853718	0.833388	6.409051	-77.272244	152.800275			
15433	10.285277	-3.226804	2.572752	1.450824	3.154154	0.711769	5.197223	-77.047847	154.204163			
15434	10.164285	-1.964336	2.497204	0.884702	1.971516	0.615026	4.138830	-76.752670	155.575871			
15435	9.710890	-0.778904	2.513160	0.504731	0.802111	0.203572	3.185454	-76.426015	156.868904			
15436	9.183055	0.219819	2.522308	0.218014	-0.197218	-0.291547	2.326896	-76.102831	158.065232			
15437	8.509731	1.032695	2.596060	0.106276	-1.056319	-0.919196	1.535054	-75.794148	159.159197			
15438	7.979524	1.376333	2.649338	0.118289	-1.455139	-1.418968	0.751020	-75.526502	160.185530			
15439	7.703757	1.419745	2.789860	0.260127	-1.576922	-1.652271	-0.008194	-75.294273	161.121204			
15440	7.519852	1.122936	2.933908	0.498272	-1.370920	-1.794635	-0.762936	-75.082757	161.982489			
15441	7.380472	0.670641	3.019934	0.723684	-0.995364	-1.905314	-1.473043	-74.887226	162.758469			
15442	7.404580	0.124901	3.109528	0.945382	-0.520546	-1.853556	-2.173647	-74.741376	163.508949			
15443	7.583162	-0.373856	3.137406	1.060552	-0.060861	-1.666591	-2.851539	-74.631886	164.249468			
15444	7.971328	-0.786111	3.132471	1.067394	0.340064	-1.285239	-3.508674	-74.549807	164.979609			
15445	8.266764	-1.049117	3.153201	1.074633	0.584461	-0.987370	-4.104541	-74.481391	165.682560			
15446	8.371522	-1.205426	3.204064	1.127156	0.706404	-0.866631	-4.634455	-74.436240	166.358575			
15447	8.464527	-1.234286	3.159083	1.057463	0.739209	-0.785683	-5.056508	-74.403132	166.977151			
15448	8.497170	-1.220503	3.182750	1.056498	0.710445	-0.746238	-5.378363	-74.389800	167.534965			
15449	8.474481	-1.244493	3.118219	1.004231	0.745506	-0.783589	-5.572034	-74.396783	167.992967			
15450	8.512813	-1.146882	2.883044	0.748058	0.721355	-0.811836	-5.656551	-74.434060	168.362243			
15451	8.513556	-1.092710	2.868050	0.720759	0.674730	-0.816821	-5.651915	-74.481979	168.628363			
15452	8.362343	-1.107758	2.738970	0.653358	0.720995	-0.997294	-5.556681	-74.565395	168.789527			
15453	8.312748	-1.122326	2.462097	0.428441	0.815670	-1.119333	-5.353329	-74.692862	168.849056			
15454	8.237084	-1.187328	2.324760	0.359478	0.918943	-1.228395	-5.071658	-74.859731	168.814991			
15455	8.185649	-1.385271	2.355181	0.478711	1.107727	-1.267840	-4.691410	-75.030966	168.666442			
15456	8.116655	-1.592465	2.380472	0.599205	1.310520	-1.327046	-4.180386	-75.188434	168.391192			
15457	8.076056	-1.633918	2.296172	0.561963	1.390478	-1.391555	-3.520884	-75.321587	167.997580			
15458	8.072736	-1.635812	2.141380	0.436344	1.457043	-1.439098	-2.736609	-75.444579	167.547947			
15459	8.223966	-1.263025	2.487892	0.640681	1.046425	-1.215428	-1.883833	-75.535902	167.041745			
15460	8.231512	-0.879407	3.012345	1.044096	0.579207	-1.084593	-1.024688	-75.572054	166.519755			
15461	7.972162	-0.325800	3.408884	1.352643	-0.030861	-1.242316	-0.163838	-75.623723	166.072900			
15462	8.025932	0.399255	3.099185	0.898765	-0.625569	-1.269816	0.554656	-75.802113	165.838712			
15463	8.566606	1.039043	3.149754	0.711256	-1.207289	-0.733941	0.975853	-76.050494	165.871234			
15464	9.065049	1.284644	3.815827	1.215105	-1.558430	-0.092573	1.023542	-76.255072	166.107730			
15465	9.565246	1.304104	3.906436	1.212675	-1.571313	0.410581	0.879189	-76.354419	166.461582			
15466	10.125970	1.329091	2.946801	0.183105	-1.366573	0.726967	0.740737	-76.368161	166.841050			
15467	10.383734	1.170942	1.869627	-0.861332	-0.979231	0.722385	0.676543	-76.343545	167.185644			
15468	10.400420	0.459058	1.371201	-1.191750	-0.187736	0.618235	0.573419	-76.310199	167.510228			
15469	10.303817	-0.718116	1.715844	-0.606810	0.882169	0.602782	0.369854	-76.273760	167.823249			
15470	10.025558	-2.095823	2.527045	0.503724	2.043276	0.524696	-0.023891	-76.258383	168.183861			
15471	9.885244	-3.201141	3.587977	1.772459	2.886652	0.645062	-0.529506	-76.314663	168.639717			
15472	10.470644	-3.789906	4.279666	2.427296	3.327271	1.383327	-1.026706	-76.448868	169.217794			
15473	11.583233	-3.789755	4.867597	2.733835	3.248151	2.605150	-1.250896	-76.504638	169.760317			
15474	13.247287	-3.601371	5.449389	2.839759	3.040865	4.359288	-1.095533	-76.418534	170.180443			
15475	15.074925	-3.158819	4.824378	1.655258	2.857155	5.986087	-0.427534	-76.155079	170.499730			
15476	16.240581	-1.888156	3.973341	0.218014	1.878573	6.906463	0.459309	-75.749610	170.878983			
15477	15.655666	-0.907107	2.073162	-1.750665	1.215233	5.861415	1.012166	-75.319229	171.537997			
15478	13.656447	0.588014	0.597179	-2.964657	-0.167439	3.543326	0.970456	-74.987993	172.477931			
15479	12.888370	3.543674	0.731838	-3.013744	-3.182614	2.836086	0.747202	-74.861581	173.243856			
15480	14.267386	6.625301	3.774554	-0.770518	-6.535814	4.965323	0.586510	-74.805452	173.582915			
15481	15.210756	8.103372	6.377427	1.289119	-8.236192	6.564307	0.490786	-74.470121	173.713179			
15482	13.233260	7.862632	4.172298	-0.395720	-7.822117	4.079901	0.728915	-73.788757	173.548912			
15483	9.833994	4.562442	2.787096	-0.592523	-4.485481	0.425425	0.829849	-73.113926	173.188228			
15484	7.477174	1.017851	3.739304	1.253615	-1.128911	-1.561629	0.730008	-72.609007	172.734515			
15485	5.595315	-0.169519	3.526779	1.679840	-0.003443	-3.413283	0.789802	-72.170288	172.222597			
15486	3.890481	-0.243658	2.764380	1.446918	0.084538	-5.258985	0.943694	-71.781923	171.743557			
15487	3.026191	-0.840325	3.238897	2.213366	0.579654	-5.924320	1.169500	-71.445917	171.277445			
15488	3.652661	-1.544630	3.704036	2.533124	1.255645	-5.180808	1.639655	-71.308203	170.793875			
15489	6.001172	-1.181720	3.285546	1.348860	1.088820	-3.089570	2.359885	-71.375455	170.285339			
15490	7.940645	-0.465504	2.800695	0.205969	0.570457	-1.401596	3.064338	-71.521941	169.887881			
15491	9.089433	0.519773	2.415430	-0.609136	-0.272040	-0.417100	3.720933	-71.695428	169.641323			
15492	9.925541	1.665292	2.380674	-0.995047	-1.337400	0.394085	4.273707	-71.876708	169.500567			
15493	10.265581	2.454178	2.317610	-1.199284	-2.078082	0.723893	4.810816	-72.051178	169.338760			
15494	10.349633	3.294432	2.290585	-1.288858	-2.888577	0.827317	5.357957	-72.216884	169.106932			
15495	9.972672	3.649093	2.090861	-1.356468	-3.226953	0.428815	5.870998	-72.348742	168.803346			
15496	9.714275	3.671221	2.327320	-1.026372	-3.264614	0.264524	6.338658	-72.431786	168.410850			
15497	9.177942	3.305355	2.500397	-0.654712	-2.926409	-0.199185	6.763208	-72.453454	167.941102			
15498	8.830398	2.760377	2.652657	-0.352401	-2.398856	-0.498533	7.152604	-72.461112	167.413870			
15499	8.317129	1.986939	2.693274	-0.088283	-1.649247	-1.000851	7.487680	-72.452804	166.862298			
15500	8.084543	1.278676	2.806482	0.159871	-0.958468	-1.214608	7.752577	-72.471244	166.335259			
15501	7.636713	0.621900	2.749314	0.312867	-0.324808	-1.684866	7.966674	-72.530466	165.838807			
15502	7.488553	0.428680	2.519474	0.174160	-0.117947	-1.902841	8.167897	-72.667097	165.387757			
15503	7.507860	0.544958	2.747217	0.393008	-0.256255	-1.813190	8.234024	-72.850172	165.041925			
15504	7.746812	0.795046	2.224950	-0.174273	-0.438473	-1.727338	8.214914	-73.097044	164.825800			
15505	8.160717	1.449977	2.191584	-0.372633	-1.063796	-1.313738	8.099105	-73.374397	164.715902			
15506	8.389565	1.848647	1.974143	-0.660991	-1.432841	-1.140347	7.875237	-73.664042	164.672056			
15507	8.884039	2.254149	2.008681	-0.783571	-1.818790	-0.640989	7.685124	-73.954404	164.581752			
15508	9.423862	2.383403	2.007092	-0.915440	-1.921551	-0.117960	7.549875	-74.211090	164.372876			
15509	9.637868	2.239037	2.090953	-0.845158	-1.781758	0.106227	7.557076	-74.420376	163.961969			
15510	10.009981	1.698312	2.108090	-0.818634	-1.221092	0.452143	7.768956	-74.605250	163.316262			
15511	10.234064	1.101599	2.137901	-0.726452	-0.608098	0.657394	8.154019	-74.753444	162.464541			
15512	10.157774	0.406802	2.153918	-0.549057	0.086814	0.564024	8.678394	-74.856697	161.477319			
15513	9.906573	-0.121979	2.202722	-0.322904	0.603596	0.313435	9.323545	-74.908329	160.407188			
15514	9.490573	-0.445919	2.248553	-0.095245	0.905747	-0.091769	10.040108	-74.935135	159.309779			
15515	9.078508	-0.461316	2.217313	-0.001409	0.918298	-0.501124	10.835336	-74.948331	158.199127			
15516	8.889703	-0.263406	2.172270	-0.018435	0.744119	-0.687951	11.625358	-74.959448	157.125455			
15517	8.780004	-0.025899	2.260779	0.061455	0.513723	-0.761031	12.403148	-74.972972	156.092393			
15518	8.883042	0.260923	2.201812	-0.059822	0.282772	-0.661684	13.173755	-75.003783	155.080592			
15519	9.058140	0.424402	2.141086	-0.174427	0.181729	-0.498681	13.938850	-75.029884	154.068678			
15520	9.205259	0.463524	2.254691	-0.091014	0.165945	-0.325887	14.685995	-75.047214	153.061969			
15521	9.312260	0.383538	2.137508	-0.191989	0.308667	-0.257480	15.457451	-75.049036	152.035232			
15522	9.384120	0.203651	1.997269	-0.282699	0.551902	-0.236277	16.285669	-75.043833	150.971362			
15523	9.431069	0.040005	1.895751	-0.333087	0.772931	-0.229785	17.191048	-75.020205	149.838360			
15524	9.435953	-0.127778	1.917278	-0.254381	0.969393	-0.235376	18.116740	-74.989678	148.661736			
15525	9.328814	-0.285428	1.860904	-0.226678	1.158424	-0.369292	19.039702	-74.937436	147.490978			
15526	9.206878	-0.383390	1.959959	-0.065477	1.252462	-0.475560	19.869184	-74.859900	146.415347			
15527	8.899761	-0.395981	1.975716	0.031491	1.251412	-0.773944	20.574708	-74.767945	145.471729			
15528	8.758904	-0.354744	1.877481	-0.031134	1.241613	-0.934256	21.156401	-74.691710	144.656998			
15529	8.779313	-0.306910	1.942627	0.021688	1.206992	-0.897139	21.564614	-74.628686	144.016064			
15530	8.754516	-0.445840	1.931235	0.059996	1.354674	-0.939625	21.843323	-74.596168	143.528797			
15531	8.763792	-0.473755	1.911272	0.054249	1.396862	-0.939848	22.016816	-74.588643	143.176923			
15532	8.789361	-0.663152	1.786471	-0.008300	1.615485	-0.965414	22.153802	-74.623714	142.915211			
15533	9.185016	-0.864045	1.634524	-0.168005	1.907345	-0.641180	22.302621	-74.693520	142.709221			
15534	9.725872	-0.964229	1.490691	-0.373630	2.121625	-0.163668	22.477963	-74.785020	142.533732			
15535	10.358775	-0.944112	1.438566	-0.544616	2.213646	0.437590	22.650362	-74.855823	142.396732			
15536	10.814420	-0.526610	1.509212	-0.672459	1.869619	0.937152	22.834080	-74.894708	142.256444			
15537	11.349594	-0.100518	1.309335	-1.077530	1.600039	1.448598	23.051374	-74.889320	142.069932			
15538	11.583196	0.372585	1.476903	-1.093388	1.157507	1.761212	23.239511	-74.819716	141.834505			
15539	11.586987	0.694434	1.545060	-1.126912	0.854160	1.811775	23.298912	-74.684753	141.588619			
15540	11.437796	0.609030	1.559063	-1.079744	0.931466	1.658633	23.232510	-74.515160	141.350868			
15541	11.113721	0.437017	2.136520	-0.450793	0.921776	1.466386	23.008621	-74.314841	141.157078			
15542	10.910115	0.386986	2.853696	0.245694	0.765394	1.442430	22.631676	-74.145059	141.003029			
15543	11.018944	0.163223	3.208690	0.589212	0.901135	1.614480	22.147176	-74.017218	140.909690			
15544	11.044875	-0.163834	3.604704	1.024388	1.092023	1.709812	21.555371	-73.921496	140.914965			
15545	10.913925	-0.423859	4.077450	1.548275	1.153052	1.684798	20.880450	-73.875143	141.049482			
15546	10.705434	-0.609948	4.114302	1.671536	1.240828	1.482090	20.202178	-73.900000	141.305503			
15547	10.891141	-0.434454	3.838317	1.314330	1.147441	1.610717	19.646551	-73.998527	141.656319			
15548	11.134196	0.855097	3.467724	0.501932	0.049161	1.869442	19.264219	-74.167635	142.080120			
15549	11.452976	3.001314	2.597304	-1.048228	-1.695491	2.143516	19.062060	-74.399142	142.537390			
15550	11.648581	5.395870	1.498907	-2.827908	-3.644668	2.260850	18.979603	-74.669827	142.982208			
15551	11.299245	7.208438	1.348399	-3.403199	-5.422132	2.039348	18.925408	-74.940608	143.323745			
15552	10.489038	7.819028	1.390639	-3.329026	-6.183343	1.312714	18.807365	-75.187703	143.527992			
15553	9.724631	7.532108	1.463014	-2.987717	-6.080209	0.557753	18.555858	-75.390779	143.655093			
15554	8.969937	6.715550	2.030658	-2.058913	-5.608276	-0.117846	17.994405	-75.568274	143.838440			
15555	8.457043	5.121120	2.583907	-0.964741	-4.371319	-0.626578	17.120781	-75.770646	144.127808			
15556	8.374013	3.446104	3.049992	-0.000544	-2.995185	-0.739063	15.987233	-75.998969	144.576734			
15557	8.023733	1.956872	3.518934	0.979036	-1.859601	-1.084835	14.624767	-76.228289	145.217983			
15558	7.861794	0.537281	3.829072	1.778010	-0.735452	-1.265439	13.136726	-76.481015	146.018185			
15559	8.076296	-0.790130	3.779186	2.170136	0.460375	-1.140257	11.611909	-76.736219	146.969117			
15560	8.467421	-1.780521	3.659114	2.362689	1.385913	-0.826423	10.099015	-76.996833	148.071146			
15561	9.108162	-2.255456	3.392822	2.188672	1.918897	-0.268894	8.583445	-77.218813	149.356634			
15562	9.826444	-2.096119	2.824446	1.476852	1.990388	0.325712	7.094671	-77.346374	150.796969			
15563	10.378455	-1.602229	2.282973	0.674459	1.735664	0.771439	5.739505	-77.356837	152.284530			
15564	10.689098	-0.683586	1.931846	-0.084077	1.001872	1.024520	4.587424	-77.279221	153.701780			
15565	10.786916	0.292161	2.166485	-0.297225	-0.009957	1.189488	3.562278	-77.111864	154.989169			
15566	10.497506	0.864988	2.433975	-0.256275	-0.688643	0.972947	2.611798	-76.885171	156.131830			
15567	9.872044	1.182350	2.655519	-0.093728	-1.137425	0.414932	1.716590	-76.632176	157.156783			
15568	9.262051	1.129827	2.884213	0.210833	-1.238918	-0.127587	0.841807	-76.375066	158.095643			
15569	8.642397	0.815831	3.061702	0.568087	-1.076313	-0.688587	-0.007940	-76.095217	158.954178			
15570	7.953923	0.286569	2.969064	0.778808	-0.622327	-1.376556	-0.795831	-75.821880	159.730380			
15571	7.541846	-0.248629	2.984682	1.035359	-0.174424	-1.766133	-1.511555	-75.573599	160.462837			
15572	7.421259	-0.654295	3.009105	1.194547	0.175006	-1.869123	-2.142949	-75.384244	161.159157			
15573	7.510446	-0.858544	3.037817	1.243111	0.353338	-1.768933	-2.702538	-75.248057	161.852967			
15574	7.821924	-0.867360	2.992561	1.107970	0.392099	-1.475491	-3.202558	-75.163186	162.549908			
15575	8.269577	-0.711045	3.086744	1.011868	0.238197	-1.018437	-3.654846	-75.105012	163.243524			
15576	8.586008	-0.448922	3.160471	0.897313	-0.018957	-0.696542	-4.045137	-75.065243	163.890691			
15577	8.861621	-0.176090	3.172732	0.736668	-0.268214	-0.431273	-4.382065	-75.021615	164.495106			
15578	8.945724	-0.015813	3.082201	0.570836	-0.391381	-0.376208	-4.676684	-74.980240	165.045027			
15579	8.915082	0.034920	3.057892	0.530509	-0.439743	-0.412912	-4.925326	-74.924465	165.536697			
15580	8.655894	-0.050702	2.975939	0.539910	-0.354343	-0.682178	-5.138116	-74.867022	165.964312			
15581	8.373605	-0.271946	2.878861	0.586108	-0.135279	-0.974292	-5.299813	-74.822747	166.316345			
15582	8.079033	-0.486419	2.799311	0.652899	0.072016	-1.273832	-5.416472	-74.817905	166.604599			
15583	7.888180	-0.694388	2.631122	0.616323	0.308097	-1.496824	-5.483883	-74.871666	166.829865			
15584	7.805183	-0.945049	2.504714	0.611600	0.577268	-1.604138	-5.510319	-74.985665	166.999265			
15585	7.704222	-1.123082	2.579897	0.779224	0.714746	-1.679168	-5.466515	-75.144978	167.081860			
15586	7.726752	-1.291374	2.725615	0.983851	0.829176	-1.618558	-5.375940	-75.344552	167.091852			
15587	7.881480	-1.309664	2.916456	1.154644	0.797396	-1.424032	-5.174554	-75.547225	166.983714			
15588	8.093125	-1.408127	2.842005	1.092305	0.931521	-1.239615	-4.802126	-75.703972	166.712572			
15589	8.140142	-1.503742	2.294314	0.626350	1.207104	-1.331086	-4.153599	-75.801088	166.252141			
15590	8.149016	-1.458918	1.758599	0.131887	1.350057	-1.458799	-3.283359	-75.889143	165.654049			
15591	8.306398	-1.314644	1.880529	0.179161	1.215332	-1.283227	-2.325230	-75.981874	164.982743			
15592	8.364386	-0.820562	3.321137	1.371669	0.360277	-0.887732	-1.471471	-76.074530	164.364319			
15593	8.636037	-0.197318	3.911244	1.699309	-0.360308	-0.490654	-0.891172	-76.229556	163.989888			
15594	9.297205	0.115450	2.777619	0.438897	-0.280500	-0.122740	-0.455726	-76.424049	163.900913			
15595	10.076236	0.992014	3.740621	0.941360	-1.329714	0.857482	-0.341473	-76.516058	164.027557			
15596	9.923798	0.661960	3.932472	1.254860	-1.072635	0.754198	-0.425114	-76.463021	164.209550			
15597	10.143991	0.674649	2.696059	0.037848	-0.731747	0.679574	-0.412868	-76.384993	164.444730			
15598	10.501920	0.795903	1.548481	-1.164815	-0.516600	0.756034	-0.441551	-76.251086	164.733276			
15599	10.308425	-0.148184	1.092796	-1.318710	0.499908	0.458184	-0.551096	-76.077522	165.029684			
15600	10.146193	-1.166776	1.537633	-0.621344	1.352214	0.407699	-0.785353	-75.964565	165.369660			
15601	10.059690	-2.576422	2.398481	0.557747	2.472699	0.539252	-1.237637	-75.900211	165.792332			
15602	9.993185	-3.765609	2.933020	1.376787	3.456349	0.618238	-1.810723	-75.878253	166.337317			
15603	9.672233	-4.667509	3.169927	1.900773	4.226615	0.380884	-2.268416	-75.857951	166.896887			
15604	9.761312	-4.981829	3.631844	2.374601	4.407727	0.590451	-2.547756	-75.869019	167.458867			
15605	10.303693	-5.044327	3.672762	2.268677	4.494925	1.130306	-2.598525	-75.871752	168.000101			
15606	11.531186	-4.573293	4.486906	2.575751	3.931781	2.512967	-2.359485	-75.825498	168.436683			
15607	13.540913	-3.608493	4.897070	2.182081	3.059988	4.548119	-1.738430	-75.671288	168.750880			
15608	15.454834	-2.133497	4.311317	0.728670	1.938015	6.240405	-0.678279	-75.299069	169.061187			
15609	15.905148	-0.542732	3.959452	-0.182265	0.573585	6.575738	0.310892	-74.744192	169.600151			
15610	14.838579	0.675985	1.576959	-2.508200	-0.229710	4.910851	0.836454	-74.328762	170.458537			
15611	14.272797	3.283198	-0.319836	-4.612401	-2.592800	3.847370	0.825087	-74.096271	171.393068			
15612	14.233216	6.592267	0.798050	-4.001935	-6.064191	4.111726	0.682835	-73.862741	171.891615			
15613	14.429606	8.447253	5.489361	0.123273	-8.482465	5.605962	0.702617	-73.559483	171.885935			
15614	13.118449	8.178230	6.147859	1.040538	-8.316027	4.558540	1.098575	-72.905157	171.601084			
15615	10.029820	5.480201	2.568829	-1.248783	-5.294850	0.561911	1.435279	-72.158613	171.257258			
15616	7.353483	1.372471	3.172347	0.547725	-1.396348	-1.827031	1.337383	-71.570197	171.019784			
15617	5.739798	-0.353230	3.493099	1.511787	0.198231	-3.259313	1.326602	-71.067097	170.808741			
15618	4.559595	-0.452347	3.111555	1.496598	0.290066	-4.488011	1.459526	-70.588884	170.608003			
15619	3.834044	-1.156127	3.188854	1.865809	0.950793	-5.141506	1.761612	-70.153666	170.410518			
15620	4.288256	-1.643628	3.367186	1.919794	1.458512	-4.653653	2.250727	-69.980192	170.231006			
15621	6.551431	-0.829758	3.403565	1.074854	0.809552	-2.506306	2.883993	-70.044592	170.074454			
15622	8.850913	0.996014	2.895258	-0.376723	-0.778730	-0.487203	3.547474	-70.228243	170.013527			
15623	10.353679	2.653837	2.326430	-1.543970	-2.259050	0.778167	4.130262	-70.461363	170.057682			
15624	11.337025	4.160512	2.135163	-2.125137	-3.673666	1.693146	4.645569	-70.718204	170.081216			
15625	11.457601	5.482126	1.893570	-2.433384	-4.953864	1.782708	5.143640	-70.949978	169.959995			
15626	10.806297	6.345682	1.900966	-2.229088	-5.838705	1.214455	5.574227	-71.106216	169.698063			
15627	9.801194	6.250016	2.075926	-1.705737	-5.797768	0.331862	5.889236	-71.190539	169.324111			
15628	8.871505	5.359030	2.226972	-1.192188	-4.961600	-0.520573	6.088092	-71.221514	168.869814			
15629	8.284792	3.944900	2.263269	-0.862571	-3.580194	-1.108636	6.195742	-71.195124	168.369814			
15630	7.771414	2.257946	2.349177	-0.474198	-1.934618	-1.624637	6.218009	-71.156906	167.893462			
15631	7.503132	0.850798	2.725194	0.102670	-0.588223	-1.807003	6.123319	-71.138116	167.496291			
15632	7.237485	-0.255573	2.684479	0.276912	0.487632	-2.109541	5.952612	-71.176999	167.189628			
15633	7.497739	-0.618055	2.677015	0.246172	0.854842	-1.877128	5.768292	-71.284037	166.955449			
15634	7.772152	-0.683296	2.922129	0.422713	0.895132	-1.540321	5.535853	-71.455769	166.817576			
15635	8.455793	-0.383277	2.877333	0.158122	0.634161	-0.896461	5.306977	-71.679158	166.760545			
15636	8.754875	0.128293	2.697490	-0.142445	0.152379	-0.653150	5.054372	-71.897633	166.777128			
15637	8.811648	0.692638	2.769931	-0.144051	-0.430433	-0.561131	4.804245	-72.105608	166.823667			
15638	9.029130	1.112155	2.739429	-0.272960	-0.845815	-0.353483	4.526410	-72.308711	166.891100			
15639	9.144454	1.428445	2.519028	-0.537978	-1.138021	-0.303617	4.298014	-72.498296	166.919065			
15640	9.208756	1.750235	2.587187	-0.520129	-1.476670	-0.215453	4.101758	-72.675883	166.869582			
15641	9.246437	1.583376	2.560964	-0.509961	-1.318133	-0.191636	3.942143	-72.837445	166.731135			
15642	9.367688	1.380510	2.647273	-0.413399	-1.133352	-0.055023	3.821243	-72.973396	166.525536			
15643	9.345844	0.909811	2.647662	-0.313774	-0.678090	-0.085180	3.751057	-73.070448	166.246147			
15644	9.269035	0.398118	2.625237	-0.211459	-0.180607	-0.174844	3.728026	-73.149283	165.927932			
15645	9.025168	-0.066856	2.682212	0.007251	0.247422	-0.400403	3.744954	-73.216053	165.593448			
15646	8.869163	-0.379343	2.707713	0.146753	0.536259	-0.548318	3.772200	-73.286415	165.291533			
15647	8.891344	-0.466628	2.740339	0.202514	0.615676	-0.519512	3.815239	-73.364706	165.019422			
15648	8.977552	-0.477458	2.788466	0.241807	0.621488	-0.423587	3.864228	-73.448062	164.777557			
15649	9.104296	-0.354874	2.722078	0.135859	0.522406	-0.318876	3.955158	-73.532390	164.535235			
15650	9.225866	-0.200828	2.610297	-0.017311	0.401990	-0.231003	4.055856	-73.619779	164.301477			
15651	9.329114	-0.048443	2.549958	-0.116691	0.275281	-0.145859	4.244945	-73.706432	163.992170			
15652	9.419518	0.083444	2.645928	-0.060811	0.141208	-0.029459	4.509544	-73.787026	163.596345			
15653	9.381157	0.149727	2.553773	-0.134503	0.102683	-0.090465	4.879514	-73.855141	163.102181			
15654	9.373515	0.227863	2.451235	-0.228904	0.060947	-0.124184	5.311163	-73.918626	162.534690			
15655	9.263429	0.149703	2.427491	-0.189959	0.151511	-0.238391	5.808434	-73.964739	161.885461			
15656	9.174884	0.091205	2.320758	-0.238701	0.243712	-0.354554	6.376826	-74.011202	161.158131			
15657	9.101879	-0.013213	2.271864	-0.226527	0.373389	-0.441725	7.006434	-74.048264	160.357728			
15658	8.989998	-0.051500	2.113207	-0.322045	0.458959	-0.594557	7.659497	-74.074728	159.524891			
15659	8.844969	-0.045288	1.949566	-0.424979	0.501113	-0.779164	8.351620	-74.088302	158.641527			
15660	8.713655	0.080023	1.758951	-0.584668	0.435477	-0.952860	9.059523	-74.098233	157.723466			
15661	8.656203	0.286507	1.628072	-0.728332	0.287592	-1.034915	9.766088	-74.091316	156.783174			
15662	8.726792	0.434305	1.547671	-0.846154	0.200482	-0.981801	10.430021	-74.069078	155.841958			
15663	8.962839	0.626195	1.544417	-0.948865	0.074155	-0.746051	11.019563	-74.015874	154.922027			
15664	9.224707	0.617664	1.564788	-0.992885	0.140562	-0.489618	11.474995	-73.924932	154.062319			
15665	9.347964	0.516311	1.765451	-0.817639	0.237033	-0.323587	11.766172	-73.796079	153.294587			
15666	9.238581	0.198362	2.045719	-0.457602	0.485324	-0.371781	11.852079	-73.654784	152.652789			
15667	9.171683	-0.207016	2.369242	-0.043076	0.798649	-0.371489	11.778017	-73.517933	152.129930			
15668	9.154399	-0.611652	2.561523	0.243353	1.136655	-0.358200	11.584476	-73.407239	151.735873			
15669	9.249287	-1.076081	2.406782	0.207974	1.630162	-0.336445	11.336636	-73.329633	151.448040			
15670	9.536169	-1.448090	2.324132	0.173111	2.039049	-0.104475	11.088983	-73.278336	151.228270			
15671	9.859684	-2.007906	2.148024	0.109331	2.657801	0.126286	10.884293	-73.246435	151.044632			
15672	10.248793	-2.221244	2.271448	0.201775	2.871580	0.523872	10.781687	-73.250857	150.864283			
15673	10.757776	-1.899051	2.547056	0.236169	2.552418	1.107615	10.807716	-73.298578	150.638737			
15674	11.267772	-1.587909	2.582784	0.057658	2.317131	1.623329	10.892343	-73.350633	150.402296			
15675	11.224641	-1.295247	2.843992	0.224408	1.956279	1.671264	10.949443	-73.371613	150.202550			
15676	10.932401	-1.029167	3.089424	0.443845	1.586645	1.474769	10.948057	-73.422192	150.093048			
15677	10.852609	-0.715247	3.436250	0.690527	1.165472	1.512652	10.941182	-73.528761	150.038753			
15678	10.717759	-0.269594	3.411742	0.574251	0.721936	1.400342	10.946841	-73.660949	150.024940			
15679	10.704085	0.491455	3.108254	0.072169	0.084160	1.343828	10.993978	-73.808511	150.043263			
15680	10.730766	1.526440	2.804592	-0.525293	-0.808499	1.341477	11.030270	-73.980747	150.120544			
15681	11.100097	2.245107	2.546209	-1.054049	-1.376603	1.664666	10.958961	-74.168957	150.302189			
15682	11.231731	2.825974	2.562342	-1.226732	-1.939998	1.824961	10.762654	-74.373290	150.592496			
15683	11.347633	3.581437	2.582319	-1.444659	-2.679901	1.976913	10.479272	-74.611835	150.969517			
15684	11.008591	4.690624	2.301659	-1.937567	-3.730622	1.624820	10.157256	-74.904588	151.382410			
15685	10.551352	5.897233	2.034796	-2.417845	-4.893556	1.162537	9.835260	-75.216538	151.730339			
15686	9.859803	6.725263	1.943097	-2.575032	-5.772061	0.496185	9.476684	-75.510707	151.958885			
15687	8.923857	7.061517	2.181987	-2.245599	-6.300393	-0.350997	9.092816	-75.777030	152.008021			
15688	8.364707	6.729356	2.446237	-1.790813	-6.155871	-0.860890	8.490020	-76.057334	152.025547			
15689	8.425511	5.447330	2.937790	-0.960357	-5.131517	-0.755198	7.551676	-76.355494	152.134998			
15690	8.920565	3.829528	3.233678	-0.269389	-3.712115	-0.281393	6.299577	-76.645621	152.439585			
15691	9.338637	2.086433	3.597096	0.579795	-2.242613	0.144037	4.869654	-76.890210	152.906636			
15692	9.734354	0.439136	3.968443	1.446365	-0.899422	0.569866	3.463062	-77.100007	153.420146			
15693	9.824442	-1.102786	3.812704	1.902383	0.500154	0.598974	2.266050	-77.307148	153.907163			
15694	10.584300	-2.071478	3.677373	2.048536	1.433900	1.304345	1.247006	-77.525152	154.426165			
15695	10.822819	-2.464885	3.857346	2.347957	1.675483	1.578876	0.327484	-77.655264	154.998500			
15696	10.826384	-2.258101	3.721906	2.148012	1.491385	1.559378	-0.505195	-77.700000	155.621714			
15697	10.983098	-1.706735	3.217202	1.428193	1.180937	1.609106	-1.122671	-77.655426	156.205398			
15698	11.075589	-0.720539	3.086454	0.850278	0.334464	1.671174	-1.635447	-77.489331	156.773071			
15699	10.865050	-0.041764	3.169468	0.633875	-0.335694	1.482526	-2.112533	-77.234813	157.313999			
15700	10.445531	0.396291	2.993721	0.322566	-0.693543	1.033655	-2.552763	-76.913078	157.827668			
15701	9.764581	0.609267	2.945622	0.269536	-0.917482	0.359831	-2.968794	-76.541052	158.313051			
15702	8.955939	0.588782	2.896934	0.346237	-0.940140	-0.434859	-3.376501	-76.168389	158.780585			
15703	8.267687	0.400375	2.842474	0.472019	-0.798547	-1.110166	-3.756337	-75.816726	159.223160			
15704	7.638555	0.094534	2.767678	0.627035	-0.539390	-1.729854	-4.129766	-75.501975	159.642813			
15705	7.243119	-0.161218	2.735864	0.755680	-0.324744	-2.112227	-4.479052	-75.234333	160.049699			
15706	7.117998	-0.342110	2.769301	0.856828	-0.183859	-2.217693	-4.821596	-75.039920	160.461564			
15707	7.189528	-0.446495	2.822578	0.904954	-0.105557	-2.129882	-5.131122	-74.908256	160.859359			
15708	7.574580	-0.518243	2.802877	0.806198	-0.003311	-1.759801	-5.405718	-74.841543	161.243138			
15709	7.980683	-0.525106	2.839402	0.731593	0.017492	-1.357293	-5.636272	-74.822396	161.604400			
15710	8.408212	-0.521691	2.940834	0.709806	0.002498	-0.918034	-5.870795	-74.831668	161.968670			
15711	8.692081	-0.517661	3.062942	0.744022	-0.033629	-0.612298	-6.078819	-74.845934	162.308372			
15712	8.858199	-0.623278	3.123219	0.797567	0.045436	-0.433323	-6.276962	-74.858305	162.634831			
15713	8.923889	-0.719078	3.177189	0.865981	0.112246	-0.353043	-6.417515	-74.865904	162.922501			
15714	8.729645	-0.849359	3.156601	0.947704	0.221512	-0.542033	-6.528802	-74.882800	163.193109			
15715	8.589456	-0.936938	3.104715	0.973575	0.309763	-0.688430	-6.589354	-74.923294	163.423897			
15716	8.493790	-1.013374	2.958917	0.905315	0.427599	-0.816902	-6.601813	-74.999792	163.624715			
15717	8.415753	-1.018809	2.750798	0.754452	0.506350	-0.946789	-6.523786	-75.108634	163.745584			
15718	8.328182	-1.053591	2.478627	0.565047	0.636206	-1.101304	-6.359311	-75.249095	163.776855			
15719	8.191280	-1.127956	2.354827	0.537570	0.745613	-1.264611	-6.078457	-75.401529	163.688685			
15720	8.130387	-1.308927	2.296728	0.592157	0.937238	-1.335523	-5.698544	-75.564346	163.496281			
15721	8.072724	-1.611798	2.029063	0.503558	1.323116	-1.453286	-5.200013	-75.733324	163.231837			
15722	8.160562	-1.773052	1.918695	0.468174	1.531806	-1.395194	-4.646696	-75.923425	162.971739			
15723	8.365363	-1.819352	2.122059	0.646894	1.528951	-1.150341	-4.129718	-76.125062	162.737183			
15724	8.638027	-1.792224	2.410460	0.862464	1.431514	-0.821316	-3.696597	-76.318185	162.593471			
15725	8.757111	-1.451779	2.952348	1.231409	0.942122	-0.587343	-3.355981	-76.503310	162.569430			
15726	9.003761	-0.825643	3.339323	1.336043	0.246575	-0.270435	-3.194193	-76.694813	162.756827			
15727	9.266558	-0.208282	3.147135	0.919501	-0.248878	-0.070540	-3.247812	-76.883004	163.189140			
15728	9.667067	0.440798	3.139119	0.632897	-0.840095	0.306313	-3.547851	-77.029958	163.852748			
15729	9.752084	0.781513	3.382890	0.741558	-1.251177	0.436336	-4.002570	-77.072688	164.591419			
15730	9.644893	0.986149	3.204308	0.537386	-1.407572	0.286520	-4.454522	-77.057782	165.312048			
15731	9.682877	1.162919	2.602143	-0.083279	-1.391456	0.184239	-4.781981	-77.028564	165.932437			
15732	9.619470	1.172113	2.354338	-0.302544	-1.336298	0.065254	-5.063527	-76.990116	166.468438			
15733	9.410785	0.813936	2.455244	-0.053969	-1.047667	-0.109437	-5.282862	-76.955803	166.873563			
15734	9.273274	0.255875	2.503223	0.192925	-0.546082	-0.221557	-5.443498	-76.948137	167.158482			
15735	9.205182	-0.422629	2.591569	0.502114	0.064279	-0.253714	-5.507767	-76.978429	167.332297			
15736	9.205487	-1.137084	3.103277	1.206052	0.585620	-0.124202	-5.473893	-77.072418	167.435449			
15737	9.538263	-1.775308	3.326217	1.554005	1.146561	0.260263	-5.256279	-77.219607	167.478004			
15738	9.850942	-2.110935	3.495328	1.767152	1.446947	0.603543	-4.815079	-77.377999	167.456689			
15739	10.495726	-2.092883	4.276667	2.371801	1.262305	1.394957	-4.276483	-77.511125	167.443222			
15740	11.360781	-1.966264	4.275866	2.160498	1.224321	2.230970	-3.734339	-77.540928	167.567212			
15741	12.106766	-1.708123	3.611085	1.290859	1.239822	2.809819	-3.236088	-77.451272	167.922778			
15742	12.655417	-1.313109	2.826699	0.293156	1.122728	3.169122	-2.934182	-77.308816	168.525493			
15743	12.733964	-0.777011	2.103623	-0.581280	0.792679	3.079809	-3.017161	-77.195827	169.405557			
15744	12.702886	0.778673	2.325655	-0.753748	-0.794665	3.078339	-3.685079	-77.121585	170.597329			
15745	13.052934	2.342165	2.667539	-0.867122	-2.428177	3.466332	-4.736736	-77.081945	171.945179			
15746	14.284459	4.169108	2.914219	-1.305466	-4.285654	4.673460	-5.756813	-77.043283	173.226684			
15747	15.177763	4.719487	2.842834	-1.727714	-4.834203	5.496282	-6.484867	-76.727150	174.054675			
15748	13.252275	3.535797	2.291572	-1.658649	-3.627765	3.508835	-6.789118	-76.235538	174.311128			
15749	10.880759	1.688438	1.709736	-1.360753	-1.752844	1.107025	-6.911758	-75.790987	174.207314			
15750	8.652504	0.216918	3.156769	0.787151	-0.681007	-0.658768	-6.914068	-75.357622	173.823542			
15751	7.042357	-0.864504	3.817914	1.993508	0.182913	-2.008146	-6.714041	-74.974446	173.274994			
15752	6.411863	-1.772466	3.744509	2.252862	1.066943	-2.597349	-6.407747	-74.664256	172.748133			
15753	6.233947	-2.655065	4.001406	2.717644	1.867935	-2.667906	-6.052254	-74.454230	172.310979			
15754	6.394186	-2.855100	4.203495	2.895583	2.034792	-2.451861	-5.661747	-74.379382	171.984592			
15755	6.932464	-2.009680	3.490901	1.884035	1.418913	-2.149705	-5.181400	-74.407586	171.759720			
15756	7.657590	-0.665627	2.684034	0.633635	0.345292	-1.703124	-4.649561	-74.479110	171.636806			
15757	8.261245	0.578429	2.546490	0.084466	-0.790694	-1.185118	-4.053181	-74.558207	171.554366			
15758	8.553289	1.830555	2.510768	-0.264904	-1.973171	-0.932939	-3.435536	-74.644148	171.498485			
15759	8.923702	2.826658	2.077086	-0.936887	-2.828358	-0.699004	-2.841146	-74.717146	171.442149			
15760	9.206700	3.359510	1.813502	-1.325384	-3.276769	-0.493651	-2.313854	-74.754639	171.410244			
15761	9.416545	3.669484	1.743109	-1.471730	-3.550492	-0.304649	-1.867480	-74.757839	171.404776			
15762	9.690573	3.755169	1.687731	-1.585474	-3.606634	-0.048705	-1.492668	-74.733835	171.399919			
15763	9.746979	3.755290	1.622361	-1.646316	-3.585445	-0.005951	-1.147899	-74.672768	171.374607			
15764	9.579808	3.648908	1.521307	-1.673138	-3.462068	-0.188951	-0.817520	-74.591350	171.302520			
15765	9.296017	3.563406	1.526155	-1.578078	-3.379448	-0.456837	-0.481553	-74.506116	171.178723			
15766	9.038062	3.461580	1.494522	-1.523031	-3.274109	-0.709761	-0.180377	-74.446595	171.029685			
15767	9.022886	3.247398	1.552546	-1.428585	-3.061957	-0.704887	0.084402	-74.415570	170.868412			
15768	9.086040	2.972488	1.783901	-1.178991	-2.814856	-0.579017	0.266464	-74.418554	170.738098			
15769	9.224815	2.597814	2.012828	-0.934547	-2.467939	-0.382247	0.364725	-74.445560	170.661313			
15770	9.363001	2.156946	2.202110	-0.714746	-2.053849	-0.198202	0.379066	-74.500205	170.635111			
15771	9.530545	1.785410	2.249456	-0.645416	-1.687539	-0.024191	0.386295	-74.576191	170.605677			
15772	9.776810	1.608327	2.197608	-0.717252	-1.496567	0.199706	0.378591	-74.678025	170.569430			
15773	10.063858	1.457493	2.064017	-0.877985	-1.316549	0.442141	0.405291	-74.793942	170.473360			
15774	10.422480	1.406254	1.965988	-1.035826	-1.235801	0.764202	0.470950	-74.918013	170.317625			
15775	10.677526	1.409839	1.869236	-1.173624	-1.209193	0.987853	0.631732	-75.031691	170.044935			
15776	10.730215	1.323536	1.647620	-1.365462	-1.078081	0.984401	0.879981	-75.129553	169.655122			
15777	10.525647	1.300128	1.669401	-1.273244	-1.052193	0.795714	1.254397	-75.209426	169.121994			
15778	10.236493	1.242233	1.654176	-1.191741	-0.986356	0.515528	1.720032	-75.276528	168.479633			
15779	9.976342	1.194754	1.720628	-1.044054	-0.939276	0.283998	2.257961	-75.327743	167.749161			
15780	9.667754	1.138588	1.853880	-0.821326	-0.897424	0.021880	2.830275	-75.365506	166.988683			
15781	9.446700	1.181021	1.976920	-0.650248	-0.946514	-0.157410	3.413843	-75.386357	166.212118			
15782	9.336439	1.295182	1.992441	-0.623931	-1.043222	-0.255556	3.977202	-75.402971	165.459512			
15783	9.286463	1.461437	1.905362	-0.721182	-1.169537	-0.319710	4.539612	-75.416679	164.708471			
15784	9.290539	1.721764	1.819702	-0.848898	-1.385424	-0.328499	5.086693	-75.432891	163.973636			
15785	9.313760	1.956421	1.820870	-0.895772	-1.589766	-0.296413	5.615416	-75.443947	163.244967			
15786	9.292943	2.190630	1.764566	-0.988866	-1.786966	-0.320575	6.119383	-75.457170	162.511632			
15787	9.274012	2.332643	1.808769	-0.971925	-1.912031	-0.319552	6.589768	-75.461728	161.772529			
15788	9.293538	2.339764	1.776169	-1.011555	-1.888686	-0.304339	7.034850	-75.474600	161.024981			
15789	9.293342	2.330519	1.828345	-0.963318	-1.867362	-0.287704	7.460100	-75.484827	160.265500			
15790	9.324936	2.154515	1.806290	-0.957046	-1.667349	-0.264755	7.853201	-75.498629	159.506519			
15791	9.287043	1.928829	1.812767	-0.894666	-1.431307	-0.304450	8.225536	-75.514172	158.726891			
