// General information: 
//  MT Manager version: 2022.0.0 
//  XDA version: 2022.0.0 build 7085 rev 119802 built on 2022-11-08
// Device information: 
//  DeviceId: 00B492A2
//  ProductCode: MTW2-3A7G6
//  Firmware Version: 4.6.0
//  Hardware Version: 2.0.0
// Device settings: 
//  Filter Profile: human(46.1)
//  Option Flags: Orientation Smoother Disabled, Position/Velocity Smoother Disabled, Continuous Zero Rotation Update Disabled, AHS Disabled, ICC Disabled
// Coordinate system: ENU
PacketCounter	Acc_X	Acc_Y	Acc_Z	FreeAcc_E	FreeAcc_N	FreeAcc_U	Roll	Pitch	Yaw	Vel_E	Vel_N	Vel_U
14665	8.937370	0.027719	-3.570305	0.171002	0.083561	-0.190411	-177.408377	-68.196304	113.636513			
14666	8.921125	0.065327	-3.601625	0.217332	0.069892	-0.194459	-177.441516	-68.178394	113.593738			
14667	8.946253	0.134616	-3.617026	0.278500	0.097409	-0.166477	-177.490070	-68.158250	113.565005			
14668	8.929359	0.138513	-3.691232	0.311073	0.033378	-0.154533	-177.539460	-68.136258	113.537318			
14669	8.912657	0.177490	-3.723329	0.357012	0.019343	-0.158553	-177.598941	-68.114200	113.516922			
14670	8.911609	0.215393	-3.684172	0.370503	0.070030	-0.174528	-177.658612	-68.087479	113.490141			
14671	8.894604	0.255199	-3.716757	0.416511	0.056046	-0.178542	-177.730452	-68.060325	113.467410			
14672	8.836218	0.298749	-3.723514	0.461346	0.051202	-0.230564	-177.805140	-68.030376	113.442203			
14673	8.813873	0.304985	-3.714246	0.460022	0.055679	-0.254535	-177.886794	-68.000414	113.417094			
14674	8.789022	0.311101	-3.663153	0.442230	0.094828	-0.296500	-177.965402	-67.964564	113.387740			
14675	8.836308	0.328893	-3.636912	0.433503	0.143272	-0.262442	-178.054358	-67.925394	113.356203			
14676	8.950632	0.323580	-3.593819	0.387371	0.220281	-0.172383	-178.134816	-67.880601	113.327570			
14677	9.105480	0.281260	-3.620104	0.328551	0.237728	-0.018324	-178.227772	-67.836794	113.302123			
14678	9.219811	0.275886	-3.577617	0.282428	0.314766	0.071721	-178.310636	-67.795368	113.277439			
14679	9.309945	0.257402	-3.662938	0.278186	0.269679	0.187730	-178.404531	-67.762224	113.248238			
14680	9.357842	0.275511	-3.635804	0.269913	0.318560	0.221745	-178.498704	-67.736998	113.227443			
14681	9.297279	0.285960	-3.641017	0.283819	0.297399	0.167752	-178.593350	-67.723096	113.195803			
14682	9.274162	0.291616	-3.586321	0.266087	0.336584	0.125760	-178.674487	-67.717335	113.158046			
14683	9.196340	0.303519	-3.617736	0.296000	0.285372	0.065762	-178.756873	-67.719069	113.114303			
14684	9.085578	0.299300	-3.607884	0.301550	0.250442	-0.040253	-178.818809	-67.725428	113.061822			
14685	9.053788	0.408550	-3.576498	0.391187	0.306917	-0.082214	-178.879605	-67.733849	113.001645			
14686	8.992972	0.503691	-3.589203	0.489935	0.310842	-0.134207	-178.925451	-67.737300	112.938703			
14687	8.962421	0.491721	-3.589231	0.481302	0.292213	-0.162179	-178.978578	-67.742833	112.869975			
14688	8.986559	0.527066	-3.599155	0.512358	0.304025	-0.136168	-179.010860	-67.745652	112.787550			
14689	9.039676	0.477809	-3.737481	0.509315	0.182963	-0.034143	-179.058641	-67.748003	112.699901			
14690	9.099054	0.441562	-3.776347	0.480618	0.154167	0.035855	-179.079149	-67.750319	112.593163			
14691	9.172507	0.301609	-3.874342	0.377135	0.038423	0.141842	-179.095248	-67.760084	112.477718			
14692	9.148857	0.146531	-3.850386	0.230504	-0.013252	0.111789	-179.075330	-67.775314	112.354500			
14693	9.064344	-0.070183	-3.916248	0.070064	-0.187101	0.059716	-179.043418	-67.798726	112.232036			
14694	8.948580	-0.302813	-3.984215	-0.097902	-0.379062	-0.020370	-178.971904	-67.822749	112.109944			
14695	8.779442	-0.519433	-3.955147	-0.277811	-0.500732	-0.186490	-178.882302	-67.853378	111.998691			
14696	8.599551	-0.752862	-3.940866	-0.464579	-0.644998	-0.356597	-178.771645	-67.885114	111.893474			
14697	8.386888	-0.970162	-3.842106	-0.662403	-0.723358	-0.588759	-178.663718	-67.924466	111.817402			
14698	8.283612	-1.180892	-3.707253	-0.882416	-0.731653	-0.732904	-178.570297	-67.971891	111.780785			
14699	8.368728	-1.304179	-3.556262	-1.054667	-0.628949	-0.709084	-178.492021	-68.030725	111.781584			
14700	8.536055	-1.344132	-3.465077	-1.139250	-0.519030	-0.587158	-178.429854	-68.107846	111.821274			
14701	8.875133	-1.259983	-3.340790	-1.146104	-0.277570	-0.319228	-178.395923	-68.214810	111.896569			
14702	9.265961	-1.106303	-3.275750	-1.073356	-0.047705	0.018795	-178.370351	-68.355553	112.002840			
14703	9.592016	-0.904964	-3.362627	-0.889878	0.043366	0.352898	-178.350137	-68.525902	112.104034			
14704	9.922741	-0.702718	-3.486249	-0.689437	0.100057	0.705064	-178.312390	-68.719520	112.192542			
14705	10.147994	-0.629549	-3.673203	-0.565468	0.011846	0.983169	-178.241865	-68.923627	112.226531			
14706	10.226155	-0.713994	-3.518888	-0.690727	0.100752	1.003005	-178.103554	-69.132950	112.195422			
14707	10.057692	-0.904226	-3.284572	-0.906416	0.133188	0.766713	-177.902197	-69.355592	112.096790			
14708	9.665556	-0.924004	-2.964789	-0.966992	0.235995	0.290569	-177.635660	-69.583299	111.962085			
14709	9.315448	-0.691084	-2.556529	-0.838647	0.536796	-0.179442	-177.330336	-69.782120	111.783870			
14710	9.188252	-0.369587	-2.363508	-0.578028	0.772242	-0.367255	-176.987041	-69.923913	111.562157			
14711	9.063880	-0.115217	-2.309730	-0.328927	0.872452	-0.505022	-176.667512	-70.006338	111.315181			
14712	9.025129	0.167533	-2.314906	-0.046315	0.970971	-0.544739	-176.373600	-70.027742	111.059735			
14713	8.980093	0.121225	-2.290948	-0.078611	0.964074	-0.594793	-176.118286	-69.994602	110.792403			
14714	9.225443	0.099491	-2.262564	-0.129656	1.072344	-0.374937	-175.886032	-69.902514	110.528857			
14715	9.427865	0.012767	-2.303364	-0.210241	1.088644	-0.171064	-175.675553	-69.774186	110.244705			
14716	9.479632	-0.092092	-2.504564	-0.227332	0.917880	-0.053051	-175.456761	-69.623910	109.945730			
14717	9.501412	-0.298732	-2.741347	-0.320536	0.669378	0.052917	-175.225525	-69.454677	109.614617			
14718	9.544842	-0.513273	-2.794958	-0.495201	0.584744	0.116663	-174.965688	-69.276864	109.265616			
14719	9.489380	-0.738526	-2.772698	-0.696744	0.528960	0.062344	-174.685990	-69.100289	108.896545			
14720	9.356698	-0.922922	-2.740939	-0.853532	0.472468	-0.067921	-174.358810	-68.926061	108.507153			
14721	9.153551	-1.118478	-2.726439	-1.003300	0.371470	-0.256159	-173.988980	-68.763523	108.085037			
14722	8.897135	-1.173049	-2.583718	-1.065440	0.416081	-0.544341	-173.582009	-68.603360	107.653629			
14723	8.786587	-1.242844	-2.527140	-1.123084	0.429685	-0.664510	-173.158996	-68.453498	107.207993			
14724	8.731652	-1.180285	-2.448543	-1.073152	0.532225	-0.746532	-172.739847	-68.313066	106.782330			
14725	8.701468	-1.132137	-2.607183	-0.947506	0.434761	-0.718304	-172.337376	-68.179054	106.378194			
14726	8.737083	-1.008796	-2.533794	-0.850123	0.585677	-0.718260	-171.953613	-68.048708	106.019930			
14727	8.785837	-0.814632	-2.500365	-0.674855	0.733294	-0.696044	-171.610541	-67.933731	105.694088			
14728	8.863463	-0.552784	-2.435292	-0.454146	0.942785	-0.663805	-171.303407	-67.828630	105.402898			
14729	8.687978	-0.306393	-2.356372	-0.229796	1.062541	-0.871463	-171.068889	-67.737234	105.152855			
14730	8.846345	-0.049087	-2.257101	-0.039414	1.323336	-0.779308	-170.891598	-67.647572	104.936580			
14731	8.850608	-0.027287	-2.309471	0.007719	1.304527	-0.759192	-170.756678	-67.568796	104.729936			
14732	8.777299	-0.078995	-2.422566	0.016977	1.175941	-0.783131	-170.640368	-67.491324	104.552519			
14733	8.812336	-0.181163	-2.446125	-0.066404	1.142716	-0.737260	-170.539613	-67.407041	104.390099			
14734	9.014487	-0.376474	-2.463152	-0.254844	1.142445	-0.533695	-170.446528	-67.317038	104.244827			
14735	9.126466	-0.456157	-2.371373	-0.370914	1.245437	-0.462011	-170.371055	-67.233364	104.107111			
14736	9.161311	-0.523287	-2.311495	-0.456703	1.297493	-0.450296	-170.314950	-67.151699	103.991998			
14737	9.281776	-0.652071	-2.332744	-0.577231	1.288471	-0.324543	-170.291196	-67.076663	103.892736			
14738	9.293946	-0.693840	-2.358081	-0.607474	1.268753	-0.302660	-170.284333	-67.003573	103.812947			
14739	9.263509	-0.729431	-2.314540	-0.655295	1.291878	-0.346781	-170.305899	-66.936595	103.745431			
14740	9.248847	-0.746933	-2.340537	-0.662938	1.269366	-0.350848	-170.346773	-66.867718	103.694296			
14741	9.272928	-0.769841	-2.350876	-0.685629	1.272089	-0.324897	-170.394415	-66.802082	103.636206			
14742	9.389932	-0.788127	-2.399771	-0.698456	1.280614	-0.198997	-170.438262	-66.730371	103.580746			
14743	9.572619	-0.834573	-2.432526	-0.748844	1.317149	-0.017124	-170.473843	-66.666149	103.503910			
14744	9.799577	-0.885351	-2.575478	-0.765309	1.276401	0.248810	-170.487459	-66.609875	103.417879			
14745	10.042197	-0.888679	-2.657656	-0.759830	1.308187	0.502831	-170.482790	-66.578846	103.300228			
14746	10.170911	-0.895988	-2.641703	-0.781664	1.374183	0.614654	-170.461577	-66.570279	103.169434			
14747	10.309562	-0.867397	-2.704085	-0.739645	1.386167	0.764788	-170.434074	-66.594810	103.009437			
14748	10.353309	-0.845885	-2.637726	-0.740757	1.462545	0.778646	-170.402834	-66.650273	102.831816			
14749	10.359376	-0.872172	-2.525567	-0.796690	1.538595	0.744482	-170.375885	-66.748579	102.623974			
14750	10.154380	-0.861043	-2.515587	-0.761446	1.456536	0.554553	-170.351453	-66.863053	102.404281			
14751	9.919010	-0.830526	-2.420595	-0.736030	1.439994	0.302669	-170.342462	-66.985121	102.169673			
14752	9.759498	-0.784400	-2.167011	-0.759753	1.594876	0.058389	-170.349885	-67.097746	101.943886			
14753	9.594023	-0.768267	-1.690480	-0.888199	1.928998	-0.274173	-170.366257	-67.208269	101.704521			
14754	9.558394	-0.924238	-1.387393	-1.125916	2.108575	-0.409061	-170.383447	-67.295847	101.480799			
14755	9.626309	-1.229023	-1.260429	-1.449386	2.129502	-0.371845	-170.398550	-67.366095	101.257638			
14756	9.823707	-1.434079	-1.407732	-1.596237	2.003329	-0.118246	-170.374769	-67.414380	101.036769			
14757	10.236079	-1.597186	-1.684390	-1.674928	1.863825	0.379773	-170.319059	-67.448685	100.783574			
14758	10.868679	-1.796064	-2.249111	-1.705740	1.550079	1.191867	-170.222016	-67.468773	100.504312			
14759	11.481237	-1.614038	-2.735152	-1.400701	1.425076	1.930913	-170.092063	-67.483133	100.155679			
14760	11.726745	-1.660597	-3.344291	-1.244869	0.981516	2.391628	-169.959593	-67.482889	99.781253			
14761	11.526640	-2.077613	-4.033817	-1.385283	0.175542	2.495917	-169.808622	-67.518884	99.415240			
14762	11.272426	-2.371054	-4.371348	-1.519717	-0.311817	2.409888	-169.565312	-67.588724	99.079737			
14763	11.137349	-2.180539	-4.473405	-1.273551	-0.401879	2.312622	-169.238433	-67.676964	98.741473			
14764	11.080920	-1.849727	-4.571092	-0.896096	-0.414476	2.275666	-168.865881	-67.755861	98.398161			
14765	11.174394	-1.483502	-5.041176	-0.369518	-0.680954	2.511312	-168.448978	-67.807577	98.004188			
14766	11.333660	-1.180886	-5.816657	0.195065	-1.198232	2.923321	-168.010313	-67.795661	97.597271			
14767	11.637057	-1.002220	-6.342731	0.556876	-1.476591	3.384480	-167.563081	-67.769078	97.173122			
14768	11.403050	-0.538495	-5.894330	0.895929	-1.018815	2.963144	-167.138710	-67.779670	96.789845			
14769	10.085867	-0.210701	-5.200247	1.066798	-0.812212	1.457355	-166.839698	-67.872873	96.504349			
14770	8.141343	-0.227313	-4.828591	1.027284	-1.240920	-0.482458	-166.762865	-68.019957	96.402162			
14771	6.963132	-0.169764	-4.827632	1.130848	-1.682049	-1.583962	-166.880143	-68.144591	96.456912			
14772	6.311451	0.116809	-4.681781	1.370153	-1.719068	-2.267186	-167.174183	-68.199085	96.653262			
14773	5.861217	0.304768	-4.604691	1.521975	-1.767421	-2.726808	-167.608696	-68.207695	96.913410			
14774	5.757760	0.533056	-4.670808	1.736389	-1.796815	-2.812064	-168.149284	-68.172809	97.226686			
14775	5.797227	0.617010	-4.937069	1.865081	-1.993759	-2.677599	-168.742001	-68.114015	97.544063			
14776	5.888963	0.318414	-5.134384	1.601716	-2.226312	-2.490046	-169.353342	-68.033587	97.892882			
14777	6.247085	-0.199815	-4.869509	0.971746	-2.015960	-2.212055	-169.922981	-67.928228	98.242117			
14778	7.085911	-0.720862	-4.450712	0.269771	-1.483261	-1.550383	-170.412222	-67.806092	98.585849			
14779	8.082564	-1.012261	-4.018474	-0.222658	-0.806610	-0.768331	-170.790103	-67.708575	98.860011			
14780	8.810173	-1.171385	-3.901721	-0.474770	-0.470155	-0.129288	-171.089576	-67.663804	99.083748			
14781	9.110374	-0.958102	-3.923066	-0.300596	-0.314853	0.143105	-171.319503	-67.701182	99.232570			
14782	8.812167	-0.497025	-3.961127	0.156172	-0.336592	-0.145520	-171.515157	-67.800114	99.349864			
14783	8.480519	-0.049633	-4.138133	0.646074	-0.504173	-0.411934	-171.694029	-67.916497	99.432441			
14784	8.321899	0.333310	-4.167999	1.020579	-0.495906	-0.568783	-171.895494	-68.006680	99.548039			
14785	8.663345	0.562878	-4.068407	1.178025	-0.230420	-0.300514	-172.125664	-68.063582	99.693797			
14786	9.047027	0.632840	-4.014447	1.190975	-0.032207	0.033403	-172.385025	-68.100738	99.896749			
14787	9.272572	0.459229	-3.899815	0.961862	0.090362	0.210619	-172.659102	-68.144160	100.111932			
14788	9.261811	0.190787	-3.826403	0.667963	0.061598	0.187757	-172.961157	-68.195887	100.364132			
14789	9.078498	0.013514	-3.811756	0.487656	-0.058428	0.021311	-173.316578	-68.261669	100.638486			
14790	8.752937	-0.197434	-3.883518	0.306460	-0.316467	-0.245009	-173.738019	-68.319963	100.970451			
14791	8.449559	-0.354201	-3.837565	0.138706	-0.444576	-0.537428	-174.228491	-68.357523	101.353660			
14792	8.190330	-0.430913	-3.641013	-0.000370	-0.395957	-0.847906	-174.770082	-68.372310	101.803420			
14793	8.169464	-0.434284	-3.349833	-0.114050	-0.153723	-0.974509	-175.330293	-68.371432	102.278245			
14794	8.344111	-0.382875	-3.168396	-0.160805	0.080380	-0.880884	-175.901790	-68.345994	102.800533			
14795	8.503932	-0.236679	-3.020800	-0.107067	0.307462	-0.790934	-176.456137	-68.317415	103.323302			
14796	8.696221	-0.018869	-2.919202	0.024982	0.526931	-0.654741	-176.988078	-68.282155	103.859561			
14797	8.729944	0.088948	-3.013281	0.119481	0.484141	-0.590381	-177.493236	-68.249223	104.370928			
14798	8.632834	0.363793	-3.052782	0.372278	0.492531	-0.669581	-177.963400	-68.204207	104.868425			
14799	8.676698	0.511296	-3.085855	0.488967	0.522591	-0.617213	-178.425538	-68.144277	105.349380			
14800	8.781734	0.708084	-3.024583	0.620344	0.674833	-0.542949	-178.886893	-68.077483	105.819582			
14801	8.859201	0.725129	-2.901809	0.565575	0.818367	-0.515265	-179.349533	-68.023011	106.267250			
14802	8.867354	0.736218	-2.796191	0.517488	0.918216	-0.545558	-179.804519	-67.983667	106.716182			
14803	8.873666	0.629340	-2.732034	0.369997	0.943913	-0.562060	179.783234	-67.956475	107.136913			
14804	8.791821	0.542087	-2.626605	0.243368	0.980328	-0.676566	179.439399	-67.933119	107.515197			
14805	8.759193	0.429618	-2.534688	0.094719	1.014821	-0.741093	179.157480	-67.913676	107.850217			
14806	8.669726	0.238119	-2.484651	-0.108140	0.970229	-0.843781	178.939732	-67.885395	108.134954			
14807	8.634456	0.084575	-2.398107	-0.287582	0.989271	-0.910410	178.779000	-67.855866	108.372347			
14808	8.660776	0.037847	-2.265687	-0.382006	1.103925	-0.936921	178.669540	-67.823119	108.567827			
14809	8.722454	-0.051413	-2.121708	-0.522210	1.228428	-0.935540	178.603247	-67.797303	108.731517			
14810	8.827170	-0.114618	-1.956431	-0.646613	1.394793	-0.902236	178.581572	-67.777698	108.867352			
14811	9.209950	-0.235790	-1.850650	-0.842178	1.587521	-0.589120	178.585360	-67.784682	108.997217			
14812	9.466656	-0.177466	-1.810567	-0.830793	1.727490	-0.365318	178.634719	-67.824318	109.110262			
14813	9.629769	0.014643	-1.782967	-0.674331	1.858470	-0.220868	178.704827	-67.900889	109.220248			
14814	9.784010	0.431577	-1.867404	-0.269652	1.953030	-0.039600	178.762866	-68.011730	109.332826			
14815	9.692636	0.835923	-2.063028	0.186648	1.853444	-0.043762	178.786158	-68.165991	109.456581			
14816	9.393593	1.069747	-2.259417	0.508358	1.624710	-0.242382	178.796830	-68.334579	109.571981			
14817	9.216367	1.379234	-2.312969	0.845267	1.588392	-0.381037	178.779488	-68.503604	109.705379			
14818	9.041521	1.693296	-2.412225	1.198263	1.518128	-0.501694	178.755265	-68.647988	109.823981			
14819	9.027116	1.965153	-2.438403	1.468116	1.557903	-0.500652	178.702264	-68.764807	109.946653			
14820	9.239083	2.288650	-2.331751	1.716653	1.811656	-0.336053	178.591733	-68.863995	110.076962			
14821	9.558687	2.530927	-2.179751	1.858583	2.111272	-0.085737	178.381775	-68.982419	110.243871			
14822	9.843943	2.643902	-1.879396	1.835973	2.481100	0.081695	178.058376	-69.128151	110.462005			
14823	9.980061	2.407155	-1.704113	1.535506	2.568010	0.154629	177.616638	-69.308492	110.746324			
14824	10.038163	1.916692	-1.644591	1.035296	2.441574	0.192801	177.097672	-69.493523	111.095072			
14825	10.185662	1.403205	-1.725318	0.538669	2.211917	0.361324	176.540229	-69.671294	111.491361			
14826	10.144395	0.949415	-1.992668	0.172511	1.777270	0.414348	175.981489	-69.826466	111.913721			
14827	10.204721	0.336503	-2.434130	-0.312809	1.173189	0.613251	175.405215	-69.957369	112.382714			
14828	10.663108	-0.252758	-2.886434	-0.829529	0.698182	1.183747	174.851162	-70.049529	112.887080			
14829	11.341261	-0.616092	-3.166948	-1.214162	0.516895	1.904472	174.304925	-70.118718	113.456487			
14830	11.891499	-0.246900	-3.185188	-0.965146	0.757884	2.439172	173.723874	-70.176193	114.097087			
14831	12.182199	0.668684	-3.300087	-0.141114	0.994923	2.786267	173.034315	-70.267219	114.820683			
14832	11.993031	1.783799	-3.544065	0.969488	1.023602	2.740682	172.187707	-70.376249	115.633583			
14833	11.694414	2.728457	-3.813920	1.932159	0.933866	2.602782	171.126714	-70.473292	116.558238			
14834	11.953189	2.695418	-4.452645	1.969624	0.370053	3.069581	169.838275	-70.502678	117.609149			
14835	12.290430	2.562355	-4.860351	1.812100	0.002064	3.527422	168.389839	-70.504096	118.793560			
14836	11.866453	3.237319	-4.969902	2.454546	-0.080918	3.224195	166.889309	-70.556523	120.025406			
14837	10.807327	3.994711	-5.485746	3.399891	-0.708857	2.466828	165.406605	-70.685449	121.207067			
14838	9.876134	3.224520	-5.528626	2.766517	-1.327394	1.548859	164.075811	-70.837449	122.205111			
14839	8.666141	1.225727	-4.746308	0.826534	-1.604323	-0.021137	163.065713	-70.992899	122.926460			
14840	7.075488	-1.140559	-3.989858	-1.359821	-2.066445	-1.992009	162.604291	-71.103434	123.226689			
14841	5.821999	-2.734272	-3.802207	-2.706402	-2.701359	-3.393440	162.711898	-71.140124	123.137613			
14842	5.542283	-3.619257	-4.008534	-3.434748	-3.217850	-3.670038	163.320207	-71.082014	122.739084			
14843	5.660180	-3.346913	-4.381664	-3.072360	-3.439691	-3.396506	164.226452	-70.976780	122.148471			
14844	6.281765	-2.633408	-4.745435	-2.368799	-3.370148	-2.605386	165.257576	-70.816523	121.463776			
14845	7.693566	-1.963391	-4.961956	-1.877011	-2.934447	-1.121752	166.265844	-70.593221	120.780155			
14846	9.439734	-1.093926	-5.141038	-1.264226	-2.279948	0.672477	167.163081	-70.351759	120.173887			
14847	10.832983	0.008010	-5.312844	-0.372828	-1.635295	2.135802	167.900914	-70.214222	119.714351			
14848	11.243765	1.129696	-4.961031	0.563040	-0.809780	2.489238	168.475951	-70.223774	119.401095			
14849	11.028669	1.835976	-4.609676	1.209844	-0.326268	2.215660	168.888387	-70.367333	119.199949			
14850	10.269496	1.824360	-4.216896	1.252411	-0.217000	1.365739	169.165762	-70.606017	119.066636			
14851	9.299776	1.338322	-3.768495	0.858445	-0.284432	0.269993	169.364862	-70.891794	118.957906			
14852	8.530571	0.653497	-3.568124	0.309553	-0.579792	-0.566226	169.595892	-71.163253	118.797741			
14853	7.986301	-0.030031	-3.464211	-0.249517	-0.889404	-1.156520	169.922337	-71.393657	118.542508			
14854	7.765609	-0.694331	-3.528307	-0.792727	-1.241621	-1.382646	170.396451	-71.552659	118.143774			
14855	7.712279	-1.037236	-3.627731	-1.047110	-1.463681	-1.417650	171.002346	-71.648197	117.620277			
14856	7.793455	-1.079867	-3.725078	-1.036779	-1.538422	-1.307483	171.717773	-71.688300	117.019038			
14857	7.910556	-0.773286	-3.597856	-0.766572	-1.279722	-1.216526	172.504493	-71.703170	116.387852			
14858	7.883310	-0.465684	-3.435863	-0.484009	-1.024474	-1.275438	173.362731	-71.695390	115.720869			
14859	7.879177	-0.101667	-3.341925	-0.130854	-0.800792	-1.292026	174.259560	-71.664350	115.031820			
14860	7.822145	0.335504	-3.254354	0.298464	-0.567427	-1.358215	175.167404	-71.601412	114.324825			
14861	7.824237	0.475635	-3.007769	0.387462	-0.271537	-1.430112	176.040952	-71.525853	113.633688			
14862	7.843142	0.493516	-2.729767	0.345325	0.016297	-1.500623	176.859036	-71.437793	112.971384			
14863	7.992933	0.489764	-2.468381	0.267156	0.319488	-1.443327	177.589156	-71.333854	112.344731			
14864	8.199672	0.586221	-2.365474	0.323104	0.533571	-1.281301	178.234552	-71.212546	111.731965			
14865	8.325343	0.473287	-2.346826	0.216815	0.575977	-1.171849	178.795194	-71.096665	111.129014			
14866	8.354784	0.525456	-2.310695	0.270479	0.660174	-1.157702	179.318814	-70.985080	110.500624			
14867	8.671619	0.309895	-2.491005	0.108531	0.547525	-0.802334	179.804903	-70.873484	109.872771			
14868	8.781997	0.140470	-2.591379	-0.011817	0.459985	-0.666833	-179.704340	-70.768302	109.233622			
14869	8.854194	-0.065709	-2.455400	-0.236122	0.557257	-0.644062	-179.218283	-70.686642	108.608846			
14870	8.938611	-0.280422	-2.244806	-0.491902	0.719949	-0.633570	-178.760940	-70.626673	108.020594			
14871	8.898564	-0.460533	-2.055400	-0.695649	0.831774	-0.732744	-178.363472	-70.599051	107.488259			
14872	8.590424	-0.591846	-1.844071	-0.834925	0.889694	-1.091587	-178.030086	-70.598655	107.015055			
14873	8.217125	-0.691939	-1.648826	-0.936588	0.918221	-1.506172	-177.761527	-70.615393	106.607256			
14874	7.881562	-0.682938	-1.496264	-0.929120	0.954208	-1.872256	-177.552936	-70.630751	106.262133			
14875	7.687805	-0.629086	-1.396043	-0.879974	1.001603	-2.088086	-177.415969	-70.644850	105.980151			
14876	7.634858	-0.471376	-1.257992	-0.759502	1.161331	-2.185745	-177.336810	-70.637591	105.733411			
14877	7.763224	-0.301985	-1.100983	-0.651510	1.400500	-2.119500	-177.323532	-70.613901	105.502019			
14878	7.959794	-0.227169	-1.261481	-0.546028	1.349896	-1.882941	-177.352845	-70.569389	105.268134			
14879	8.244281	-0.186080	-1.660204	-0.412896	1.104343	-1.483882	-177.399833	-70.517827	105.032841			
14880	8.397690	-0.115129	-2.143416	-0.219409	0.751285	-1.180416	-177.448129	-70.445802	104.797533			
14881	8.841687	-0.140443	-2.552446	-0.168217	0.532020	-0.625807	-177.503626	-70.356212	104.560662			
14882	9.560281	-0.087796	-2.884074	-0.090169	0.498543	0.160670	-177.544394	-70.254309	104.304004			
14883	10.468265	0.072163	-2.897865	-0.012788	0.844197	1.016651	-177.621902	-70.172706	104.039592			
14884	11.182440	-0.130521	-2.774993	-0.302753	1.144496	1.648685	-177.770848	-70.129229	103.771095			
14885	11.579872	-0.880768	-2.712712	-1.075304	1.131694	2.010637	-177.928232	-70.145606	103.484306			
14886	11.865717	-1.610418	-2.599808	-1.827334	1.134177	2.250570	-177.993224	-70.215668	103.156065			
14887	11.870329	-2.480523	-2.516684	-2.676241	0.977527	2.240260	-177.905331	-70.351957	102.757371			
14888	11.669825	-3.174394	-2.203624	-3.384999	1.004284	1.962313	-177.655280	-70.542835	102.288577			
14889	11.323378	-3.692962	-1.897088	-3.903129	1.015332	1.553503	-177.289990	-70.784806	101.771666			
14890	11.432304	-3.746159	-2.101262	-3.875261	0.817095	1.739846	-176.863738	-71.043541	101.253657			
14891	11.688734	-2.491067	-2.706798	-2.490741	0.614807	2.169659	-176.414923	-71.280697	100.698814			
14892	12.042615	-1.643822	-3.982550	-1.351636	-0.262689	2.903106	-176.001678	-71.391317	100.103619			
14893	13.381566	-1.313677	-5.219498	-0.781367	-0.902854	4.561228	-175.509229	-71.397517	99.483512			
14894	14.158364	-0.742278	-5.177985	-0.228674	-0.481965	5.271639	-174.801711	-71.445407	98.783901			
14895	12.959086	-0.689918	-4.819851	-0.138144	-0.528039	4.020119	-173.940634	-71.557920	97.996428			
14896	11.592040	-1.404319	-5.442338	-0.556115	-1.712495	2.943654	-173.032305	-71.646765	97.212586			
14897	10.967960	-2.439725	-6.546434	-1.201621	-3.182845	2.738382	-172.116286	-71.726811	96.499417			
14898	10.766370	-2.996752	-6.875169	-1.579080	-3.697342	2.677261	-171.200653	-71.811470	95.847992			
14899	10.368955	-2.113228	-6.181865	-0.807811	-2.984721	2.046269	-170.284463	-71.905298	95.184367			
14900	9.829563	0.395979	-5.313149	1.476030	-1.739531	1.132714	-169.475155	-71.959972	94.526624			
14901	8.780889	2.608389	-4.759888	3.538617	-1.005462	-0.167409	-168.909068	-71.981562	93.925787			
14902	6.982144	3.670366	-4.741547	4.615098	-1.289643	-1.955089	-168.675699	-71.987406	93.489324			
14903	5.584189	4.190622	-4.950967	5.193216	-1.805547	-3.253191	-168.783884	-71.933766	93.280093			
14904	5.560682	4.061351	-5.046792	5.070681	-1.951516	-3.227436	-169.207401	-71.785831	93.311643			
14905	6.626161	3.342802	-5.123459	4.335882	-1.870326	-2.129462	-169.902033	-71.586224	93.541509			
14906	8.183041	2.078722	-5.297410	3.063657	-1.830142	-0.506236	-170.782070	-71.417641	93.923475			
14907	9.247748	0.704734	-5.469747	1.674327	-1.954695	0.642503	-171.724660	-71.359043	94.382815			
14908	9.565991	-0.783657	-5.246357	0.097318	-1.971669	0.945995	-172.623617	-71.407175	94.860473			
14909	9.081908	-2.177733	-4.805208	-1.404283	-2.021664	0.397805	-173.436484	-71.551763	95.336500			
14910	8.150950	-3.012203	-4.248840	-2.352554	-1.988761	-0.643494	-174.141077	-71.724675	95.815787			
14911	7.410916	-3.083726	-3.731186	-2.533697	-1.773929	-1.518940	-174.709317	-71.861397	96.284433			
14912	7.122867	-2.468353	-3.255367	-2.035357	-1.314715	-1.967038	-175.163432	-71.921269	96.738117			
14913	7.530812	-1.449491	-2.903454	-1.137444	-0.668499	-1.719264	-175.568549	-71.920213	97.189986			
14914	8.176511	-0.318714	-2.831293	-0.085741	-0.181598	-1.156315	-175.951038	-71.917256	97.637161			
14915	8.603823	0.560957	-2.826080	0.739292	0.125351	-0.770295	-176.350652	-71.950167	98.092361			
14916	8.752592	1.196852	-2.949069	1.360162	0.173600	-0.600896	-176.799493	-72.026186	98.570875			
14917	8.748406	1.593862	-2.919016	1.722327	0.263193	-0.617042	-177.290504	-72.130513	99.053366			
14918	8.621297	1.653220	-2.884383	1.758277	0.247571	-0.744796	-177.805841	-72.250955	99.537774			
14919	8.324400	1.419834	-2.787290	1.505159	0.177686	-1.050074	-178.313073	-72.387203	100.002737			
14920	8.253980	1.082303	-2.939006	1.189144	-0.078295	-1.065285	-178.786831	-72.531709	100.427633			
14921	8.122137	0.611926	-3.260360	0.781039	-0.536635	-1.090564	-179.215531	-72.661424	100.818032			
14922	7.849802	0.285692	-3.286204	0.467661	-0.726027	-1.341897	-179.570636	-72.759975	101.179578			
14923	7.762546	0.097305	-2.967637	0.215929	-0.505151	-1.519821	-179.852507	-72.819926	101.524802			
14924	7.737074	0.013843	-2.694122	0.073803	-0.281633	-1.625134	179.909178	-72.847848	101.853945			
14925	7.843928	0.015189	-2.487731	0.019593	-0.061351	-1.583952	179.685311	-72.847343	102.181565			
14926	8.067020	0.028644	-2.482906	0.008026	0.010325	-1.372173	179.455627	-72.819372	102.528127			
14927	8.315210	0.076250	-2.485207	0.027813	0.092823	-1.134244	179.222013	-72.773189	102.894983			
14928	8.632294	0.073914	-2.460610	-0.013134	0.212083	-0.838759	178.977532	-72.718256	103.291919			
14929	8.729018	0.155630	-2.438613	0.042248	0.282968	-0.752614	178.744041	-72.674483	103.690333			
14930	8.791371	0.137280	-2.426507	0.004525	0.312453	-0.696914	178.523647	-72.633645	104.088577			
14931	8.766142	0.173771	-2.372368	0.018822	0.367044	-0.736979	178.339168	-72.599041	104.461667			
14932	8.759992	0.176209	-2.175708	-0.029583	0.551827	-0.801760	178.215907	-72.571953	104.794901			
14933	8.744312	0.220703	-1.840577	-0.064019	0.871135	-0.916820	178.175025	-72.554777	105.068614			
14934	8.742339	0.168174	-1.476155	-0.198749	1.197844	-1.028527	178.225822	-72.554849	105.280624			
14935	8.776835	0.188960	-1.146542	-0.255286	1.515922	-1.093748	178.388787	-72.592631	105.409113			
14936	8.753834	0.300082	-0.978628	-0.180110	1.685916	-1.163837	178.664307	-72.654780	105.441603			
14937	8.840714	0.400896	-1.126397	-0.046035	1.591982	-1.034808	179.063539	-72.730514	105.362439			
14938	8.997858	0.805662	-1.472412	0.430605	1.412413	-0.779517	179.540612	-72.815483	105.201710			
14939	8.840074	1.408267	-1.966056	1.165114	1.059961	-0.784152	-179.967000	-72.918988	104.979499			
14940	8.561169	1.875119	-2.430739	1.773617	0.668314	-0.917420	-179.533143	-73.019500	104.748510			
14941	8.286025	2.091602	-2.879823	2.135019	0.230019	-1.053969	-179.179989	-73.090751	104.552033			
14942	8.026245	2.150134	-3.024286	2.262539	0.040896	-1.264634	-178.882444	-73.113652	104.385881			
14943	7.965231	2.111737	-3.042316	2.245860	0.004009	-1.320568	-178.633358	-73.087104	104.235135			
14944	8.110614	1.928725	-2.967284	2.047035	0.077402	-1.203945	-178.449211	-73.013378	104.109152			
14945	8.502269	1.959028	-2.856987	2.021935	0.313749	-0.862712	-178.369093	-72.907823	104.039718			
14946	9.095296	2.101246	-2.472093	2.013624	0.891137	-0.410450	-178.423216	-72.799786	104.034073			
14947	9.762261	1.816526	-1.963040	1.550244	1.485420	0.078991	-178.681666	-72.715296	104.166225			
14948	10.433373	1.341795	-1.537042	0.918142	1.949316	0.597660	-179.099874	-72.661940	104.441591			
14949	10.880281	0.690804	-1.212851	0.151498	2.203216	0.932151	-179.641258	-72.644619	104.864791			
14950	11.153098	0.063502	-1.068908	-0.539359	2.242904	1.151645	179.765577	-72.650342	105.389890			
14951	11.335811	-0.338932	-0.903391	-1.016240	2.330631	1.276357	179.135813	-72.671935	106.005535			
14952	11.375504	-0.300384	-0.716871	-1.063464	2.506837	1.259390	178.490410	-72.721284	106.677720			
14953	11.112614	0.023304	-0.640934	-0.783457	2.563074	0.990933	177.809055	-72.802257	107.420813			
14954	10.791427	0.372817	-0.885058	-0.393518	2.313925	0.764077	177.112980	-72.873858	108.208047			
14955	10.703659	0.781593	-1.639491	0.158942	1.682449	0.911635	176.428472	-72.889474	109.032955			
14956	10.763607	1.255771	-2.274406	0.728612	1.235938	1.166682	175.799586	-72.824863	109.881998			
14957	11.063567	1.695254	-2.766284	1.200813	0.998003	1.610558	175.197967	-72.680915	110.754476			
14958	11.905043	1.878524	-3.060791	1.310708	1.039594	2.509173	174.570912	-72.478997	111.652642			
14959	12.449192	1.453407	-3.394824	0.867106	0.796101	3.119192	173.851942	-72.266196	112.620432			
14960	12.261686	1.057184	-4.646892	0.773197	-0.485493	3.310809	173.055046	-72.027221	113.643770			
14961	12.253648	2.794134	-7.186436	3.040183	-2.266229	4.159600	172.160417	-71.795653	114.693352			
14962	12.748734	5.306590	-9.323984	5.862004	-3.314894	5.427861	171.075102	-71.657131	115.749206			
14963	12.972033	5.615816	-9.233725	5.996410	-3.114215	5.660382	169.707176	-71.651685	116.859610			
14964	12.065142	3.189386	-7.456195	3.231738	-2.535463	4.132216	168.188304	-71.735417	117.981602			
14965	10.367707	-0.077100	-5.795451	-0.157689	-2.493216	1.799411	166.853156	-71.807068	118.994620			
14966	8.349949	-1.719193	-4.951970	-1.691984	-2.772142	-0.504009	165.985289	-71.852936	119.728834			
14967	6.368237	-2.532720	-4.768183	-2.231821	-3.388035	-2.515781	165.625931	-71.899967	120.140115			
14968	5.271026	-3.345817	-4.676518	-2.855260	-3.840172	-3.652446	165.737106	-71.935560	120.198679			
14969	5.076041	-3.780133	-4.438527	-3.278181	-3.803826	-3.935573	166.223769	-71.931682	119.937497			
14970	5.779531	-3.526708	-4.303623	-3.150717	-3.413672	-3.271929	166.993654	-71.841828	119.408628			
14971	7.368199	-2.557117	-4.376518	-2.418878	-2.742582	-1.651183	167.914798	-71.648607	118.732316			
14972	9.230046	-1.131360	-4.663709	-1.232507	-2.024958	0.316677	168.852519	-71.438224	118.050767			
14973	10.235119	0.552708	-4.611013	0.244765	-1.141890	1.365885	169.691016	-71.335531	117.478032			
14974	10.154942	1.964429	-4.198696	1.530272	-0.328545	1.239959	170.436665	-71.360481	116.966717			
14975	9.653094	2.885865	-3.781029	2.406220	0.203889	0.674209	171.077367	-71.464134	116.475176			
14976	9.010326	3.255527	-3.388147	2.777976	0.491268	-0.050241	171.631118	-71.592774	115.965244			
14977	8.446837	2.875230	-3.220033	2.480474	0.359592	-0.663781	172.119912	-71.695772	115.417230			
14978	8.173098	1.997473	-3.337067	1.742412	-0.100428	-0.931285	172.558955	-71.758711	114.847512			
14979	8.219498	0.865422	-3.522604	0.732124	-0.602075	-0.878522	173.005281	-71.786179	114.244943			
14980	8.428151	-0.099048	-3.499548	-0.199225	-0.808208	-0.724374	173.491135	-71.811842	113.590301			
14981	8.453647	-0.927928	-3.500293	-0.971634	-1.041265	-0.727045	174.005847	-71.838570	112.898513			
14982	8.491517	-1.347555	-3.576553	-1.333608	-1.213918	-0.676970	174.561991	-71.870211	112.180951			
14983	8.490332	-1.277490	-3.520394	-1.257215	-1.133141	-0.688750	175.142243	-71.909407	111.461706			
14984	8.386772	-1.089497	-3.502647	-1.043050	-1.084732	-0.783357	175.770326	-71.955866	110.724954			
14985	8.121285	-0.772779	-3.430644	-0.701034	-0.998291	-1.047206	176.427140	-71.995924	109.985431			
14986	7.994804	-0.327313	-3.366188	-0.248241	-0.842222	-1.176472	177.109576	-72.024232	109.239000			
14987	7.806150	0.032392	-3.265900	0.118044	-0.696107	-1.380335	177.773038	-72.037673	108.513644			
14988	7.747308	0.394735	-3.135141	0.463395	-0.483795	-1.472612	178.384008	-72.036434	107.825327			
14989	7.663739	0.639262	-2.997367	0.692230	-0.305296	-1.593604	178.913476	-72.008475	107.184716			
14990	7.681203	0.584287	-3.018988	0.661598	-0.324549	-1.571723	179.361864	-71.947620	106.578010			
14991	7.796952	0.435724	-3.058069	0.532185	-0.353589	-1.450521	179.737013	-71.865376	106.007193			
14992	7.820966	0.090712	-2.996989	0.192338	-0.368787	-1.447004	-179.953993	-71.768535	105.467713			
14993	8.094756	-0.176473	-2.837916	-0.120958	-0.193835	-1.236106	-179.685043	-71.657144	104.957250			
14994	8.481768	-0.354153	-2.682740	-0.354865	0.039901	-0.916883	-179.419519	-71.545973	104.449373			
14995	8.570390	-0.525037	-2.566528	-0.547528	0.149795	-0.868860	-179.190616	-71.450737	103.999172			
14996	8.626286	-0.457524	-2.372925	-0.524858	0.379203	-0.877721	-178.968909	-71.376879	103.587670			
14997	8.534783	-0.385030	-2.193851	-0.481655	0.546655	-1.022186	-178.774186	-71.326832	103.217472			
14998	8.416504	-0.235452	-2.017132	-0.361445	0.718453	-1.192075	-178.635400	-71.293096	102.898749			
14999	8.409726	0.000509	-1.896875	-0.154269	0.891488	-1.239294	-178.575091	-71.258358	102.640818			
15000	8.488527	0.262956	-1.774955	0.070011	1.097152	-1.206523	-178.605684	-71.221147	102.439340			
15001	8.547605	0.474643	-1.633756	0.239601	1.299473	-1.198168	-178.734218	-71.187914	102.293568			
15002	8.680907	0.754701	-1.612886	0.496367	1.427072	-1.080780	-178.929917	-71.158319	102.168191			
15003	8.813095	0.813976	-1.628199	0.544703	1.466616	-0.950601	-179.189382	-71.137472	102.070716			
15004	8.944273	0.626601	-1.731252	0.369915	1.368298	-0.791557	-179.464070	-71.126126	101.983114			
15005	8.924130	0.257991	-2.049098	0.070125	0.985441	-0.706127	-179.718440	-71.124717	101.898283			
15006	8.795810	-0.022948	-2.367667	-0.138644	0.589567	-0.723912	-179.886360	-71.117791	101.775538			
15007	8.913433	-0.084123	-2.557113	-0.174482	0.441383	-0.551481	-179.989087	-71.083239	101.602312			
15008	9.297860	0.126550	-2.630468	0.017582	0.544361	-0.164426	179.943863	-71.031925	101.351104			
15009	9.752370	0.277800	-2.576067	0.124862	0.776422	0.247313	179.860764	-70.982663	101.050345			
15010	10.240722	0.334960	-2.607519	0.156259	0.919672	0.718862	179.789235	-70.949455	100.706883			
15011	10.779041	0.289351	-2.694728	0.095890	1.004300	1.255971	179.726942	-70.948425	100.356656			
15012	11.176491	0.010686	-2.774410	-0.182814	1.004218	1.657688	179.718202	-70.996241	99.970986			
15013	11.362261	-0.308810	-2.576071	-0.528731	1.181593	1.769916	179.761350	-71.106142	99.558093			
15014	11.249342	-0.608273	-2.153373	-0.865138	1.469336	1.529587	179.865113	-71.275533	99.113100			
15015	10.910151	-0.945788	-1.675691	-1.228960	1.727247	1.061134	-179.979462	-71.482883	98.643287			
15016	10.622134	-0.995375	-1.307944	-1.289807	1.945311	0.679369	-179.749774	-71.680953	98.126364			
15017	10.751870	-0.714795	-1.150015	-1.010661	2.149761	0.760540	-179.490940	-71.844724	97.585060			
15018	11.370248	-0.836093	-1.468558	-1.083464	2.002719	1.454671	-179.241347	-71.988737	97.034062			
15019	11.804735	-0.628023	-2.245958	-0.763425	1.413608	2.112467	-178.937680	-72.095852	96.432763			
15020	12.511874	-0.376544	-3.511295	-0.351284	0.461888	3.175044	-178.574883	-72.107206	95.768477			
15021	13.614294	-0.614356	-4.549665	-0.466804	-0.206207	4.545772	-178.149702	-72.099502	95.038546			
15022	13.541638	-1.170608	-4.715736	-0.961430	-0.452909	4.534954	-177.600269	-72.177235	94.246772			
15023	12.150066	-2.021150	-5.105614	-1.685610	-1.358603	3.343647	-176.867526	-72.295077	93.406398			
15024	10.696566	-2.854108	-6.125206	-2.314777	-2.869382	2.290562	-175.834912	-72.328594	92.453798			
15025	10.050975	-3.616451	-7.005427	-2.884754	-3.979664	1.977840	-174.551444	-72.241403	91.388203			
15026	10.002656	-3.652607	-6.987483	-2.831409	-3.967153	1.954370	-173.256096	-72.134402	90.302594			
15027	9.375418	-3.116131	-6.294395	-2.305026	-3.432308	1.147873	-172.191611	-72.106933	89.319952			
15028	8.174615	-1.379881	-5.211306	-0.671425	-2.574927	-0.389051	-171.398696	-72.140065	88.483310			
15029	6.701302	1.169690	-4.133225	1.736732	-1.719998	-2.237431	-170.916240	-72.171677	87.826606			
15030	5.038929	3.178696	-3.470018	3.634456	-1.390450	-4.121178	-170.814101	-72.154004	87.387991			
15031	4.165089	3.983236	-3.520121	4.414670	-1.641178	-4.973005	-171.090402	-72.021438	87.196347			
15032	5.250049	4.107449	-4.161155	4.597959	-1.917521	-3.735590	-171.615938	-71.733785	87.185826			
15033	7.746633	3.439205	-4.981041	4.010893	-1.969708	-1.055866	-172.340152	-71.411301	87.325108			
15034	9.863801	2.018115	-5.282890	2.597077	-1.679152	1.128590	-173.137174	-71.200834	87.540402			
15035	11.127207	0.551185	-5.299214	1.089940	-1.381568	2.398093	-173.910261	-71.162283	87.789818			
15036	11.216012	-1.271993	-5.234492	-0.792155	-1.411780	2.524082	-174.570028	-71.264942	88.027234			
15037	10.574511	-3.162851	-4.905941	-2.757637	-1.433800	1.859140	-175.142351	-71.479400	88.296896			
15038	9.546933	-4.587103	-4.514125	-4.251213	-1.494141	0.782465	-175.636885	-71.746282	88.603649			
15039	8.481037	-5.186957	-4.026830	-4.912441	-1.431652	-0.385811	-176.040028	-71.990381	88.967016			
15040	7.810317	-4.719145	-3.342590	-4.502461	-1.002767	-1.258948	-176.375149	-72.164575	89.389754			
15041	7.826705	-3.662105	-3.032996	-3.477194	-0.681079	-1.368010	-176.724869	-72.271483	89.897499			
15042	8.270947	-2.249982	-3.062797	-2.080361	-0.522520	-0.966744	-177.118550	-72.339777	90.505621			
15043	8.367426	-0.835341	-3.011520	-0.689546	-0.380050	-0.915446	-177.584306	-72.397893	91.228287			
15044	8.429540	0.398191	-2.960952	0.515549	-0.248517	-0.887704	-178.151280	-72.474234	92.080852			
15045	8.187422	1.219324	-2.897526	1.306441	-0.213854	-1.142987	-178.819853	-72.555176	93.050117			
15046	8.021095	1.709078	-2.995616	1.775043	-0.326254	-1.270127	-179.565127	-72.638918	94.108477			
15047	7.673799	1.903433	-3.013861	1.946901	-0.434425	-1.589891	179.629990	-72.710561	95.204235			
15048	7.566613	1.613075	-3.102894	1.636552	-0.577213	-1.659649	178.800599	-72.757000	96.294888			
15049	7.700613	1.158353	-3.052739	1.144244	-0.532377	-1.544215	178.008114	-72.781339	97.345435			
15050	7.774990	0.810936	-2.962940	0.758917	-0.459765	-1.500064	177.305494	-72.792239	98.325374			
15051	7.645315	0.430633	-2.902064	0.354711	-0.478714	-1.645483	176.664699	-72.777362	99.253597			
15052	7.646407	0.178714	-2.854696	0.076376	-0.458485	-1.662063	176.095901	-72.728533	100.122339			
15053	7.809344	0.102038	-2.863147	-0.029182	-0.422609	-1.505197	175.584180	-72.655092	100.948383			
15054	8.027248	0.198941	-2.813111	0.028294	-0.292553	-1.309544	175.113948	-72.567942	101.751814			
15055	8.281427	0.503589	-2.684887	0.279212	-0.048629	-1.096961	174.680129	-72.474364	102.535510			
15056	8.750440	0.890870	-2.563720	0.595680	0.267371	-0.674300	174.291220	-72.376923	103.279450			
15057	9.296089	1.163440	-2.512757	0.797699	0.528694	-0.160284	173.948081	-72.289520	103.980447			
15058	9.625508	1.269105	-2.408631	0.841468	0.752472	0.126538	173.644197	-72.233203	104.641238			
15059	9.743668	1.293429	-2.236251	0.811812	0.961662	0.188761	173.380771	-72.213637	105.260461			
15060	9.657465	1.278267	-2.084403	0.763463	1.078892	0.061442	173.140100	-72.228552	105.848203			
15061	9.374363	1.113578	-1.892462	0.580183	1.146919	-0.270775	172.927604	-72.263393	106.389033			
15062	9.080673	0.958398	-1.666316	0.404476	1.241844	-0.623130	172.743266	-72.307412	106.884256			
15063	8.864718	0.823777	-1.553457	0.261220	1.254707	-0.866597	172.595117	-72.353391	107.332720			
15064	8.729891	0.679266	-1.443956	0.103996	1.285143	-1.032312	172.502629	-72.402647	107.728015			
15065	8.729749	0.564543	-1.232761	-0.051388	1.454948	-1.099054	172.465682	-72.447985	108.079672			
15066	8.824322	0.379881	-1.212861	-0.250890	1.458188	-1.020945	172.500663	-72.495736	108.385019			
15067	8.914393	0.302127	-1.195383	-0.342366	1.476471	-0.941981	172.595044	-72.554923	108.664122			
15068	8.976543	0.155235	-1.179128	-0.496032	1.468693	-0.891385	172.742953	-72.633458	108.916897			
15069	8.875568	0.075247	-1.153635	-0.567531	1.433027	-0.995853	172.935138	-72.735880	109.145905			
15070	8.673105	0.029005	-1.161864	-0.586420	1.341523	-1.185410	173.184515	-72.858413	109.332336			
15071	8.440864	0.083815	-1.225732	-0.489821	1.211718	-1.383606	173.468096	-72.985686	109.490210			
15072	8.247742	0.360989	-1.374144	-0.160381	1.068599	-1.513520	173.795867	-73.100875	109.596827			
15073	8.019713	0.814144	-1.707411	0.385227	0.794764	-1.620385	174.123058	-73.176357	109.674271			
15074	8.125281	1.193561	-2.041528	0.828236	0.607104	-1.412804	174.452751	-73.191088	109.736842			
15075	8.402965	1.674969	-2.097275	1.288855	0.764852	-1.119718	174.818995	-73.149606	109.773284			
15076	9.093446	2.262076	-1.995564	1.771580	1.221423	-0.476757	175.219180	-73.086337	109.760815			
15077	9.847034	2.841587	-1.995909	2.263146	1.607757	0.252875	175.620541	-73.026559	109.700906			
15078	10.663363	3.149247	-2.087314	2.508698	1.856204	1.061265	175.947920	-72.999703	109.660393			
15079	11.180014	3.488112	-2.171938	2.810860	2.029404	1.582817	176.150271	-73.021855	109.692634			
15080	11.408277	3.609162	-2.324147	2.946243	1.990376	1.846410	176.182671	-73.075714	109.831846			
15081	11.711930	3.228534	-2.843216	2.681328	1.484195	2.282115	175.999872	-73.134106	110.125370			
15082	12.095056	2.531093	-3.680239	2.178909	0.613819	2.880481	175.647536	-73.152055	110.566585			
15083	12.766398	2.045453	-4.496118	1.827680	-0.094124	3.753095	175.055147	-73.080163	111.192669			
15084	13.645186	1.636566	-5.063755	1.433390	-0.495024	4.754773	174.085134	-72.988239	112.065739			
15085	13.643761	1.327031	-4.990595	1.030609	-0.534897	4.729325	172.737363	-72.950487	113.203734			
15086	12.722136	1.140928	-4.791631	0.806073	-0.688892	3.788371	171.163971	-72.924046	114.492777			
15087	11.950072	0.978066	-5.550713	0.824783	-1.678689	3.266755	169.530139	-72.843995	115.806343			
15088	12.096756	1.641678	-6.836900	1.641122	-2.682048	3.821161	167.956707	-72.731918	117.067639			
15089	12.589931	2.180564	-7.259815	2.074781	-2.835248	4.456916	166.511773	-72.649253	118.228417			
15090	12.387457	1.015261	-6.275134	0.653988	-2.328346	3.898894	165.254620	-72.688469	119.237061			
15091	10.487838	-0.501055	-5.198981	-0.834418	-2.268793	1.651657	164.338368	-72.846548	120.024118			
15092	8.288411	-2.231709	-4.879977	-2.264652	-3.023893	-0.690201	163.964835	-73.003936	120.465153			
15093	6.671888	-3.739744	-4.675906	-3.507287	-3.660554	-2.419242	164.171734	-73.102629	120.520488			
15094	5.456625	-4.708870	-4.556925	-4.247426	-4.131629	-3.680599	164.889580	-73.132418	120.237851			
15095	5.287850	-4.861832	-4.401469	-4.351118	-4.089423	-3.869991	165.993865	-73.058315	119.694827			
15096	6.470563	-4.008894	-4.392063	-3.642817	-3.548058	-2.645379	167.315928	-72.891314	119.004033			
15097	8.297511	-2.485707	-4.507142	-2.351384	-2.722892	-0.735350	168.668206	-72.689850	118.285465			
15098	10.067254	-0.949578	-4.692311	-1.022206	-1.927517	1.119298	169.854864	-72.534907	117.682066			
15099	10.971278	0.680227	-4.480946	0.400303	-0.948239	2.013164	170.810523	-72.495934	117.218607			
15100	10.730886	2.258020	-4.084042	1.865727	-0.125176	1.738639	171.544511	-72.573598	116.858020			
15101	9.934391	3.193865	-3.729223	2.795706	0.297579	0.906237	172.104768	-72.689866	116.571475			
15102	9.249515	3.238427	-3.264479	2.822474	0.555158	0.108155	172.582524	-72.807857	116.281828			
15103	8.649155	2.513611	-2.889027	2.131076	0.497900	-0.610343	173.062427	-72.910086	115.901125			
15104	7.949134	1.551125	-2.806602	1.314748	0.067467	-1.342826	173.587756	-73.009879	115.404028			
15105	7.741581	0.584605	-3.149167	0.560686	-0.617033	-1.476266	174.190054	-73.072257	114.798648			
15106	8.019408	-0.145149	-3.610559	0.008222	-1.196520	-1.098544	174.899403	-73.099674	114.098053			
15107	8.284854	-0.545910	-3.772220	-0.320446	-1.393933	-0.805988	175.670332	-73.117380	113.349144			
15108	8.565379	-0.868328	-3.736785	-0.633243	-1.381184	-0.551236	176.487390	-73.135383	112.564468			
15109	8.543661	-0.998645	-3.327593	-0.842993	-1.049498	-0.688429	177.330848	-73.185524	111.769982			
15110	8.344395	-1.099981	-3.053544	-0.962516	-0.884075	-0.955213	178.188692	-73.268471	110.977099			
15111	8.244915	-1.009082	-3.030562	-0.833062	-0.859576	-1.052084	179.039334	-73.361219	110.206255			
15112	8.007256	-0.836988	-2.965764	-0.628342	-0.810397	-1.294426	179.831794	-73.467079	109.491966			
15113	7.796062	-0.713972	-2.901413	-0.477511	-0.772625	-1.513201	-179.467143	-73.573228	108.857208			
15114	7.445926	-0.571155	-2.848493	-0.297800	-0.775058	-1.863318	-178.848708	-73.648523	108.299842			
15115	7.399167	-0.429941	-2.678835	-0.190673	-0.586653	-1.955963	-178.295001	-73.673911	107.798166			
15116	7.530632	-0.337398	-2.531040	-0.142355	-0.381981	-1.871389	-177.803587	-73.663677	107.336983			
15117	7.770785	-0.315342	-2.488658	-0.138820	-0.262916	-1.652446	-177.360377	-73.624872	106.901351			
15118	8.152589	-0.405239	-2.533337	-0.225643	-0.218662	-1.271730	-176.949100	-73.570808	106.480176			
15119	8.568401	-0.589213	-2.551764	-0.412596	-0.170269	-0.864117	-176.559310	-73.512984	106.070982			
15120	8.764006	-0.748939	-2.577610	-0.556513	-0.179979	-0.665521	-176.195257	-73.459671	105.689400			
15121	8.834218	-0.777185	-2.543468	-0.586617	-0.126734	-0.606361	-175.861326	-73.411944	105.340574			
15122	8.923662	-0.698275	-2.541068	-0.508033	-0.063205	-0.522141	-175.587192	-73.371576	105.062512			
15123	8.946314	-0.439806	-2.479739	-0.276044	0.092699	-0.523217	-175.362561	-73.339372	104.834949			
15124	8.858370	-0.258328	-2.355045	-0.130687	0.246848	-0.647227	-175.194173	-73.322251	104.654708			
15125	8.709709	-0.110178	-2.126590	-0.048253	0.463897	-0.858581	-175.097411	-73.318074	104.526714			
15126	8.594700	-0.042602	-1.982891	-0.019267	0.584699	-1.011534	-175.065462	-73.319539	104.443871			
15127	8.459221	-0.024206	-1.817480	-0.044836	0.702548	-1.189077	-175.104638	-73.317724	104.405512			
15128	8.344295	-0.070254	-1.711350	-0.116332	0.751159	-1.328400	-175.222693	-73.311354	104.421129			
15129	8.227886	-0.179398	-1.655202	-0.234377	0.735159	-1.453585	-175.397517	-73.285576	104.484051			
15130	8.338684	-0.245181	-1.588990	-0.333229	0.807120	-1.365430	-175.618691	-73.252078	104.590759			
15131	8.502349	-0.255192	-1.424693	-0.415857	1.000917	-1.256401	-175.884967	-73.222194	104.731927			
15132	8.588582	-0.167267	-1.264606	-0.399061	1.198973	-1.222335	-176.180095	-73.207431	104.885452			
15133	8.503585	-0.063780	-1.230316	-0.315565	1.238626	-1.315928	-176.495137	-73.196733	105.037837			
15134	8.429653	0.035396	-1.337570	-0.193199	1.151266	-1.357709	-176.809612	-73.177420	105.169005			
15135	8.475134	0.165695	-1.538421	-0.022745	1.023547	-1.258512	-177.121857	-73.136827	105.283697			
15136	8.547039	0.275563	-1.738878	0.125045	0.899216	-1.133559	-177.411465	-73.075278	105.356451			
15137	8.744552	0.384855	-1.907096	0.251519	0.842130	-0.897540	-177.698437	-72.987406	105.399737			
15138	9.025246	0.520209	-2.076360	0.394888	0.817951	-0.581656	-177.988696	-72.880554	105.410573			
15139	9.397024	0.531331	-2.160304	0.384974	0.862464	-0.202214	-178.329942	-72.758352	105.425137			
15140	9.832015	0.375365	-2.212112	0.198352	0.907071	0.229259	-178.702987	-72.640711	105.431880			
15141	10.209745	0.032839	-2.253568	-0.167175	0.892685	0.603342	-179.082385	-72.543486	105.425485			
15142	10.437304	-0.394715	-2.315885	-0.596811	0.792897	0.839615	-179.430905	-72.477242	105.399437			
15143	10.513804	-0.817583	-2.300903	-1.028906	0.722456	0.907483	-179.724516	-72.437047	105.338062			
15144	10.464158	-1.230964	-2.159455	-1.470453	0.734382	0.816309	-179.948529	-72.427315	105.237752			
15145	10.393917	-1.497467	-1.855264	-1.804009	0.929868	0.656258	179.915808	-72.430633	105.084014			
15146	10.288131	-1.469557	-1.425929	-1.874921	1.307825	0.425124	179.834719	-72.436599	104.908337			
15147	10.327084	-1.369125	-0.932656	-1.897149	1.805877	0.313153	179.782590	-72.440257	104.724002			
15148	10.303146	-1.305411	-0.611702	-1.904963	2.117015	0.193434	179.730197	-72.446491	104.557268			
15149	10.476626	-1.486714	-0.746726	-2.057185	2.004913	0.398871	179.688466	-72.436561	104.403101			
15150	11.032882	-1.693343	-1.208565	-2.188338	1.703020	1.066807	179.708182	-72.377419	104.207466			
15151	12.046863	-2.023980	-2.006832	-2.397849	1.207170	2.272169	179.808751	-72.267337	103.935170			
15152	12.837519	-2.107124	-2.878109	-2.332540	0.647624	3.289416	-179.994320	-72.162464	103.568073			
15153	12.839657	-1.737330	-3.484415	-1.822948	0.203996	3.478340	-179.664319	-72.095243	103.081436			
15154	12.084217	-1.716793	-3.876259	-1.641989	-0.360054	2.882793	-179.279810	-72.078377	102.555463			
15155	11.079651	-1.900584	-4.303664	-1.635034	-1.087730	2.063164	-178.830338	-72.071643	102.049618			
15156	10.756486	-1.922083	-4.700410	-1.517015	-1.542967	1.883809	-178.211849	-72.010405	101.506603			
15157	10.764304	-1.878194	-5.517165	-1.247343	-2.257094	2.153356	-177.297305	-71.856580	100.797243			
15158	10.569035	-2.925115	-6.602026	-1.939708	-3.513250	2.342197	-176.083539	-71.620775	99.881335			
15159	10.055800	-4.392765	-7.864405	-2.945991	-5.122859	2.325686	-174.579620	-71.335914	98.779336			
15160	9.551233	-4.373955	-8.394628	-2.644763	-5.707856	2.072203	-172.883968	-71.055697	97.597109			
15161	9.016938	-2.294938	-7.296225	-0.742085	-4.307245	1.173760	-171.208965	-70.807984	96.438365			
15162	8.154106	0.643291	-5.322616	1.727714	-1.993598	-0.417300	-169.812410	-70.612329	95.435062			
15163	6.500448	3.007606	-3.667291	3.682185	-0.384661	-2.668188	-168.884527	-70.465709	94.700091			
15164	5.573143	3.842074	-3.313792	4.440711	-0.130929	-3.724537	-168.536517	-70.286242	94.348254			
15165	6.726363	3.559688	-4.067361	4.341863	-0.480212	-2.371159	-168.685128	-70.062854	94.357906			
15166	8.691957	2.722354	-4.843174	3.668443	-0.714823	-0.197642	-169.187649	-69.900516	94.623411			
15167	10.340974	2.028304	-5.504321	3.082891	-0.921996	1.632519	-169.889260	-69.850471	95.052784			
15168	11.396367	1.225067	-5.805157	2.295115	-1.050105	2.785216	-170.662767	-69.905522	95.564079			
15169	11.552516	-0.221630	-5.459895	0.744226	-1.078676	2.899602	-171.444986	-70.088753	96.143162			
15170	10.822354	-2.225527	-4.930556	-1.353788	-1.397022	2.128904	-172.235213	-70.421784	96.821449			
15171	9.417806	-3.837030	-4.403998	-3.029836	-1.853801	0.684736	-172.983452	-70.804326	97.581035			
15172	8.105597	-4.541754	-3.919580	-3.800218	-2.085096	-0.707656	-173.602876	-71.124210	98.362038			
15173	7.435402	-4.489430	-3.435265	-3.849273	-1.905515	-1.518530	-174.060141	-71.340612	99.116899			
15174	7.164156	-3.574137	-3.087872	-3.041748	-1.489535	-1.928308	-174.402538	-71.469968	99.844547			
15175	7.024177	-2.465790	-2.927158	-2.007973	-1.130780	-2.152612	-174.702897	-71.533270	100.579314			
15176	7.212310	-1.029602	-2.971681	-0.629096	-0.745285	-2.005181	-175.029157	-71.554445	101.372117			
15177	7.354007	0.039426	-3.001527	0.385997	-0.436737	-1.891047	-175.455268	-71.538062	102.265857			
15178	7.710893	0.780678	-3.153655	1.094934	-0.247878	-1.520976	-176.014723	-71.501361	103.269041			
15179	7.985174	1.271290	-3.266480	1.547650	-0.113123	-1.231257	-176.721121	-71.475038	104.384210			
15180	8.277165	1.378646	-3.344395	1.613908	-0.056200	-0.925105	-177.535175	-71.467367	105.580109			
15181	8.616638	1.005894	-3.483846	1.232010	-0.194947	-0.547729	-178.406153	-71.492359	106.805444			
15182	8.862587	0.601628	-3.486734	0.786856	-0.263120	-0.306048	-179.278782	-71.556040	108.024857			
15183	8.971348	0.233162	-3.495433	0.393598	-0.379195	-0.197146	179.887842	-71.657182	109.212604			
15184	8.717767	-0.176868	-3.248431	-0.074474	-0.398120	-0.516513	179.120347	-71.789985	110.359220			
15185	8.526966	-0.181494	-2.971630	-0.169916	-0.240860	-0.785747	178.433328	-71.921829	111.465514			
15186	8.483933	0.066608	-2.800405	-0.007857	-0.046068	-0.878397	177.834005	-72.042108	112.507614			
15187	8.332299	0.472159	-2.583344	0.299929	0.221768	-1.084308	177.322174	-72.141614	113.468487			
15188	8.249941	0.846615	-2.281020	0.539480	0.584584	-1.248313	176.875958	-72.207272	114.357101			
15189	8.333890	1.058227	-2.070776	0.634333	0.862559	-1.226928	176.516231	-72.238255	115.150239			
15190	8.534656	1.113203	-1.997953	0.614379	0.998185	-1.054975	176.217274	-72.251527	115.868189			
15191	8.680480	1.036855	-2.024721	0.515777	0.982466	-0.907969	175.963273	-72.263686	116.516851			
15192	8.565022	0.832105	-1.963228	0.304874	0.921151	-1.039730	175.729276	-72.291713	117.128860			
15193	8.455563	0.675886	-1.838578	0.117523	0.932514	-1.184227	175.515199	-72.326849	117.695316			
15194	8.289303	0.419576	-1.764946	-0.132948	0.841654	-1.370084	175.317414	-72.359017	118.225880			
15195	8.196724	0.141501	-1.706811	-0.405590	0.746501	-1.482157	175.153397	-72.389784	118.712788			
15196	8.387711	-0.063751	-1.688156	-0.635259	0.719878	-1.310579	175.047542	-72.417940	119.153088			
15197	8.608402	-0.169417	-1.561928	-0.817523	0.834244	-1.140399	175.025897	-72.457798	119.530099			
15198	8.831322	-0.069754	-1.389584	-0.829062	1.072977	-0.975866	175.101307	-72.517476	119.823423			
15199	8.870022	0.121330	-1.373653	-0.665789	1.167130	-0.937246	175.250546	-72.590024	120.045622			
15200	8.956593	0.479094	-1.496281	-0.300823	1.227886	-0.807648	175.446221	-72.673948	120.213031			
15201	8.923478	0.992835	-1.657975	0.240486	1.296198	-0.778027	175.654264	-72.772843	120.349021			
15202	8.758523	1.574083	-1.989281	0.934004	1.219025	-0.824456	175.853140	-72.885766	120.452752			
15203	8.506544	1.789812	-2.415076	1.354360	0.881818	-0.936573	176.031716	-72.980553	120.543339			
15204	8.506405	1.821344	-2.813278	1.561597	0.554945	-0.821347	176.203921	-73.039387	120.624340			
15205	8.754531	1.936960	-2.935877	1.688747	0.570259	-0.547920	176.396495	-73.065679	120.673294			
15206	9.257958	2.093630	-2.648101	1.635740	1.020169	-0.148883	176.572290	-73.094251	120.689175			
15207	9.731509	2.208074	-2.245175	1.497514	1.536513	0.188075	176.675218	-73.142447	120.703567			
15208	10.391651	2.036818	-2.034387	1.159567	1.796282	0.756255	176.647510	-73.197890	120.786644			
15209	11.055744	1.801687	-1.856270	0.774915	1.991678	1.338725	176.487702	-73.270589	120.979275			
15210	11.340492	1.636306	-1.335139	0.355109	2.405983	1.463478	176.201601	-73.395932	121.283411			
15211	11.164985	1.867747	-0.899693	0.393085	2.805870	1.184004	175.783395	-73.577357	121.670505			
15212	10.847680	1.882861	-0.841641	0.426901	2.740769	0.875222	175.205102	-73.779900	122.141441			
15213	10.799658	1.155895	-1.520090	0.080614	1.766446	1.011007	174.507546	-73.941472	122.693254			
15214	11.308648	0.344711	-2.469151	-0.320711	0.660111	1.744229	173.768257	-73.994935	123.337204			
15215	12.239946	0.072709	-2.926883	-0.542082	0.334801	2.756405	172.996174	-73.925892	124.077174			
15216	13.235082	0.461003	-2.725631	-0.494700	0.900605	3.668886	172.068940	-73.818120	124.959575			
15217	13.046158	0.529605	-2.844554	-0.420881	0.768653	3.521695	170.937603	-73.716162	125.993827			
15218	12.072273	0.490703	-4.178392	0.200214	-0.637142	2.954179	169.713431	-73.561140	127.111141			
15219	11.388918	1.673280	-6.416299	2.233046	-2.191590	2.989104	168.463654	-73.340735	128.227356			
15220	11.723060	3.024897	-8.150285	4.005499	-3.013656	3.894245	167.161461	-73.124560	129.309426			
15221	11.818642	2.864569	-8.169652	3.742859	-3.122700	4.002801	165.738819	-72.991859	130.434892			
15222	10.620133	1.384291	-7.373816	2.222765	-3.420954	2.533653	164.323580	-72.918233	131.579241			
15223	9.115584	-0.551343	-6.388108	0.310531	-3.802695	0.658627	163.136416	-72.840021	132.620195			
15224	7.661215	-2.015663	-5.666863	-1.043547	-4.168228	-1.071566	162.301529	-72.779898	133.484907			
15225	5.883975	-3.220091	-5.057018	-2.015259	-4.572462	-3.060290	161.888452	-72.737704	134.085120			
15226	5.194965	-3.988347	-4.676993	-2.699699	-4.743872	-3.898629	161.954888	-72.658829	134.321155			
15227	5.998150	-3.930570	-4.608613	-2.819274	-4.487273	-3.135676	162.459828	-72.518838	134.190911			
15228	7.759751	-3.011857	-4.799670	-2.265150	-3.832619	-1.297891	163.301644	-72.340666	133.751237			
15229	9.602737	-1.815338	-5.053753	-1.453647	-3.051524	0.657423	164.261892	-72.191330	133.195599			
15230	10.558548	-0.503578	-5.264999	-0.368183	-2.355718	1.753272	165.142263	-72.126212	132.720917			
15231	10.708463	0.854147	-4.989742	0.715604	-1.402051	1.926996	165.887931	-72.146179	132.378225			
15232	10.365133	2.129765	-4.196356	1.593177	-0.165750	1.457424	166.534340	-72.236553	132.090122			
15233	9.717568	2.835157	-3.541330	2.084366	0.600872	0.689908	167.068883	-72.361764	131.821459			
15234	8.956722	3.000500	-3.117549	2.222679	0.875411	-0.156691	167.549567	-72.493490	131.524364			
15235	8.457519	2.514018	-2.810974	1.789268	0.787078	-0.761144	168.052138	-72.595255	131.147970			
15236	8.266795	1.764043	-2.693744	1.149662	0.479600	-1.028827	168.617457	-72.664606	130.669697			
15237	8.291683	0.953670	-2.736613	0.488907	0.059514	-1.042973	169.263027	-72.709993	130.073256			
15238	8.295770	0.172907	-2.812974	-0.125657	-0.376475	-1.060264	169.956343	-72.748569	129.389296			
15239	8.196839	-0.419134	-2.876757	-0.563049	-0.729070	-1.164513	170.700517	-72.772956	128.629738			
15240	8.152052	-1.023989	-2.873859	-1.053357	-1.016948	-1.232494	171.478799	-72.781580	127.835798			
15241	8.346150	-1.139710	-2.793552	-1.197652	-0.940262	-1.069546	172.293028	-72.794064	127.042278			
15242	8.489775	-1.034303	-2.720881	-1.132987	-0.774009	-0.943281	173.135590	-72.833418	126.244649			
15243	8.407831	-0.784449	-2.793566	-0.832145	-0.714870	-0.986173	173.967882	-72.903120	125.465909			
15244	8.388503	-0.473900	-2.972730	-0.437933	-0.703627	-0.939037	174.790857	-72.987903	124.704826			
15245	8.195507	-0.209539	-3.120433	-0.069540	-0.732042	-1.071607	175.591584	-73.070917	123.969228			
15246	7.829388	0.039346	-2.896889	0.135919	-0.501051	-1.480628	176.354877	-73.138913	123.258267			
15247	7.799058	0.150096	-2.636766	0.144814	-0.225022	-1.582944	177.098831	-73.168707	122.537552			
15248	7.863024	0.253864	-2.464883	0.170129	-0.000139	-1.570222	177.798831	-73.161869	121.823317			
15249	8.054902	0.234137	-2.294030	0.065354	0.198523	-1.436824	178.467673	-73.109299	121.118241			
15250	8.301463	0.135614	-2.225871	-0.070330	0.289679	-1.222097	179.070323	-73.038908	120.438475			
15251	8.551379	-0.034907	-2.196433	-0.252873	0.316696	-0.992976	179.622019	-72.952458	119.786456			
15252	8.878355	-0.251590	-2.280880	-0.435045	0.247100	-0.656241	-179.898503	-72.868158	119.193238			
15253	9.100829	-0.333636	-2.264317	-0.532673	0.300227	-0.448415	-179.469612	-72.804487	118.649996			
15254	9.098357	-0.367027	-2.212687	-0.571296	0.343081	-0.465673	-179.095536	-72.779530	118.169157			
15255	8.866612	-0.312067	-2.084730	-0.535238	0.425831	-0.724648	-178.771770	-72.796440	117.744133			
15256	8.636356	-0.266649	-1.892857	-0.537495	0.550736	-1.000853	-178.509810	-72.841984	117.379272			
15257	8.483156	-0.030330	-1.686523	-0.391006	0.795770	-1.209022	-178.315892	-72.900562	117.081669			
15258	8.174156	0.307449	-1.425961	-0.160972	1.090674	-1.582911	-178.184203	-72.967183	116.822107			
15259	8.038956	0.597632	-1.246635	0.039967	1.338629	-1.766412	-178.127670	-73.024172	116.607682			
15260	8.036955	0.784988	-1.223319	0.202901	1.440245	-1.775905	-178.127145	-73.071931	116.423637			
15261	8.053878	0.910584	-1.092257	0.258258	1.608156	-1.798058	-178.192863	-73.102801	116.277618			
15262	8.269588	0.794240	-1.069452	0.121667	1.623363	-1.596209	-178.322254	-73.119122	116.163225			
15263	8.493341	0.584756	-1.184720	-0.039209	1.482318	-1.346074	-178.505399	-73.123179	116.074538			
15264	8.606757	0.251680	-1.170956	-0.355906	1.366868	-1.238555	-178.711541	-73.119707	115.986142			
15265	8.733673	-0.086258	-1.245327	-0.642056	1.182374	-1.093451	-178.913091	-73.102767	115.874467			
15266	8.860084	-0.288807	-1.403775	-0.773570	0.992038	-0.926038	-179.107723	-73.069544	115.742219			
15267	9.154769	-0.257443	-1.535238	-0.731607	0.977983	-0.607183	-179.298427	-73.014127	115.571830			
15268	9.521375	-0.110948	-1.762023	-0.557366	0.953872	-0.192236	-179.523409	-72.946192	115.386744			
15269	9.869338	-0.101891	-2.174102	-0.431479	0.705221	0.259919	-179.787722	-72.869236	115.206021			
15270	10.239917	-0.311558	-2.506837	-0.545215	0.436142	0.711080	179.930128	-72.799546	115.048498			
15271	10.495478	-0.750713	-2.597661	-0.953628	0.248337	0.980615	179.674204	-72.765449	114.899721			
15272	10.754988	-1.312540	-2.442874	-1.569564	0.223398	1.180343	179.469400	-72.773697	114.749107			
15273	11.014431	-1.811769	-2.129006	-2.184231	0.363084	1.333172	179.346810	-72.824910	114.564335			
15274	11.168325	-2.157262	-1.655405	-2.698311	0.674295	1.340342	179.285435	-72.924035	114.359837			
15275	11.185701	-2.328728	-1.139494	-3.043277	1.053647	1.208637	179.300841	-73.055510	114.109975			
15276	11.184547	-2.482095	-0.935712	-3.243699	1.159833	1.153788	179.370407	-73.205537	113.827236			
15277	11.129521	-2.279175	-1.223843	-2.921270	0.962175	1.191812	179.558237	-73.327231	113.443246			
15278	11.553515	-1.944754	-2.064733	-2.325070	0.462666	1.845307	179.877251	-73.373407	112.946221			
15279	12.264678	-1.409581	-3.022405	-1.531541	0.027321	2.804671	-179.641541	-73.336148	112.297837			
15280	12.925286	-1.169298	-3.601979	-1.139082	-0.188859	3.606373	-179.027852	-73.274955	111.507942			
15281	12.976162	-1.043472	-3.740977	-0.937770	-0.221602	3.697893	-178.269673	-73.262357	110.601610			
15282	11.822800	-0.714186	-3.927942	-0.397834	-0.554540	2.647303	-177.368720	-73.295898	109.597465			
15283	10.673995	-0.261086	-4.526635	0.402513	-1.207818	1.714310	-176.404565	-73.275280	108.582653			
15284	10.256624	-0.608966	-5.455045	0.504764	-2.244794	1.590492	-175.382319	-73.166612	107.564744			
15285	10.483457	-2.170504	-6.615969	-0.486495	-3.747342	2.191695	-174.240096	-72.990588	106.502063			
15286	10.746212	-3.664464	-7.604368	-1.460211	-5.048140	2.801545	-172.911609	-72.791165	105.372755			
15287	10.687114	-3.406191	-7.556140	-1.142331	-4.863767	2.755105	-171.429527	-72.603317	104.168001			
15288	10.246053	-1.732014	-6.512457	0.139633	-3.381353	1.974577	-169.984743	-72.436250	102.960728			
15289	9.225467	0.498765	-5.294574	1.879853	-1.716124	0.527098	-168.751385	-72.327491	101.845537			
15290	7.603584	2.442973	-4.333254	3.453637	-0.591054	-1.429214	-167.924299	-72.291351	100.963679			
15291	6.067164	3.225019	-4.009914	4.162570	-0.472636	-3.049535	-167.560447	-72.299573	100.387419			
15292	5.809931	3.353143	-3.953155	4.275219	-0.468050	-3.321948	-167.681751	-72.253353	100.204681			
15293	7.252723	3.175795	-4.237136	4.122921	-0.366064	-1.843470	-168.188027	-72.145809	100.354895			
15294	9.231687	2.715326	-4.574057	3.675679	-0.249342	0.184614	-168.951110	-72.062047	100.731091			
15295	10.727843	1.973230	-4.766424	2.920306	-0.258320	1.724375	-169.805565	-72.073232	101.161125			
15296	11.178413	0.674023	-4.902829	1.677146	-0.746464	2.273606	-170.627924	-72.209203	101.534533			
15297	10.341707	-1.031337	-4.815238	0.052690	-1.571222	1.533195	-171.431373	-72.480622	101.912496			
15298	8.850834	-2.369528	-4.295053	-1.329426	-2.065799	0.003834	-172.193277	-72.817753	102.323293			
15299	7.679319	-3.021390	-3.513953	-2.161843	-1.973223	-1.334408	-172.863566	-73.107280	102.748890			
15300	6.989836	-3.076167	-2.980057	-2.369121	-1.739625	-2.160091	-173.449950	-73.297183	103.183825			
15301	6.731749	-2.620139	-2.710172	-2.029742	-1.435649	-2.508879	-173.968873	-73.382330	103.627880			
15302	7.158594	-1.876323	-2.809194	-1.342730	-1.168073	-2.099693	-174.460710	-73.380086	104.106036			
15303	7.698891	-0.985210	-2.971215	-0.507185	-0.868558	-1.562838	-174.956810	-73.316618	104.640377			
15304	8.077983	-0.154367	-2.998895	0.234408	-0.505965	-1.212686	-175.484538	-73.225062	105.237930			
15305	8.289547	0.416669	-2.987761	0.726038	-0.238042	-1.024454	-176.076624	-73.135981	105.917386			
15306	8.464523	0.692878	-3.113061	0.983259	-0.204084	-0.823202	-176.740532	-73.075131	106.662267			
15307	8.419804	0.847611	-3.107874	1.098999	-0.158810	-0.866330	-177.449263	-73.034328	107.439238			
15308	8.432475	0.681767	-3.050214	0.890275	-0.163524	-0.865295	-178.188575	-73.010951	108.235646			
15309	8.371828	0.359592	-3.125656	0.586115	-0.364759	-0.895856	-178.902760	-73.002840	109.017748			
15310	8.269108	0.025452	-3.234983	0.288668	-0.615779	-0.959365	-179.604722	-73.010923	109.800984			
15311	8.183949	-0.248015	-3.264018	0.023192	-0.771443	-1.032220	179.729286	-73.029604	110.557883			
15312	8.130401	-0.297351	-3.087355	-0.100268	-0.658316	-1.136277	179.103377	-73.057026	111.285558			
15313	8.101116	-0.061073	-2.833102	0.017910	-0.368697	-1.238192	178.536525	-73.080035	111.987639			
15314	8.148357	0.233868	-2.535981	0.168717	0.003645	-1.277285	178.013868	-73.081685	112.665605			
15315	8.376032	0.651964	-2.492327	0.498179	0.246716	-1.067084	177.544195	-73.056038	113.312104			
15316	8.677144	1.117211	-2.467462	0.867411	0.515148	-0.778777	177.119404	-73.012209	113.916844			
15317	8.970393	1.412600	-2.499607	1.096360	0.675115	-0.482436	176.738459	-72.947462	114.460442			
15318	9.194756	1.547724	-2.380795	1.131853	0.895068	-0.298230	176.393495	-72.891029	114.943386			
15319	9.369382	1.459177	-2.235259	0.957286	1.042200	-0.173793	176.087347	-72.852931	115.373598			
15320	9.305762	1.297042	-2.071109	0.740631	1.110791	-0.284487	175.811206	-72.845042	115.761819			
15321	9.098625	1.058662	-1.972942	0.497864	1.051099	-0.515077	175.566130	-72.848401	116.106184			
15322	8.932917	0.747672	-1.897083	0.193327	0.953491	-0.701792	175.357462	-72.861062	116.410879			
15323	8.703031	0.456352	-1.844090	-0.073608	0.825507	-0.943370	175.198156	-72.875748	116.674937			
15324	8.527727	0.191887	-1.737478	-0.339186	0.769444	-1.148354	175.087623	-72.889051	116.912146			
15325	8.507976	-0.065118	-1.647346	-0.610509	0.743426	-1.200009	175.054271	-72.893594	117.098095			
15326	8.515435	-0.241493	-1.506398	-0.826526	0.800226	-1.238500	175.096527	-72.902044	117.240207			
15327	8.676880	-0.288530	-1.391522	-0.931924	0.923648	-1.118654	175.224224	-72.913860	117.326221			
15328	8.792106	-0.074558	-1.334068	-0.766754	1.085260	-1.019467	175.444966	-72.935777	117.339949			
15329	8.774287	0.440757	-1.408095	-0.255377	1.216239	-1.002429	175.730772	-72.966176	117.286274			
15330	8.688274	1.082814	-1.695898	0.462454	1.195431	-0.987058	176.037049	-72.992984	117.186680			
15331	8.590762	1.499408	-2.052708	1.000742	1.028503	-0.969401	176.338007	-72.990120	117.078002			
15332	8.626811	1.645310	-2.282448	1.223921	0.907054	-0.867425	176.639625	-72.950285	116.983021			
15333	8.768051	1.538773	-2.272926	1.109494	0.927557	-0.739576	176.950169	-72.883465	116.903632			
15334	8.965575	1.394776	-2.256074	0.949384	0.955831	-0.560562	177.251425	-72.811725	116.838535			
15335	9.334186	1.433358	-2.296381	0.954196	1.053686	-0.198420	177.508241	-72.743627	116.795140			
15336	9.701150	1.440122	-2.334991	0.927921	1.136513	0.161566	177.671771	-72.695630	116.803909			
15337	10.103088	1.381487	-2.234256	0.779283	1.316660	0.513586	177.695306	-72.671659	116.915687			
15338	10.420575	1.214518	-1.953463	0.468263	1.575741	0.731373	177.588105	-72.689847	117.133506			
15339	10.725122	1.056999	-1.580374	0.126871	1.904330	0.911140	177.349686	-72.745352	117.469511			
15340	10.780624	0.781882	-1.194931	-0.295683	2.116763	0.849998	176.989251	-72.843864	117.917274			
15341	10.499269	0.717982	-0.847583	-0.467093	2.289203	0.483419	176.556507	-72.968540	118.434242			
15342	10.121315	0.849810	-0.661463	-0.385159	2.378014	0.076566	176.036915	-73.087257	119.025965			
15343	10.218920	0.788339	-0.824391	-0.409448	2.206631	0.221776	175.433428	-73.155887	119.684400			
15344	10.602674	0.906521	-1.376865	-0.162157	1.850355	0.755378	174.804601	-73.180847	120.405848			
15345	11.003720	0.940092	-2.121334	0.075311	1.303406	1.356960	174.173774	-73.129849	121.184321			
15346	11.677991	1.156906	-2.994956	0.478615	0.806070	2.262272	173.551847	-72.986066	122.007083			
15347	12.472542	2.024898	-3.317171	1.209477	1.112768	3.147509	172.845611	-72.810114	122.884251			
15348	12.683430	2.679170	-3.751930	1.868685	1.083218	3.508665	171.873910	-72.631075	123.892917			
15349	12.074353	2.491552	-4.976849	2.210812	-0.209112	3.295879	170.595185	-72.382512	125.089841			
15350	11.664627	2.573330	-6.835110	2.991663	-1.879463	3.488451	169.131204	-72.025989	126.413724			
15351	11.693071	3.738517	-8.259372	4.461234	-2.596378	4.053665	167.548761	-71.670627	127.795115			
15352	11.519793	4.814163	-8.651214	5.466033	-2.546004	4.128739	165.863689	-71.447993	129.145397			
15353	10.558527	3.777783	-8.157986	4.399637	-2.880331	3.018982	164.141267	-71.360939	130.420193			
15354	9.468256	1.130821	-7.104548	1.727439	-3.433822	1.440087	162.658051	-71.297951	131.486258			
15355	8.036679	-1.384069	-5.679964	-0.851595	-3.631875	-0.601294	161.667999	-71.225299	132.209259			
15356	6.670404	-2.759583	-4.510970	-2.273013	-3.519853	-2.403070	161.218026	-71.174248	132.564283			
15357	6.330496	-3.138703	-3.867454	-2.791456	-3.193099	-2.964642	161.264496	-71.119316	132.530833			
15358	7.089078	-2.881339	-3.790357	-2.748590	-2.826305	-2.237652	161.732678	-71.064181	132.129420			
15359	8.108170	-2.012034	-3.731829	-2.188566	-2.143925	-1.191152	162.511542	-71.014750	131.434350			
15360	9.100544	-1.381254	-3.919410	-1.733074	-1.769153	-0.119604	163.425507	-70.981074	130.576178			
15361	9.641615	-0.353310	-4.500127	-0.666670	-1.672777	0.679873	164.355091	-70.938206	129.706389			
15362	10.371180	1.080808	-4.708596	0.594010	-1.030801	1.566449	165.194691	-70.919434	128.934450			
15363	10.352295	2.357006	-4.484176	1.709044	-0.276408	1.581868	165.897041	-70.986479	128.269654			
15364	9.527645	3.112160	-4.102341	2.456424	0.169609	0.733773	166.428138	-71.116840	127.685213			
15365	8.677002	3.229415	-4.011473	2.732510	0.073674	-0.099848	166.864186	-71.240582	127.106753			
15366	8.255915	2.790287	-3.894724	2.400580	-0.125409	-0.574932	167.243934	-71.335554	126.514492			
15367	8.039726	1.854016	-3.647339	1.520883	-0.358368	-0.928088	167.607342	-71.404981	125.898119			
15368	7.687247	0.782714	-3.503168	0.576084	-0.761831	-1.382604	168.019504	-71.456488	125.225794			
15369	7.606432	-0.119277	-3.352815	-0.271341	-1.007216	-1.564944	168.524909	-71.470613	124.481762			
15370	7.811800	-0.785732	-3.275916	-0.928630	-1.134685	-1.432754	169.159167	-71.457319	123.634402			
15371	8.150014	-1.084532	-3.144489	-1.287807	-1.022730	-1.165017	169.914879	-71.434739	122.697862			
15372	8.645134	-0.906158	-3.188584	-1.164773	-0.831360	-0.665091	170.754032	-71.427161	121.705778			
15373	9.080333	-0.471905	-3.357130	-0.741234	-0.667095	-0.171587	171.659807	-71.455639	120.663295			
15374	9.022437	0.025172	-3.588322	-0.146662	-0.675952	-0.127522	172.610850	-71.537345	119.588046			
15375	8.756982	0.505848	-3.644607	0.408067	-0.603056	-0.342030	173.579327	-71.643384	118.500201			
15376	8.307326	0.834047	-3.473316	0.768901	-0.446714	-0.813784	174.527883	-71.773051	117.425540			
15377	8.110225	0.928607	-3.227387	0.846421	-0.248241	-1.079083	175.430118	-71.905079	116.374198			
15378	7.941511	0.731286	-2.959058	0.637249	-0.133407	-1.331274	176.271986	-72.022451	115.349406			
15379	7.871450	0.533283	-2.706866	0.413649	-0.003099	-1.482020	177.021796	-72.106744	114.371189			
15380	8.026016	0.177748	-2.643878	0.074326	-0.032182	-1.360943	177.660442	-72.162563	113.456973			
15381	8.161238	-0.091078	-2.514313	-0.209999	0.029820	-1.275075	178.210645	-72.182377	112.603159			
15382	8.181065	-0.217107	-2.574195	-0.288371	-0.052611	-1.238455	178.678716	-72.163283	111.813055			
15383	8.255639	-0.212320	-2.537695	-0.287106	0.016479	-1.178001	179.110172	-72.123912	111.062967			
15384	8.174650	-0.124727	-2.493387	-0.194479	0.076611	-1.267881	179.504997	-72.086528	110.363576			
15385	8.050926	-0.100103	-2.474228	-0.149489	0.080643	-1.391265	179.903739	-72.025658	109.685347			
15386	8.171179	-0.018237	-2.358089	-0.107503	0.263163	-1.312791	-179.709144	-71.949987	109.036239			
15387	8.353470	0.002824	-2.223136	-0.134432	0.462185	-1.181866	-179.349605	-71.866706	108.426827			
15388	8.435943	0.207556	-2.090291	0.023729	0.688738	-1.146513	-179.034922	-71.796673	107.864185			
15389	8.451842	0.362219	-2.083389	0.179133	0.763122	-1.135656	-178.793913	-71.728341	107.360457			
15390	8.467519	0.432237	-2.066534	0.249380	0.815708	-1.127718	-178.625803	-71.675184	106.917674			
15391	8.418866	0.509056	-2.013513	0.319057	0.880157	-1.192120	-178.530311	-71.634762	106.533977			
15392	8.457573	0.419315	-1.930362	0.211908	0.943197	-1.181457	-178.502740	-71.611115	106.209077			
15393	8.523348	0.287504	-1.788421	0.043662	1.053222	-1.162983	-178.537488	-71.602247	105.939627			
15394	8.566729	-0.007098	-1.564762	-0.302117	1.181220	-1.189995	-178.630825	-71.605427	105.722068			
15395	8.740641	-0.402589	-1.505211	-0.710524	1.172866	-1.040795	-178.760854	-71.612845	105.537536			
15396	8.848306	-0.824747	-1.734386	-1.061427	0.877343	-0.863695	-178.904133	-71.624787	105.375074			
15397	9.026981	-1.115476	-2.215497	-1.228678	0.414872	-0.541370	-179.045228	-71.625391	105.223429			
15398	9.419277	-1.018746	-2.480604	-1.102984	0.324736	-0.086847	-179.167996	-71.608691	105.050519			
15399	9.968898	-0.702028	-2.567077	-0.825543	0.506805	0.459765	-179.269617	-71.584266	104.831082			
15400	10.308755	-0.488386	-2.622398	-0.635725	0.621799	0.798398	-179.362826	-71.585459	104.583847			
15401	10.283527	-0.414983	-2.730063	-0.537028	0.533169	0.808222	-179.457504	-71.626298	104.338919			
15402	10.264679	-0.492757	-2.649326	-0.629558	0.573346	0.765606	-179.536664	-71.698323	104.094856			
15403	10.313265	-0.709985	-2.530960	-0.868191	0.631349	0.776029	-179.566913	-71.786298	103.832885			
15404	10.352250	-0.900826	-2.163050	-1.134438	0.922330	0.700242	-179.543992	-71.891762	103.537629			
15405	10.223638	-1.057409	-1.800039	-1.348746	1.167152	0.468346	-179.485642	-72.010772	103.212898			
15406	10.105296	-1.062452	-1.424480	-1.415300	1.462672	0.243775	-179.409850	-72.145145	102.872374			
15407	10.013264	-1.010264	-1.105721	-1.412577	1.726659	0.063139	-179.339608	-72.284591	102.540909			
15408	10.015197	-0.772532	-1.104127	-1.164838	1.768751	0.068341	-179.255221	-72.393220	102.194749			
15409	10.619831	-0.556546	-1.706289	-0.847927	1.431411	0.828461	-179.106754	-72.415470	101.781764			
15410	11.867210	-0.653282	-2.538287	-0.828013	1.014229	2.269781	-178.870615	-72.370413	101.301582			
15411	12.791567	-0.429080	-3.117405	-0.521939	0.817989	3.324469	-178.465226	-72.297715	100.677182			
15412	13.324755	-0.442547	-3.368768	-0.479754	0.763845	3.908819	-177.901036	-72.238903	99.923786			
15413	12.691028	-0.302292	-3.231386	-0.292413	0.746878	3.262170	-177.235261	-72.233103	99.113196			
15414	11.136384	-0.208302	-3.560692	-0.015062	0.000467	1.880925	-176.546722	-72.218351	98.319147			
15415	10.323403	-0.851352	-4.788578	-0.329570	-1.503287	1.494802	-175.913170	-72.140832	97.597775			
15416	10.197001	-2.736458	-6.565190	-1.789295	-3.545237	1.968581	-175.247460	-72.015162	96.895291			
15417	10.575696	-4.314438	-7.818365	-3.056762	-4.869633	2.778138	-174.361875	-71.832320	96.106844			
15418	10.871924	-4.047082	-7.642301	-2.763430	-4.515715	3.030721	-173.164420	-71.622955	95.136912			
15419	10.451663	-1.835346	-6.476246	-0.730122	-3.069407	2.211961	-171.821557	-71.385797	94.031611			
15420	9.530853	0.700127	-5.296737	1.606672	-1.700945	0.860060	-170.624274	-71.144086	92.927177			
15421	7.923343	2.518143	-4.587342	3.315524	-1.156580	-0.990354	-169.753982	-70.961129	91.960863			
15422	6.190168	3.372982	-4.430082	4.162399	-1.394983	-2.738137	-169.315765	-70.820817	91.251325			
15423	5.374472	3.651804	-4.452377	4.445375	-1.635593	-3.519219	-169.296598	-70.643484	90.848739			
15424	6.097677	3.730571	-4.491758	4.508312	-1.427135	-2.818901	-169.662395	-70.424147	90.742198			
15425	7.888953	3.291677	-4.767813	4.086540	-1.168412	-0.995797	-170.335843	-70.214184	90.874567			
15426	9.702669	2.287463	-5.120920	3.099094	-1.060057	0.905037	-171.192125	-70.091367	91.161892			
15427	10.665859	1.100225	-5.392217	1.900090	-1.191253	1.977865	-172.102959	-70.102072	91.503876			
15428	10.540935	-0.359605	-5.353033	0.381407	-1.450273	1.919589	-172.971531	-70.232374	91.845008			
15429	9.876576	-1.993788	-4.994821	-1.349086	-1.613519	1.234767	-173.800877	-70.438318	92.195045			
15430	8.983967	-3.451343	-4.503932	-2.910115	-1.688493	0.266435	-174.588649	-70.693534	92.576952			
15431	8.105048	-4.269858	-3.977181	-3.828067	-1.621906	-0.732129	-175.290676	-70.938046	92.988175			
15432	7.659764	-4.270967	-3.494485	-3.920452	-1.337567	-1.329445	-175.881113	-71.119313	93.434006			
15433	7.776776	-3.443632	-3.152820	-3.171784	-0.892363	-1.361620	-176.357254	-71.222388	93.886860			
15434	8.071438	-2.215181	-2.958847	-2.004867	-0.473943	-1.177541	-176.769099	-71.281139	94.359022			
15435	8.332429	-0.902316	-2.926934	-0.732266	-0.202066	-0.967722	-177.165173	-71.321240	94.864703			
15436	8.429866	0.346337	-3.087052	0.504660	-0.166408	-0.844406	-177.573410	-71.374603	95.413188			
15437	8.269761	1.243449	-3.127803	1.384066	-0.143312	-0.993274	-178.016328	-71.439572	96.006667			
15438	8.181833	1.802729	-3.107698	1.917118	-0.083908	-1.085284	-178.508196	-71.515778	96.641045			
15439	8.020664	2.038165	-3.045703	2.124713	-0.052777	-1.254404	-179.051944	-71.600086	97.297694			
15440	7.822334	1.881712	-2.980177	1.944857	-0.087516	-1.456790	-179.625729	-71.691681	97.951753			
15441	7.725415	1.494296	-2.923377	1.533803	-0.133001	-1.560973	179.795853	-71.772984	98.600168			
15442	7.804226	1.096704	-2.795915	1.095135	-0.059952	-1.522762	179.214415	-71.847922	99.249221			
15443	7.777321	0.707617	-2.773135	0.684400	-0.116784	-1.554623	178.633284	-71.911641	99.898671			
15444	7.747203	0.448972	-2.765098	0.405119	-0.168634	-1.586273	178.047225	-71.958238	100.555582			
15445	7.758463	0.187410	-2.841782	0.132755	-0.285074	-1.554016	177.485943	-71.970398	101.213541			
15446	7.819292	0.123039	-2.881538	0.047606	-0.317443	-1.484624	176.951963	-71.942431	101.880120			
15447	8.045230	0.181785	-2.868717	0.066046	-0.225406	-1.272599	176.471152	-71.877576	102.523715			
15448	8.361899	0.218550	-2.894111	0.061999	-0.140764	-0.962756	176.044720	-71.793565	103.138621			
15449	8.679679	0.311268	-2.864708	0.105241	0.008172	-0.667794	175.701013	-71.703423	103.706776			
15450	9.001611	0.350681	-2.774583	0.087620	0.207489	-0.389337	175.431196	-71.622415	104.233351			
15451	9.271544	0.488118	-2.625253	0.163102	0.462577	-0.176757	175.260805	-71.564962	104.697590			
15452	9.396178	0.602507	-2.383847	0.214968	0.751892	-0.131658	175.149731	-71.546748	105.113323			
15453	9.317987	0.621069	-2.161561	0.194005	0.939664	-0.275270	175.095667	-71.560225	105.479662			
15454	8.915599	0.525920	-1.981210	0.098526	0.964088	-0.715956	175.104489	-71.595624	105.798453			
15455	8.683608	0.394875	-1.734727	-0.055882	1.093025	-1.016528	175.172491	-71.639780	106.079516			
15456	8.484802	0.191672	-1.582600	-0.265545	1.127435	-1.257478	175.300008	-71.689858	106.323459			
15457	8.429154	-0.025725	-1.524013	-0.482764	1.112920	-1.333167	175.474974	-71.741643	106.541505			
15458	8.447299	-0.149840	-1.534865	-0.599288	1.073545	-1.314248	175.729737	-71.793667	106.707587			
15459	8.502990	0.023539	-1.746488	-0.385169	0.925447	-1.190229	176.043102	-71.833836	106.826699			
15460	8.419616	0.546455	-2.083574	0.213155	0.704904	-1.153156	176.417932	-71.865471	106.866573			
15461	8.233067	1.287933	-2.641285	1.085900	0.311550	-1.144223	176.805607	-71.880247	106.839400			
15462	8.089309	1.852608	-3.173352	1.781418	-0.074918	-1.108657	177.183567	-71.856124	106.764362			
15463	8.323865	1.927330	-3.483796	1.919012	-0.251818	-0.790932	177.554685	-71.782542	106.677749			
15464	8.826341	1.836834	-3.421356	1.787036	-0.038416	-0.336989	177.951017	-71.680315	106.577483			
15465	9.507040	1.704244	-3.223989	1.566345	0.345042	0.242649	178.367105	-71.585447	106.452565			
15466	10.084703	1.752933	-2.970547	1.516060	0.789655	0.707584	178.734124	-71.542345	106.325236			
15467	10.536649	1.721039	-2.738553	1.401336	1.144074	1.059753	178.978708	-71.554426	106.258406			
15468	10.792483	1.591568	-2.336500	1.162678	1.553492	1.173888	179.067150	-71.631173	106.296968			
15469	10.977372	1.327480	-1.834736	0.769103	1.981225	1.192508	179.007250	-71.766897	106.450335			
15470	11.074445	1.038134	-1.381008	0.365853	2.317235	1.147454	178.825339	-71.957217	106.708686			
15471	10.833307	0.961514	-1.003928	0.212905	2.529808	0.810282	178.553800	-72.184463	107.050019			
15472	10.395510	0.987771	-0.803681	0.217747	2.548104	0.343483	178.162189	-72.409650	107.489464			
15473	10.405993	0.728798	-1.116555	0.032957	2.152107	0.455210	177.665539	-72.590279	108.020255			
15474	10.515091	0.169688	-1.948396	-0.322424	1.229747	0.806908	177.108654	-72.725534	108.646270			
15475	10.875836	-0.198741	-2.795770	-0.519818	0.423381	1.398470	176.532574	-72.773766	109.381027			
15476	11.903069	-0.278322	-3.245836	-0.616214	0.260760	2.509979	175.918144	-72.723119	110.226906			
15477	13.011358	0.007501	-2.987190	-0.574926	0.881033	3.495646	175.128424	-72.655787	111.236452			
15478	12.871814	0.281979	-2.892466	-0.388594	0.995758	3.339745	174.105335	-72.602498	112.398288			
15479	11.995392	0.977487	-3.928727	0.576473	-0.007648	2.834324	172.931592	-72.497174	113.636560			
15480	11.346824	2.956015	-5.985371	3.010829	-1.499993	2.915131	171.702014	-72.338875	114.861118			
15481	11.553417	5.312668	-7.651289	5.579282	-2.291173	3.747145	170.316586	-72.175509	116.084523			
15482	12.262821	5.828469	-7.746603	5.881635	-2.073472	4.521289	168.701393	-72.085535	117.375650			
15483	11.457875	3.966884	-6.872984	3.865696	-2.093570	3.413365	166.921613	-72.092013	118.748509			
15484	9.811925	1.398957	-5.801028	1.275970	-2.337921	1.358161	165.265081	-72.108998	120.058312			
15485	8.083854	-0.284296	-5.368774	-0.253841	-2.907663	-0.553428	163.957501	-72.138792	121.150247			
15486	6.448261	-1.421520	-5.299381	-1.143649	-3.611703	-2.240911	163.153201	-72.189232	121.908671			
15487	4.955233	-1.868262	-4.693648	-1.485792	-3.575148	-3.889361	162.883644	-72.217290	122.248292			
15488	4.663133	-2.559464	-4.080931	-2.240093	-3.275429	-4.408689	163.104830	-72.183365	122.160366			
15489	5.412067	-2.878715	-3.609448	-2.766552	-2.724987	-3.852304	163.719587	-72.060443	121.723693			
15490	7.512040	-2.855979	-3.837024	-3.009021	-2.354605	-1.768337	164.588910	-71.864297	121.060690			
15491	9.495068	-2.241023	-4.532575	-2.538502	-2.253301	0.395205	165.540665	-71.669236	120.380887			
15492	10.497946	-1.225092	-4.932614	-1.584759	-2.016398	1.565394	166.450297	-71.561539	119.818015			
15493	10.486937	-0.113185	-4.700078	-0.531374	-1.453237	1.575239	167.236837	-71.565697	119.398424			
15494	9.704149	0.877454	-4.185975	0.447631	-0.891919	0.745094	167.877380	-71.652975	119.084816			
15495	8.916616	1.741205	-3.650672	1.286886	-0.354375	-0.113024	168.430361	-71.759107	118.797873			
15496	8.535299	2.207977	-3.479301	1.774859	-0.155598	-0.503680	168.966714	-71.846646	118.460282			
15497	8.360889	2.218386	-3.461069	1.834788	-0.175924	-0.679931	169.498331	-71.897178	118.068856			
15498	8.551525	1.895291	-3.537859	1.547767	-0.283568	-0.498123	170.017721	-71.912384	117.627750			
15499	8.749921	1.308873	-3.598627	1.004344	-0.454288	-0.325368	170.554047	-71.914602	117.132919			
15500	8.833778	0.685403	-3.608816	0.429570	-0.621280	-0.275477	171.140575	-71.913449	116.566947			
15501	8.755968	0.088759	-3.497105	-0.129534	-0.712645	-0.411631	171.786430	-71.915109	115.926542			
15502	8.824721	-0.324735	-3.411556	-0.523827	-0.730798	-0.388713	172.502103	-71.937416	115.220711			
15503	8.946457	-0.524950	-3.434808	-0.686515	-0.768226	-0.270625	173.290508	-71.983301	114.457824			
15504	8.882901	-0.434387	-3.339513	-0.576954	-0.663639	-0.353644	174.143415	-72.063697	113.629283			
15505	8.665046	-0.131605	-3.345069	-0.214914	-0.633039	-0.547553	175.022366	-72.176705	112.761731			
15506	8.264736	0.314092	-3.237102	0.271603	-0.510908	-0.949935	175.910333	-72.299123	111.884568			
15507	7.981574	0.783603	-3.067921	0.745023	-0.292552	-1.263366	176.784703	-72.393720	110.997877			
15508	7.817206	1.112175	-2.765864	1.028288	0.036433	-1.509867	177.611509	-72.479336	110.109611			
15509	7.665087	1.067264	-2.526124	0.968269	0.197494	-1.732015	178.381537	-72.540987	109.220599			
15510	7.675648	0.753491	-2.486481	0.688923	0.142545	-1.739837	179.074747	-72.573638	108.358865			
15511	7.698913	0.372218	-2.298245	0.295992	0.212190	-1.777698	179.669202	-72.552267	107.556760			
15512	7.883649	-0.093736	-2.270999	-0.152111	0.165413	-1.611006	-179.809827	-72.471399	106.801867			
15513	7.951292	-0.499438	-2.210377	-0.546486	0.144010	-1.564124	-179.356469	-72.341882	106.104869			
15514	8.225184	-0.723576	-2.248052	-0.761168	0.153935	-1.290493	-178.970529	-72.175461	105.462963			
15515	8.597978	-0.761737	-2.327895	-0.796808	0.214318	-0.910798	-178.638578	-71.990915	104.874255			
15516	8.832454	-0.640908	-2.429928	-0.663393	0.258846	-0.657341	-178.347893	-71.823685	104.329666			
15517	8.931012	-0.282160	-2.337954	-0.341700	0.500942	-0.596351	-178.101732	-71.679065	103.826656			
15518	9.024812	0.009248	-2.248765	-0.082220	0.713492	-0.539695	-177.898852	-71.563323	103.358824			
15519	9.025093	0.292634	-2.125998	0.168665	0.918409	-0.583069	-177.747654	-71.480956	102.937899			
15520	8.829352	0.409186	-1.990338	0.269905	1.022282	-0.814442	-177.648861	-71.436152	102.556806			
15521	8.605505	0.408105	-1.839721	0.254311	1.094428	-1.075216	-177.635975	-71.419615	102.244303			
15522	8.407887	0.363382	-1.630455	0.178186	1.213359	-1.328643	-177.722502	-71.416452	102.010630			
15523	8.454340	0.287956	-1.530371	0.079426	1.300043	-1.315370	-177.891314	-71.410930	101.831958			
15524	8.580358	-0.028459	-1.627251	-0.216034	1.174026	-1.161312	-178.132047	-71.401321	101.711926			
15525	8.666159	-0.394063	-1.801968	-0.544601	0.957405	-1.021131	-178.414054	-71.372300	101.634501			
15526	8.915965	-0.608486	-2.050391	-0.724863	0.765009	-0.704553	-178.681855	-71.317599	101.554900			
15527	9.244952	-0.689613	-2.212370	-0.801714	0.712037	-0.342232	-178.934535	-71.252878	101.467816			
15528	9.485467	-0.799070	-2.437292	-0.888421	0.567197	-0.043247	-179.165538	-71.208726	101.372332			
15529	9.646239	-0.896146	-2.656629	-0.960702	0.402854	0.178580	-179.396963	-71.184489	101.297454			
15530	9.891555	-1.054761	-2.972752	-1.080301	0.159824	0.512041	-179.587240	-71.181976	101.211534			
15531	10.293053	-1.211868	-3.145209	-1.234296	0.097661	0.947186	-179.692835	-71.195923	101.088932			
15532	10.671367	-1.428931	-3.036453	-1.491619	0.273361	1.270647	-179.675084	-71.246666	100.894348			
15533	10.749587	-1.530886	-2.711095	-1.647792	0.571067	1.241991	-179.536148	-71.351596	100.620854			
15534	10.524193	-1.381970	-2.128759	-1.577604	1.052173	0.845836	-179.314002	-71.502193	100.282060			
15535	10.214550	-0.982647	-1.505709	-1.259621	1.588578	0.358816	-179.079795	-71.670559	99.917026			
15536	10.118918	-0.621474	-0.938930	-0.978836	2.130578	0.095024	-178.872557	-71.842894	99.544443			
15537	10.165959	-0.334599	-0.623057	-0.732446	2.468820	0.047092	-178.681288	-72.006764	99.168922			
15538	10.363882	0.397660	-0.806643	0.033199	2.469155	0.292804	-178.473513	-72.118269	98.759116			
15539	11.038778	0.750512	-1.220932	0.443026	2.335672	1.061911	-178.267081	-72.162316	98.316069			
15540	11.698596	0.568101	-1.578337	0.319119	2.164036	1.801359	-177.996972	-72.174823	97.796222			
15541	11.840119	0.621466	-2.235455	0.501096	1.602084	2.135286	-177.654233	-72.146603	97.195053			
15542	11.884973	0.481176	-3.076580	0.523555	0.814445	2.435248	-177.265493	-72.072966	96.531506			
15543	11.830716	0.044260	-3.597589	0.202548	0.258502	2.548644	-176.839187	-71.979902	95.848862			
15544	11.547855	-0.599573	-4.006210	-0.335483	-0.286661	2.417084	-176.380821	-71.870420	95.192975			
15545	11.395203	-2.029028	-4.835030	-1.593186	-1.294415	2.561931	-175.868819	-71.730874	94.567131			
15546	11.583784	-4.126612	-6.086756	-3.451693	-2.682423	3.193146	-175.212424	-71.585416	93.916746			
15547	11.755146	-5.513798	-7.016088	-4.630176	-3.670191	3.711419	-174.259581	-71.444915	93.118450			
15548	11.635522	-4.910576	-7.199111	-3.914668	-3.765769	3.671364	-173.032448	-71.325904	92.143270			
15549	10.922435	-2.671851	-6.528464	-1.701521	-3.008121	2.721844	-171.792263	-71.240002	91.109398			
15550	9.860368	-0.364027	-6.032826	0.581569	-2.517776	1.460138	-170.789830	-71.200788	90.153318			
15551	8.101204	1.418405	-5.576982	2.313147	-2.385459	-0.447701	-170.142687	-71.232895	89.391494			
15552	5.811445	2.187876	-4.927388	2.973130	-2.416080	-2.872814	-169.885169	-71.315147	88.878823			
15553	4.704697	2.715054	-4.275722	3.375698	-2.105408	-4.159427	-169.981940	-71.321111	88.629813			
15554	5.030630	2.758370	-4.109004	3.374629	-1.855607	-3.899289	-170.408710	-71.224957	88.640595			
15555	6.644519	2.319532	-4.453273	2.967836	-1.724062	-2.224480	-171.130365	-71.068913	88.922081			
15556	8.772272	1.723839	-4.851439	2.396028	-1.478473	-0.038552	-171.973638	-70.934575	89.361542			
15557	10.157888	0.848275	-5.331860	1.535221	-1.577419	1.478260	-172.827997	-70.891750	89.857915			
15558	10.480412	-0.543358	-5.537630	0.117807	-1.835382	1.909803	-173.596570	-70.984952	90.310837			
15559	9.936669	-1.963881	-5.265349	-1.377894	-1.941640	1.351955	-174.241230	-71.191560	90.697497			
15560	9.101173	-2.955836	-4.667511	-2.467803	-1.793385	0.387678	-174.754584	-71.459094	91.027231			
15561	8.274502	-3.288402	-4.014454	-2.890807	-1.515364	-0.607062	-175.112533	-71.719107	91.297255			
15562	7.907096	-3.109973	-3.467021	-2.784112	-1.132131	-1.141977	-175.362940	-71.943787	91.540998			
15563	7.763913	-2.413032	-3.052923	-2.143413	-0.743864	-1.429741	-175.571871	-72.116655	91.797548			
15564	8.041910	-1.310189	-2.750454	-1.089770	-0.282209	-1.287042	-175.767113	-72.254192	92.079544			
15565	8.345265	-0.086949	-2.564645	0.093490	0.097062	-1.082841	-176.008169	-72.358794	92.423374			
15566	8.613745	0.803410	-2.581539	0.962720	0.243211	-0.839372	-176.385011	-72.460159	92.884786			
15567	8.339716	1.250368	-2.720296	1.405362	0.064144	-1.064255	-176.936331	-72.557082	93.489115			
15568	8.127736	1.383018	-2.871707	1.531116	-0.141756	-1.218793	-177.608939	-72.642336	94.195515			
15569	8.006802	1.177028	-3.037173	1.316886	-0.369274	-1.277581	-178.358721	-72.700611	94.963453			
15570	7.940846	0.795577	-3.196667	0.925408	-0.592583	-1.286197	-179.105015	-72.738187	95.725367			
15571	7.884141	0.259610	-3.337985	0.379465	-0.811959	-1.294127	-179.812512	-72.764231	96.457189			
15572	7.880064	-0.094009	-3.273712	-0.006593	-0.798971	-1.316631	179.558932	-72.774089	97.151269			
15573	7.828430	-0.242818	-3.150941	-0.190636	-0.718409	-1.403216	178.993092	-72.763964	97.819221			
15574	7.841953	-0.154952	-3.013553	-0.141179	-0.574488	-1.431057	178.489942	-72.734693	98.456394			
15575	7.947830	0.126305	-2.913363	0.102140	-0.411111	-1.357384	178.053193	-72.683776	99.054904			
15576	8.112415	0.427424	-2.859317	0.368560	-0.267091	-1.212544	177.665395	-72.613455	99.626177			
15577	8.337337	0.750599	-2.792549	0.651468	-0.084558	-1.012613	177.300022	-72.520307	100.190125			
15578	8.565738	1.028992	-2.829725	0.901406	-0.000453	-0.778006	176.974183	-72.418165	100.715795			
15579	8.790899	1.112341	-2.815785	0.950929	0.107616	-0.564446	176.650927	-72.315760	101.231854			
15580	8.990004	1.079035	-2.688091	0.870975	0.298008	-0.412535	176.347046	-72.229281	101.724679			
15581	9.217904	1.024938	-2.557311	0.767961	0.493337	-0.235271	176.067469	-72.173225	102.189940			
15582	9.232064	0.977449	-2.472485	0.692526	0.575484	-0.247709	175.814000	-72.162124	102.618784			
15583	9.102270	0.938072	-2.346320	0.631614	0.648725	-0.409671	175.596817	-72.181101	103.000272			
15584	8.743969	0.827354	-2.186259	0.514676	0.671402	-0.801275	175.440139	-72.211284	103.316780			
15585	8.470567	0.848312	-1.964428	0.516224	0.798880	-1.127964	175.348005	-72.231026	103.569954			
15586	8.366055	0.802727	-1.787855	0.449059	0.925351	-1.281934	175.335724	-72.242087	103.749105			
15587	8.396226	0.730561	-1.726489	0.365278	0.981441	-1.273693	175.410595	-72.240052	103.856544			
15588	8.507291	0.505781	-1.611956	0.120863	1.087378	-1.208548	175.603228	-72.239028	103.876133			
15589	8.669793	0.285703	-1.558221	-0.108967	1.151911	-1.075628	175.920892	-72.240541	103.802760			
15590	8.744598	0.088040	-1.571065	-0.294635	1.130677	-1.004809	176.352510	-72.245110	103.640724			
15591	8.679148	-0.015120	-1.703727	-0.352815	0.972315	-1.028575	176.878549	-72.243186	103.401562			
15592	8.539590	0.729080	-2.009990	0.461066	0.784977	-1.056695	177.447397	-72.237054	103.098186			
15593	8.269549	1.377086	-2.702227	1.257082	0.186223	-1.096676	177.924397	-72.219525	102.789811			
15594	8.296429	1.514841	-3.273334	1.508419	-0.302131	-0.897894	178.271881	-72.165613	102.550472			
15595	8.860369	1.151249	-3.503657	1.168203	-0.398370	-0.295143	178.578551	-72.054815	102.403839			
15596	9.283371	1.020464	-3.091571	0.949802	0.113278	-0.021615	178.892637	-71.947418	102.312726			
15597	9.545353	1.076845	-2.686439	0.923275	0.603922	0.100593	179.143731	-71.866200	102.258481			
15598	9.779130	1.172574	-2.669010	1.004133	0.726396	0.316181	179.269141	-71.812718	102.270039			
15599	10.122372	1.198300	-2.423458	0.959142	1.073778	0.565103	179.230128	-71.793340	102.404064			
15600	10.422480	1.001350	-1.698325	0.598610	1.800603	0.623528	179.029231	-71.805335	102.687160			
15601	10.807796	0.525355	-1.164215	-0.014026	2.310217	0.822278	178.696721	-71.847105	103.112848			
15602	10.857107	0.036857	-0.917553	-0.567106	2.438367	0.791684	178.268838	-71.916111	103.647604			
15603	10.748763	-0.344852	-0.717456	-0.999154	2.490055	0.626219	177.782830	-72.010238	104.251786			
15604	10.451712	-0.122897	-0.481806	-0.834563	2.639485	0.278002	177.262353	-72.128204	104.894066			
15605	10.120008	-0.071014	-0.529100	-0.777974	2.479481	-0.017468	176.686986	-72.239069	105.585083			
15606	10.192392	-0.148784	-1.142311	-0.768643	1.887198	0.240143	176.107388	-72.310524	106.325910			
15607	10.428232	0.090503	-1.941576	-0.427913	1.247073	0.712878	175.562727	-72.309492	107.134662			
15608	10.962665	0.181766	-2.801686	-0.247917	0.621342	1.483986	175.030785	-72.201413	108.030800			
15609	11.883232	0.371764	-3.655961	-0.016571	0.158450	2.624748	174.444253	-71.997442	109.049737			
15610	12.778928	0.982436	-3.841468	0.463968	0.423255	3.552496	173.670781	-71.790212	110.232299			
15611	12.429601	1.340749	-4.165201	0.841766	0.133968	3.337002	172.629784	-71.605750	111.582524			
15612	11.506039	2.376889	-5.615772	2.189488	-1.195927	2.968178	171.353454	-71.400399	113.066611			
15613	10.984619	4.408041	-7.650000	4.577544	-2.686377	3.242713	169.870512	-71.188776	114.621743			
15614	11.235969	5.427902	-8.583913	5.616333	-3.212892	3.881289	168.164847	-71.020704	116.227249			
15615	11.094832	3.876467	-7.825375	3.828094	-2.992686	3.444243	166.270409	-70.901166	117.859499			
15616	10.283989	0.708831	-7.003736	0.579535	-3.324165	2.184299	164.448660	-70.775687	119.415295			
15617	9.041920	-1.513817	-6.364911	-1.605153	-3.681532	0.600247	163.072645	-70.649591	120.710828			
15618	7.423795	-2.360544	-5.480119	-2.388299	-3.559049	-1.307061	162.261585	-70.588999	121.655019			
15619	6.004954	-2.695695	-4.718214	-2.635803	-3.359324	-2.931173	162.003406	-70.560692	122.175078			
15620	6.253649	-3.327652	-4.687480	-3.278555	-3.436364	-2.770225	162.238368	-70.496483	122.282652			
15621	7.370423	-3.119366	-4.643179	-3.257595	-3.024502	-1.697702	162.875757	-70.393956	122.043098			
15622	8.847184	-2.115880	-4.704043	-2.503073	-2.371018	-0.169542	163.768976	-70.290915	121.565868			
15623	10.328397	-0.898159	-4.810188	-1.523526	-1.672937	1.389998	164.710708	-70.217425	121.018234			
15624	11.170067	0.407373	-5.010368	-0.319778	-1.208239	2.372455	165.524576	-70.213232	120.552367			
15625	11.386744	2.020781	-4.934088	1.218047	-0.583362	2.687811	166.242436	-70.278582	120.145435			
15626	10.870501	3.586091	-4.555052	2.754818	0.081886	2.194825	166.847521	-70.439648	119.762164			
15627	9.836980	4.413343	-4.024892	3.627044	0.502276	1.097655	167.335487	-70.653540	119.366096			
15628	8.882601	4.124639	-3.788084	3.488430	0.334852	0.085866	167.736944	-70.874593	118.924327			
15629	8.241097	2.884415	-3.734254	2.429836	-0.194549	-0.634556	168.082865	-71.079126	118.444155			
15630	7.713335	1.425194	-3.725001	1.146076	-0.789680	-1.241505	168.433755	-71.265098	117.916354			
15631	7.370235	0.031332	-3.603782	-0.140322	-1.195832	-1.697341	168.865720	-71.404542	117.305105			
15632	7.205053	-1.018063	-3.536080	-1.114056	-1.485827	-1.938410	169.397710	-71.510633	116.607621			
15633	7.151328	-1.541250	-3.432722	-1.610657	-1.549870	-2.047113	170.023456	-71.578841	115.824054			
15634	7.477536	-1.692554	-3.424462	-1.778193	-1.480705	-1.741090	170.720424	-71.616968	114.982217			
15635	7.959706	-1.551585	-3.367805	-1.693829	-1.236783	-1.285808	171.454275	-71.641614	114.131855			
15636	8.344748	-1.011043	-3.286240	-1.212968	-0.889934	-0.913641	172.178965	-71.692691	113.322316			
15637	8.703676	-0.383530	-3.321507	-0.611213	-0.641144	-0.531053	172.856867	-71.777227	112.569973			
15638	8.630899	0.093053	-3.413355	-0.085763	-0.620374	-0.552032	173.464046	-71.912125	111.900780			
15639	8.490194	0.445692	-3.426684	0.308271	-0.589361	-0.670385	174.029715	-72.078654	111.283606			
15640	8.197300	0.680663	-3.364907	0.585916	-0.569150	-0.963151	174.575457	-72.250879	110.689041			
15641	7.811765	0.819838	-3.045479	0.713418	-0.363614	-1.426420	175.077965	-72.412647	110.125207			
15642	7.820652	0.781050	-2.914166	0.669456	-0.263392	-1.461197	175.544970	-72.528777	109.580374			
15643	8.086061	0.592180	-2.861859	0.470610	-0.197609	-1.229871	175.966333	-72.604252	109.059037			
15644	8.400579	0.241694	-2.810449	0.109150	-0.157809	-0.953234	176.333275	-72.662998	108.562986			
15645	8.570970	-0.039462	-2.778643	-0.168821	-0.155668	-0.805403	176.659705	-72.708670	108.088883			
15646	8.773826	-0.272165	-2.735977	-0.407070	-0.120193	-0.627945	176.946497	-72.750580	107.644409			
15647	8.912016	-0.326551	-2.666694	-0.474350	-0.032237	-0.516674	177.201777	-72.799236	107.206163			
15648	8.779025	-0.291126	-2.431828	-0.469994	0.152604	-0.711829	177.425218	-72.862495	106.814480			
15649	8.715578	-0.150254	-2.341361	-0.336552	0.248065	-0.796533	177.609323	-72.927811	106.440851			
15650	8.541040	-0.012554	-2.257743	-0.196585	0.303368	-0.985670	177.765918	-72.991554	106.126530			
15651	8.539054	0.149161	-2.210904	-0.040247	0.379792	-0.999066	177.915775	-73.036889	105.813535			
15652	8.504368	0.352689	-2.180016	0.162077	0.442743	-1.038929	178.045789	-73.072879	105.534810			
15653	8.531110	0.440839	-2.126641	0.241251	0.517630	-1.028006	178.148415	-73.091658	105.257798			
15654	8.564126	0.455327	-2.055854	0.243289	0.594353	-1.016912	178.221883	-73.099230	105.004657			
15655	8.499173	0.459733	-1.964175	0.237227	0.662715	-1.105805	178.265419	-73.089025	104.743184			
15656	8.452523	0.498238	-1.778120	0.241745	0.833361	-1.204426	178.275321	-73.067492	104.509818			
15657	8.523964	0.404964	-1.620557	0.114743	0.982842	-1.183144	178.235409	-73.036894	104.288000			
15658	8.625168	0.378847	-1.461298	0.050233	1.157336	-1.133374	178.150464	-73.012439	104.109424			
15659	8.733545	0.413861	-1.346926	0.054663	1.303739	-1.062968	178.030849	-73.003072	103.930523			
15660	8.797222	0.443969	-1.268022	0.065157	1.399656	-1.024467	177.878261	-73.017080	103.778466			
15661	8.820398	0.383589	-1.326556	0.017109	1.333577	-0.985027	177.700660	-73.052332	103.604940			
15662	8.784858	0.268535	-1.507555	-0.058652	1.122780	-0.966531	177.516785	-73.099561	103.427990			
15663	8.745841	0.195837	-1.872923	-0.061901	0.746799	-0.897847	177.346723	-73.136271	103.207429			
15664	8.899326	0.124252	-2.174618	-0.092461	0.487896	-0.664145	177.188319	-73.147561	102.974165			
15665	9.254534	0.185387	-2.222691	-0.051390	0.553055	-0.309393	177.016857	-73.133047	102.714467			
15666	9.614929	0.171565	-2.258336	-0.087476	0.620233	0.045509	176.815468	-73.113185	102.467234			
15667	9.902807	-0.012863	-2.214958	-0.300513	0.714841	0.305143	176.564553	-73.099504	102.234580			
15668	10.241437	-0.496588	-2.290120	-0.795866	0.666163	0.642029	176.305744	-73.110794	102.038653			
15669	10.490634	-1.150037	-2.500638	-1.435754	0.442704	0.928439	176.092226	-73.146457	101.821981			
15670	10.614341	-1.851011	-2.752247	-2.109128	0.142053	1.105038	175.992452	-73.198885	101.567309			
15671	10.644001	-2.311139	-2.744341	-2.566382	0.100739	1.122168	176.048716	-73.241836	101.206718			
15672	10.848650	-2.558667	-2.646412	-2.824965	0.226046	1.287400	176.273075	-73.274688	100.764187			
15673	11.210342	-2.509198	-2.553665	-2.787371	0.429234	1.612518	176.624463	-73.317367	100.234120			
15674	11.380877	-2.046767	-2.757482	-2.287826	0.341001	1.847794	177.098100	-73.377354	99.633255			
15675	11.639567	-1.510886	-3.591971	-1.643671	-0.312101	2.347304	177.695031	-73.381336	98.906584			
15676	12.465790	-1.433549	-4.417627	-1.473654	-0.840692	3.381545	178.436608	-73.329809	98.097366			
15677	13.031382	-1.152435	-4.065134	-1.201063	-0.296335	3.830612	179.376286	-73.327137	97.177459			
15678	12.310599	-0.656332	-3.303478	-0.697520	0.278460	2.928194	-179.516565	-73.417934	96.168556			
15679	11.052616	-0.504085	-3.112231	-0.457890	0.109379	1.671143	-178.307926	-73.506684	95.087827			
15680	10.337753	-0.909753	-3.931841	-0.677702	-0.926923	1.225304	-177.029328	-73.531497	94.001832			
15681	10.264014	-1.629482	-5.076319	-1.180194	-2.118971	1.496194	-175.734411	-73.495702	92.922255			
15682	10.267347	-1.651253	-5.752487	-1.038683	-2.753511	1.701430	-174.447408	-73.429953	91.864007			
15683	9.909778	-0.784386	-5.389206	-0.147632	-2.387694	1.238974	-173.286522	-73.360725	90.855627			
15684	9.024351	0.625367	-4.517155	1.196765	-1.619894	0.095803	-172.350281	-73.279013	89.952379			
15685	7.926905	2.065486	-3.845857	2.571046	-1.103848	-1.206651	-171.682843	-73.162231	89.151988			
15686	6.912375	3.032389	-3.809817	3.538261	-1.238257	-2.233873	-171.300528	-73.025774	88.508880			
15687	5.976283	3.433061	-4.261923	3.985744	-1.898210	-3.017359	-171.191534	-72.882656	88.008707			
15688	5.683406	3.337166	-4.683277	3.921956	-2.405485	-3.164177	-171.336145	-72.695792	87.669889			
15689	6.900563	2.946634	-5.164934	3.570631	-2.546399	-1.828750	-171.707497	-72.436567	87.455307			
15690	8.896916	1.974542	-5.635265	2.633360	-2.472335	0.275070	-172.225383	-72.188813	87.345130			
15691	10.379033	0.629613	-5.852505	1.280153	-2.319351	1.821489	-172.778076	-72.042481	87.268965			
15692	10.759221	-0.833067	-5.782915	-0.230599	-2.230718	2.223403	-173.232726	-72.037101	87.191269			
15693	10.341930	-2.150363	-5.439502	-1.618655	-2.115965	1.766185	-173.570032	-72.120274	87.099884			
15694	9.692091	-2.856788	-4.981805	-2.393536	-1.927861	1.025694	-173.808004	-72.245802	87.033412			
15695	8.850037	-2.879104	-4.374109	-2.485166	-1.617370	0.033797	-173.965689	-72.362644	86.965084			
15696	8.136208	-2.435691	-3.822198	-2.096672	-1.296079	-0.831384	-174.098063	-72.442518	86.955661			
15697	8.117936	-1.738153	-3.477782	-1.428446	-0.946491	-0.976358	-174.264334	-72.476148	87.014980			
15698	8.594193	-0.934912	-3.520947	-0.627586	-0.811086	-0.534781	-174.504813	-72.483332	87.196391			
15699	9.002430	-0.218644	-3.637695	0.084753	-0.768143	-0.131410	-174.830525	-72.478218	87.485013			
15700	9.198460	0.367623	-3.615220	0.652483	-0.663213	0.033683	-175.257582	-72.492854	87.904152			
15701	8.997742	0.726955	-3.491741	0.978802	-0.593778	-0.201787	-175.784464	-72.528051	88.411245			
15702	8.727985	0.806066	-3.317262	1.019882	-0.511832	-0.510565	-176.367949	-72.584613	88.984270			
15703	8.280425	0.742618	-3.164629	0.918654	-0.511003	-0.979417	-176.978435	-72.640222	89.577117			
15704	7.809950	0.529121	-3.110397	0.674772	-0.615835	-1.439204	-177.587137	-72.682001	90.186326			
15705	7.495503	0.304670	-3.073034	0.424313	-0.687270	-1.746306	-178.153128	-72.696711	90.761659			
15706	7.199106	0.245668	-2.951911	0.339792	-0.662113	-2.063663	-178.657007	-72.674298	91.309520			
15707	7.190544	0.171684	-2.852039	0.242477	-0.566934	-2.099887	-179.118643	-72.610807	91.812443			
15708	7.353033	0.189731	-2.795719	0.238937	-0.453622	-1.960539	-179.535701	-72.517215	92.287132			
15709	7.624862	0.263217	-2.853480	0.294685	-0.408640	-1.682726	-179.929316	-72.395158	92.743468			
15710	8.048181	0.351928	-2.879399	0.361467	-0.282087	-1.269988	179.707397	-72.250946	93.204197			
15711	8.522139	0.453680	-2.971017	0.442102	-0.196580	-0.789082	179.365423	-72.093371	93.654184			
15712	8.943901	0.470219	-3.057961	0.437380	-0.124282	-0.359711	179.053771	-71.942669	94.096863			
15713	9.384146	0.452380	-3.107778	0.395390	-0.011918	0.075113	178.775393	-71.803841	94.517868			
15714	9.626555	0.437783	-3.117756	0.360072	0.073725	0.308947	178.550443	-71.704960	94.918567			
15715	9.691788	0.333363	-2.988297	0.234190	0.224622	0.329625	178.380846	-71.645180	95.275321			
15716	9.461736	0.257921	-2.958668	0.155026	0.182332	0.101313	178.278998	-71.626434	95.599290			
15717	9.170426	0.176914	-2.830939	0.070520	0.207893	-0.216124	178.243649	-71.630568	95.874869			
15718	8.889013	0.177731	-2.628182	0.066261	0.309883	-0.546995	178.292777	-71.650516	96.108375			
15719	8.734044	0.162198	-2.389255	0.041602	0.483497	-0.769299	178.416126	-71.677794	96.283758			
15720	8.743689	0.078850	-2.255925	-0.046742	0.601186	-0.802477	178.601865	-71.716331	96.435501			
15721	8.942438	-0.073547	-2.177270	-0.204527	0.717589	-0.639011	178.842217	-71.767000	96.552103			
15722	9.214370	-0.250015	-2.055843	-0.391013	0.889096	-0.418530	179.135500	-71.846678	96.646050			
15723	9.486470	-0.318464	-1.987543	-0.463327	1.015068	-0.179424	179.490268	-71.950758	96.700146			
15724	9.564452	-0.321983	-2.036975	-0.449597	0.970732	-0.087094	179.892516	-72.085740	96.736134			
15725	9.437937	-0.033914	-2.241545	-0.118393	0.747998	-0.141766	-179.685669	-72.244509	96.735200			
15726	9.140024	0.367182	-2.647662	0.358490	0.299815	-0.301300	-179.276590	-72.402190	96.724130			
15727	8.829656	0.801181	-2.924828	0.855766	-0.016310	-0.516093	-178.884402	-72.528996	96.692710			
15728	8.750839	1.080564	-3.112763	1.181108	-0.189295	-0.538896	-178.510446	-72.620969	96.665901			
15729	8.884744	1.322215	-3.081965	1.432045	-0.089695	-0.425110	-178.126849	-72.688097	96.618265			
15730	9.097225	1.583323	-2.888376	1.674879	0.193583	-0.285547	-177.758176	-72.753867	96.570082			
15731	9.347972	1.758267	-2.720758	1.831639	0.450716	-0.100812	-177.424318	-72.832453	96.508481			
15732	9.465355	1.939156	-2.548112	1.994729	0.670789	-0.044513	-177.144655	-72.930755	96.459882			
15733	9.446566	1.963192	-2.359466	2.000973	0.837868	-0.119758	-176.932962	-73.042689	96.438641			
15734	9.474260	1.859257	-2.168659	1.875702	0.995304	-0.147668	-176.775028	-73.170366	96.439749			
15735	9.465201	1.668840	-1.867224	1.645040	1.228649	-0.239505	-176.674084	-73.307717	96.471251			
15736	9.412012	1.390697	-1.765541	1.359593	1.242781	-0.312997	-176.618106	-73.454477	96.537721			
15737	9.348041	1.043688	-1.737415	1.016515	1.171973	-0.374101	-176.617375	-73.588068	96.644893			
15738	9.437172	0.523290	-1.826880	0.515327	1.003474	-0.252405	-176.676577	-73.706348	96.802919			
15739	9.672723	0.228324	-1.974420	0.239022	0.859682	0.021733	-176.775768	-73.817353	97.010067			
15740	9.887785	-0.019077	-2.234986	0.028258	0.610168	0.306140	-176.914488	-73.923902	97.293068			
15741	10.220135	-0.240851	-2.599354	-0.146431	0.301020	0.730259	-177.146483	-73.990518	97.703521			
15742	10.824925	-0.372683	-2.966012	-0.247625	0.084941	1.414358	-177.489739	-74.011982	98.245691			
15743	11.312909	-0.274365	-2.957009	-0.195471	0.237094	1.879472	-177.999688	-74.025803	98.950287			
15744	11.248116	0.252173	-2.970903	0.293498	0.297180	1.816387	-178.686819	-74.043984	99.808858			
15745	10.908896	1.071021	-3.689128	1.203394	-0.320640	1.685556	-179.584170	-74.030075	100.823418			
15746	11.103959	1.923982	-4.874666	2.195137	-1.220403	2.206198	179.265084	-73.967657	101.991271			
15747	11.797576	2.425623	-5.660641	2.717463	-1.678177	3.106591	177.898255	-73.908574	103.272557			
15748	11.761556	2.525170	-5.336141	2.667256	-1.380013	3.000025	176.387657	-73.907732	104.615289			
15749	11.019333	1.761786	-4.406325	1.713048	-0.877976	2.029578	174.884188	-73.927659	105.921712			
15750	10.323316	0.866123	-3.642114	0.675413	-0.539586	1.134377	173.533755	-73.938246	107.095500			
15751	9.532458	0.343542	-3.610113	0.160709	-0.837998	0.350500	172.440708	-73.950781	108.053128			
15752	8.808910	-0.330024	-3.992088	-0.415912	-1.531977	-0.266875	171.681380	-73.969059	108.745876			
15753	8.026475	-1.227862	-4.404460	-1.181311	-2.303203	-0.945277	171.323717	-73.955137	109.152996			
15754	7.415531	-2.070106	-4.604192	-1.920488	-2.810384	-1.512839	171.380825	-73.888648	109.298565			
15755	7.015268	-2.446840	-4.599327	-2.236617	-2.976115	-1.907308	171.790937	-73.755442	109.240505			
15756	6.911462	-2.256713	-4.622138	-2.005024	-2.974920	-1.979757	172.413078	-73.571653	109.079547			
15757	6.950340	-1.682420	-4.738621	-1.385721	-2.936072	-1.872201	173.111895	-73.357153	108.910164			
15758	7.163559	-1.053578	-4.893128	-0.718515	-2.861781	-1.586936	173.788315	-73.149945	108.797046			
15759	7.376278	-0.424288	-4.768147	-0.110017	-2.515453	-1.387434	174.361021	-72.973853	108.772490			
15760	7.547004	-0.057946	-4.686938	0.246971	-2.278442	-1.229239	174.787708	-72.838295	108.843888			
15761	7.806888	0.122984	-4.532003	0.389414	-1.993190	-1.016259	175.070528	-72.730068	109.002242			
15762	7.982069	0.244877	-4.446582	0.489078	-1.814672	-0.867677	175.228868	-72.647845	109.215074			
15763	8.313649	0.196850	-4.425506	0.416052	-1.698143	-0.556133	175.284176	-72.579223	109.461080			
15764	8.622384	0.040693	-4.565637	0.273752	-1.769580	-0.221762	175.265873	-72.525681	109.723708			
15765	8.935900	-0.068168	-4.639290	0.157337	-1.769333	0.098048	175.218698	-72.483928	109.967901			
15766	9.140384	-0.075445	-4.604396	0.122161	-1.676161	0.283269	175.191739	-72.457663	110.139437			
15767	9.278673	0.006530	-4.542103	0.173028	-1.552970	0.399210	175.216550	-72.433586	110.210263			
15768	9.492888	0.110355	-4.433813	0.226880	-1.360532	0.574000	175.295394	-72.420109	110.173598			
15769	9.618336	0.019038	-4.392317	0.120363	-1.307437	0.679277	175.414905	-72.412293	110.060717			
15770	9.761303	-0.045901	-4.314322	0.031314	-1.209621	0.790819	175.605064	-72.415908	109.857231			
15771	9.862083	-0.093923	-4.096246	-0.068404	-0.990297	0.820438	175.858170	-72.429072	109.577710			
15772	9.783909	-0.171412	-3.971100	-0.150577	-0.916245	0.706899	176.191284	-72.453531	109.208562			
15773	9.709612	-0.379832	-3.945286	-0.330765	-0.966820	0.624837	176.590423	-72.479202	108.776416			
15774	9.363643	-0.559128	-3.982234	-0.438523	-1.143928	0.304017	177.038113	-72.499378	108.308289			
15775	9.036412	-0.675753	-3.981415	-0.497663	-1.261311	-0.008279	177.510659	-72.499491	107.823028			
15776	8.630536	-0.817612	-3.857153	-0.607072	-1.291606	-0.432099	177.969965	-72.472892	107.355868			
15777	8.419646	-0.900208	-3.780324	-0.669036	-1.288827	-0.653924	178.413474	-72.401349	106.905232			
15778	8.216142	-0.878415	-3.695806	-0.636405	-1.244486	-0.869435	178.827904	-72.292189	106.479616			
15779	8.148105	-0.815065	-3.614675	-0.578700	-1.148489	-0.954480	179.183073	-72.150187	106.097841			
15780	8.234867	-0.745592	-3.551560	-0.527299	-1.019086	-0.887114	179.487612	-71.984875	105.749568			
15781	8.390666	-0.642999	-3.519556	-0.445002	-0.885141	-0.745030	179.742568	-71.796802	105.435237			
15782	8.575722	-0.535401	-3.542526	-0.348709	-0.789506	-0.558816	179.959410	-71.604258	105.139400			
15783	8.762735	-0.480538	-3.558260	-0.306863	-0.698770	-0.373666	-179.855453	-71.411100	104.854280			
15784	8.863320	-0.523660	-3.686676	-0.325318	-0.763473	-0.234826	-179.675212	-71.228211	104.557167			
15785	8.930688	-0.526249	-3.829986	-0.298107	-0.841514	-0.122185	-179.481859	-71.051687	104.235828			
15786	8.932249	-0.447381	-4.002506	-0.179148	-0.947837	-0.062061	-179.279937	-70.889097	103.879920			
15787	8.852048	-0.266364	-4.074070	0.020749	-0.963836	-0.112261	-179.078109	-70.733447	103.489611			
15788	8.904067	-0.131672	-4.041187	0.140800	-0.856887	-0.072215	-178.884811	-70.588095	103.059545			
15789	8.979978	0.039709	-3.912040	0.272695	-0.647049	-0.042705	-178.699134	-70.447441	102.589737			
15790	9.129789	0.132281	-3.793265	0.327116	-0.444487	0.059232	-178.511979	-70.318676	102.072290			
15791	9.137996	0.127877	-3.621018	0.287920	-0.263563	0.009669	-178.320956	-70.197644	101.515835			
