// General information: 
//  MT Manager version: 2022.0.0 
//  XDA version: 2022.0.0 build 7085 rev 119802 built on 2022-11-08
// Device information: 
//  DeviceId: 00B492A8
//  ProductCode: MTW2-3A7G6
//  Firmware Version: 4.6.0
//  Hardware Version: 2.0.0
// Device settings: 
//  Filter Profile: human(46.1)
//  Option Flags: Orientation Smoother Disabled, Position/Velocity Smoother Disabled, Continuous Zero Rotation Update Disabled, AHS Disabled, ICC Disabled
// Coordinate system: ENU
PacketCounter	Acc_X	Acc_Y	Acc_Z	FreeAcc_E	FreeAcc_N	FreeAcc_U	Roll	Pitch	Yaw	Vel_E	Vel_N	Vel_U
14665	8.869426	1.958633	-3.412124	-0.084950	0.093312	-0.110646	150.485447	-65.342296	140.854530			
14666	8.920760	1.943798	-3.474180	-0.089672	0.053484	-0.044508	150.623379	-65.347999	140.745535			
14667	8.901848	1.965825	-3.457327	-0.061778	0.078960	-0.063307	150.763087	-65.355409	140.644661			
14668	8.893177	2.000989	-3.422401	-0.030694	0.127896	-0.076771	150.904038	-65.365682	140.551727			
14669	8.875925	2.056002	-3.397303	0.024678	0.173664	-0.090544	151.052052	-65.381102	140.456567			
14670	8.859207	2.110595	-3.371486	0.079936	0.219310	-0.104311	151.194538	-65.403870	140.371185			
14671	8.859449	2.114969	-3.283152	0.066456	0.303938	-0.135641	151.341468	-65.433131	140.283761			
14672	8.869565	2.073841	-3.231933	0.021651	0.339207	-0.153503	151.487007	-65.477867	140.198468			
14673	8.920613	2.085688	-3.107995	-0.009875	0.468998	-0.150028	151.629603	-65.529084	140.119436			
14674	8.981184	2.052053	-3.021476	-0.072714	0.549414	-0.133083	151.782932	-65.590274	140.040614			
14675	9.084411	2.031013	-3.001725	-0.115833	0.587092	-0.050322	151.936859	-65.655641	139.964445			
14676	9.169046	2.015824	-3.009484	-0.138162	0.597690	0.026805	152.107974	-65.726609	139.877518			
14677	9.135029	1.954928	-3.117976	-0.130874	0.470943	0.023640	152.299861	-65.798235	139.776507			
14678	9.124850	1.936567	-3.273776	-0.076141	0.326747	0.067505	152.518966	-65.877680	139.658473			
14679	8.961872	1.889334	-3.354854	-0.021606	0.196470	-0.060730	152.743083	-65.959402	139.536247			
14680	8.831769	1.950607	-3.369674	0.097627	0.177404	-0.162886	152.966377	-66.027022	139.420336			
14681	8.811838	2.026761	-3.393540	0.197641	0.187709	-0.158775	153.204951	-66.083874	139.287687			
14682	8.809360	2.036627	-3.445655	0.242198	0.151882	-0.140901	153.452559	-66.144757	139.147552			
14683	8.762738	2.000294	-3.436784	0.239748	0.138832	-0.193880	153.698830	-66.207476	139.023729			
14684	8.869035	2.066316	-3.357225	0.258418	0.269424	-0.114182	153.935115	-66.268693	138.930694			
14685	8.905275	2.173431	-3.200751	0.309602	0.465460	-0.119391	154.180385	-66.337845	138.838319			
14686	8.913464	2.083258	-3.112205	0.216800	0.512526	-0.160439	154.447546	-66.418284	138.722453			
14687	8.964345	2.055309	-2.994089	0.157684	0.621967	-0.161957	154.712190	-66.500590	138.609003			
14688	8.992259	2.019494	-2.820846	0.078356	0.768728	-0.205443	154.955184	-66.580486	138.523369			
14689	8.928681	2.102488	-2.687494	0.145113	0.906703	-0.298424	155.219991	-66.662325	138.389031			
14690	8.857109	1.909459	-2.778755	0.046659	0.732708	-0.364046	155.533357	-66.736046	138.178060			
14691	8.833876	1.773984	-3.017117	0.036497	0.471968	-0.322522	155.872485	-66.783588	137.940692			
14692	8.743667	1.697321	-3.263734	0.099667	0.211822	-0.329558	156.156375	-66.832354	137.778434			
14693	8.658529	1.803634	-3.348668	0.266156	0.170525	-0.360870	156.433416	-66.870265	137.638978			
14694	8.644578	1.798638	-3.422975	0.307469	0.111051	-0.348350	156.714767	-66.890914	137.478456			
14695	8.704278	1.688381	-3.526191	0.244377	0.001704	-0.273853	157.000643	-66.920034	137.291589			
14696	8.563661	1.330112	-3.551550	-0.007181	-0.202161	-0.449032	157.308621	-66.958493	137.096477			
14697	8.685930	1.206053	-3.508612	-0.150327	-0.175152	-0.370389	157.622290	-66.978964	136.910716			
14698	8.697996	1.023208	-3.597520	-0.267555	-0.314789	-0.353643	157.958795	-66.985787	136.714420			
14699	8.633154	0.883664	-3.712956	-0.314466	-0.476883	-0.390803	158.312846	-66.983536	136.513122			
14700	8.611151	0.656705	-3.855974	-0.441373	-0.687326	-0.390138	158.690920	-66.953706	136.310096			
14701	8.580062	0.609051	-4.002872	-0.409996	-0.822707	-0.369890	158.960726	-66.885290	136.215038			
14702	8.602598	0.716896	-4.239165	-0.228726	-0.952027	-0.245532	159.164188	-66.815122	136.169580			
14703	8.612559	0.637785	-4.276340	-0.283942	-0.998233	-0.231826	159.401074	-66.745306	136.039580			
14704	8.556578	0.221092	-4.384733	-0.592215	-1.269593	-0.298113	159.725108	-66.631938	135.772125			
14705	8.714640	-0.065548	-4.785064	-0.740080	-1.662032	-0.038441	160.090613	-66.469074	135.431622			
14706	8.850593	-0.190879	-4.852941	-0.866729	-1.701816	0.100585	160.415612	-66.307317	135.167971			
14707	9.187047	0.235690	-4.331216	-0.787243	-0.943643	0.272279	160.566416	-66.176440	135.143381			
14708	9.362651	1.073480	-3.468595	-0.432990	0.232343	0.217330	160.611159	-66.083248	135.240762			
14709	9.320636	1.708705	-2.854756	-0.105540	1.038355	0.028767	160.593555	-66.000665	135.335033			
14710	9.201369	2.138858	-2.584471	0.192186	1.436730	-0.126706	160.544483	-65.918003	135.378837			
14711	9.030573	2.351331	-2.485443	0.380953	1.574700	-0.292571	160.502561	-65.852004	135.345450			
14712	9.095951	2.252716	-2.306516	0.200998	1.705438	-0.316259	160.481015	-65.773584	135.207174			
14713	9.250229	1.687710	-2.367551	-0.324221	1.454763	-0.231512	160.533133	-65.654540	134.941939			
14714	9.480102	1.028151	-2.807602	-0.816888	0.875620	0.055340	160.644924	-65.506469	134.591041			
14715	9.606425	0.506407	-3.309256	-1.139224	0.284670	0.292365	160.786443	-65.366847	134.206074			
14716	9.500439	0.143963	-3.577718	-1.340000	-0.108295	0.250699	160.885495	-65.267183	133.883371			
14717	9.278104	0.081314	-3.654149	-1.311633	-0.248070	0.069654	160.917311	-65.188462	133.666675			
14718	9.169624	0.411810	-3.589309	-1.017581	-0.068488	-0.009905	160.919857	-65.125926	133.522100			
14719	8.834310	0.640256	-3.425236	-0.780725	0.076980	-0.348453	160.940880	-65.083749	133.367689			
14720	8.423428	0.676034	-3.334998	-0.665950	0.051768	-0.752489	160.967296	-65.024644	133.208584			
14721	8.275851	0.884936	-3.457976	-0.402139	0.003220	-0.808873	160.962995	-64.924820	133.087714			
14722	8.322134	1.163509	-3.555272	-0.145650	0.067181	-0.689866	160.937188	-64.807248	132.978292			
14723	8.374031	1.287104	-3.566082	-0.061008	0.141043	-0.621696	160.920865	-64.675466	132.832803			
14724	8.430409	1.256660	-3.705950	-0.072595	0.043091	-0.518717	160.911341	-64.527807	132.654436			
14725	8.521571	1.164863	-3.715606	-0.194789	0.042956	-0.445726	160.906286	-64.377155	132.465983			
14726	8.544056	1.076536	-3.612502	-0.332663	0.119820	-0.480757	160.889285	-64.211391	132.307067			
14727	8.598324	1.132291	-3.543086	-0.340816	0.240872	-0.453602	160.878770	-64.029873	132.177165			
14728	8.661056	1.159332	-3.423785	-0.393691	0.397109	-0.444257	160.890634	-63.839237	132.048570			
14729	8.595396	1.239587	-3.438201	-0.317071	0.421633	-0.487440	160.909865	-63.642868	131.926711			
14730	8.537934	1.299796	-3.442206	-0.264583	0.449154	-0.530299	160.918768	-63.442812	131.826205			
14731	8.498713	1.433982	-3.375643	-0.174768	0.573468	-0.575811	160.919050	-63.228995	131.728507			
14732	8.646359	1.532712	-3.306931	-0.174520	0.749025	-0.461061	160.922559	-63.000339	131.607356			
14733	8.841540	1.482706	-3.228814	-0.326380	0.891460	-0.331383	160.943272	-62.753454	131.445907			
14734	8.914799	1.314620	-3.404702	-0.468885	0.733275	-0.219140	160.992002	-62.496449	131.261738			
14735	8.913873	1.217996	-3.552091	-0.534465	0.605412	-0.173929	161.042385	-62.237769	131.103461			
14736	8.953571	1.337980	-3.470479	-0.487408	0.772342	-0.160402	161.088629	-61.988031	130.976816			
14737	8.928011	1.424369	-3.277702	-0.483685	0.996394	-0.259959	161.141327	-61.728842	130.833499			
14738	8.914795	1.371826	-3.200891	-0.572789	1.072049	-0.319340	161.210936	-61.464981	130.650850			
14739	8.851871	1.143446	-3.201950	-0.781155	0.995561	-0.415132	161.293451	-61.192502	130.456378			
14740	8.986904	1.102563	-3.178106	-0.890508	1.089321	-0.320553	161.368393	-60.904576	130.295900			
14741	9.273034	1.188637	-3.155382	-0.934493	1.291755	-0.075320	161.444444	-60.610186	130.145774			
14742	9.409337	1.189738	-3.170486	-0.995838	1.373700	0.042471	161.536977	-60.337486	129.962902			
14743	9.621216	1.103892	-3.063638	-1.192623	1.551305	0.154417	161.626971	-60.078853	129.799604			
14744	9.954795	1.206024	-2.721069	-1.322898	2.042823	0.288468	161.695355	-59.866599	129.677523			
14745	10.055939	1.283709	-2.316383	-1.414172	2.482342	0.185985	161.760862	-59.680860	129.530353			
14746	10.102964	1.079056	-2.339528	-1.617577	2.430941	0.196384	161.843954	-59.514362	129.328659			
14747	10.221026	0.856150	-2.914876	-1.702947	1.935902	0.533863	161.882556	-59.426113	129.182510			
14748	10.115806	0.788540	-2.708787	-1.789625	2.043435	0.331793	161.776051	-59.459027	129.212295			
14749	10.103107	0.994100	-2.432287	-1.679436	2.330912	0.223413	161.502592	-59.557930	129.416136			
14750	10.008646	1.098586	-2.172989	-1.632429	2.516932	0.041340	161.137274	-59.704340	129.717981			
14751	10.108299	1.395429	-1.730256	-1.521176	2.996432	-0.023617	160.702383	-59.922268	130.021606			
14752	10.024331	1.182829	-1.502138	-1.742031	3.019956	-0.221670	160.318454	-60.219073	130.221014			
14753	9.831007	0.926405	-1.561731	-1.878593	2.747137	-0.385610	160.019167	-60.518812	130.300495			
14754	9.636243	0.875382	-1.610617	-1.829499	2.569408	-0.524605	159.690356	-60.770931	130.322253			
14755	9.290526	0.832130	-1.780173	-1.702143	2.248880	-0.745134	159.315919	-60.911484	130.271624			
14756	9.456163	0.782188	-1.922570	-1.760043	2.158544	-0.540684	158.993149	-60.896058	130.043339			
14757	9.951034	0.867562	-2.055322	-1.811644	2.277854	-0.038778	158.739736	-60.687840	129.639598			
14758	10.526906	0.822062	-2.441775	-1.960501	2.197420	0.617131	158.582586	-60.323744	129.063250			
14759	11.353447	0.619260	-2.916908	-2.328015	2.121367	1.495353	158.510088	-59.862253	128.347479			
14760	11.965155	0.095602	-3.738308	-2.855100	1.579366	2.291124	158.568956	-59.539587	127.614024			
14761	12.003979	-0.085272	-3.452138	-3.093133	1.845750	2.147482	158.644812	-59.515936	127.106852			
14762	11.993109	0.091243	-2.448570	-3.102655	2.755528	1.703342	158.357689	-59.735386	127.097707			
14763	11.941229	0.754107	-1.908114	-2.559522	3.349959	1.546392	157.927655	-60.042681	127.387025			
14764	12.227728	1.546185	-1.638831	-1.946986	3.854842	1.846748	157.384245	-60.437654	127.756896			
14765	12.680734	1.560585	-1.962222	-1.990242	3.651954	2.426091	156.795122	-60.921317	128.073312			
14766	13.030623	1.521482	-2.252944	-2.040378	3.398380	2.894555	156.248829	-61.498938	128.330523			
14767	13.029925	1.465769	-2.623843	-1.977497	2.916324	3.086705	155.614363	-62.152695	128.697510			
14768	12.858346	1.602336	-3.016423	-1.676158	2.375590	3.169887	154.852098	-62.938351	129.281948			
14769	12.633088	2.299299	-2.663305	-0.960574	2.595445	3.005678	153.846062	-63.949708	130.207454			
14770	11.820067	3.021289	-2.019077	-0.102038	2.835728	2.223059	152.404990	-65.263380	131.833006			
14771	10.918771	4.931455	-0.898221	1.784584	3.798554	1.444420	150.272117	-66.813526	134.454590			
14772	10.439724	6.404928	-0.107701	3.172582	4.464824	1.142223	147.071698	-68.615174	138.192334			
14773	9.967971	6.817145	0.110111	3.686491	4.284745	0.858801	142.831473	-70.609327	142.752575			
14774	9.766597	6.419925	0.538474	3.364804	4.104680	0.613377	137.734911	-72.685106	147.864710			
14775	9.221319	6.157551	1.334462	3.204379	4.267577	-0.002971	131.788385	-74.553071	153.338651			
14776	9.090461	5.681545	1.774521	2.843480	4.153222	-0.183714	126.077687	-75.938310	158.108526			
14777	9.863954	5.124741	-0.320888	2.765612	1.735904	0.817112	121.366607	-76.879737	161.664239			
14778	10.651903	4.700893	-1.684307	2.587446	0.072919	1.662959	116.766619	-77.627390	164.944198			
14779	10.651945	3.768065	-2.599042	1.942592	-1.279520	1.545183	112.669838	-78.301885	167.673723			
14780	10.973567	2.932212	-2.970859	1.187536	-1.998901	1.695313	109.121851	-78.882327	169.845077			
14781	11.041782	2.530457	-3.358199	0.886311	-2.611472	1.676182	106.119422	-79.506642	171.506290			
14782	10.534306	2.199757	-2.967940	0.657077	-2.417149	1.065890	103.653473	-80.170871	172.592285			
14783	10.302206	0.721810	-4.358067	-0.569529	-4.047721	0.624773	102.085851	-80.810933	172.809889			
14784	10.790504	0.434066	-5.464217	-0.810765	-5.209242	1.081681	100.832277	-81.478404	173.146073			
14785	11.185275	0.973498	-5.415395	-0.283418	-5.178875	1.522315	98.042913	-82.227819	175.179048			
14786	11.317587	0.442293	-4.989325	-0.762499	-4.891698	1.530341	92.928360	-83.055928	179.588743			
14787	11.154959	0.477402	-3.807383	-0.631196	-3.850208	1.319720	85.082530	-84.008562	-173.181572			
14788	10.761702	-0.844957	-3.698347	-1.732239	-3.930263	0.758659	73.465899	-85.030360	-162.062802			
14789	10.276361	-1.886286	-3.880551	-2.523241	-4.270638	0.167783	55.685916	-85.796460	-144.616914			
14790	10.415145	-3.136234	-4.227598	-3.553719	-4.825525	0.200361	31.513564	-85.789080	-120.474464			
14791	9.460169	-3.331838	-3.310271	-3.521007	-4.084377	-0.731625	12.464424	-84.770789	-101.233532			
14792	8.426515	-3.967352	-2.458135	-3.990050	-3.412213	-1.736952	3.116335	-83.263399	-91.467502			
14793	7.720591	-3.337365	-2.710964	-3.216090	-3.814016	-2.518985	-0.622642	-81.758398	-86.787489			
14794	7.048576	-2.570387	-2.440300	-2.341960	-3.642180	-3.218075	-1.661626	-80.445272	-84.333013			
14795	6.958290	-1.586125	-1.640152	-1.319528	-2.962131	-3.247250	-0.772811	-79.222125	-83.727237			
14796	7.188008	-0.457289	-1.142195	-0.181267	-2.566247	-2.989141	0.785446	-78.126619	-83.879289			
14797	7.066718	0.321690	-0.962723	0.602782	-2.388704	-3.112040	2.234345	-77.243620	-83.977912			
14798	7.279563	1.060193	-0.959974	1.366792	-2.405903	-2.929327	3.459045	-76.498567	-83.970712			
14799	7.258405	1.622780	-0.683830	1.898222	-2.103393	-2.901995	4.479257	-75.787528	-83.939216			
14800	6.903267	1.805195	-0.571021	2.064664	-1.922552	-3.233882	5.356425	-75.171495	-83.808326			
14801	6.695935	2.148312	-0.455712	2.383101	-1.721988	-3.408470	6.391429	-74.644470	-83.817368			
14802	6.521436	2.744619	-0.475182	2.964804	-1.584868	-3.568813	7.632502	-74.123472	-84.138217			
14803	6.360847	3.085077	-0.175728	3.210119	-1.199484	-3.626795	8.982597	-73.604951	-84.677498			
14804	6.137649	3.620803	0.562011	3.518099	-0.337052	-3.599311	10.326939	-73.161574	-85.319306			
14805	5.772509	4.118744	1.006773	3.842134	0.292799	-3.775170	11.522252	-72.824425	-86.064954			
14806	5.385259	4.554442	1.043151	4.214352	0.543569	-4.087672	12.360107	-72.662376	-86.708885			
14807	5.060528	4.531351	0.655307	4.272580	0.277577	-4.498602	12.698466	-72.678157	-86.972090			
14808	4.485332	3.983424	0.724965	3.711383	0.380215	-5.059531	12.735040	-72.845901	-86.970932			
14809	4.404273	3.299712	0.776304	3.033703	0.291535	-5.165110	12.964882	-73.159856	-87.246100			
14810	4.713091	2.865804	0.873366	2.583827	0.205049	-4.865919	13.486401	-73.599753	-87.871977			
14811	5.182394	2.334064	1.164094	1.980401	0.243522	-4.364876	14.297878	-74.180009	-88.811966			
14812	5.742375	1.630214	1.772914	1.115913	0.532734	-3.709726	15.481117	-74.873056	-90.193675			
14813	6.726010	0.877240	2.044035	0.278034	0.418402	-2.746319	17.097517	-75.639154	-92.108661			
14814	7.965201	0.051422	2.600399	-0.723146	0.532950	-1.481977	18.789781	-76.411955	-94.130548			
14815	9.739432	-0.934310	3.968769	-2.099517	1.298782	0.452972	20.226860	-77.140799	-95.886734			
14816	11.599101	-2.091310	5.228691	-3.613147	1.950347	2.409881	21.399313	-77.771737	-97.182120			
14817	13.345919	-2.995406	6.077789	-4.799101	2.300178	4.176661	22.940181	-78.254311	-98.391254			
14818	14.587417	-2.633905	6.618342	-4.754475	2.698910	5.472609	25.749887	-78.456741	-100.133115			
14819	15.652363	-0.763744	7.413388	-3.480651	3.670334	6.768638	29.805589	-78.266899	-102.408475			
14820	16.388632	1.655421	9.102205	-2.130672	5.627285	8.018426	33.346569	-77.525938	-103.937108			
14821	15.598477	3.576882	10.494805	-1.174359	7.369856	7.809077	34.430699	-76.220133	-103.387426			
14822	12.506674	4.314835	11.607088	-0.986263	8.934795	5.317880	32.869032	-74.722116	-100.785174			
14823	8.291097	3.614585	12.551729	-1.851792	10.296041	1.585025	30.433659	-73.741723	-97.997448			
14824	6.209828	2.000514	9.550249	-2.051565	7.493244	-1.244544	29.139192	-73.619232	-96.927786			
14825	6.191057	1.914722	5.019682	-0.343203	3.441414	-2.380918	28.845461	-73.888175	-97.003739			
14826	6.275581	2.137351	2.621340	0.791652	1.383675	-2.864218	28.584115	-74.170942	-97.127872			
14827	6.656390	1.996055	2.049628	0.885191	0.742443	-2.660217	27.954163	-74.408319	-96.976207			
14828	7.575079	1.637554	1.558799	0.722894	-0.037272	-1.940641	27.643472	-74.772468	-97.232444			
14829	9.534790	2.015130	0.372748	1.431351	-1.429193	-0.272259	27.902046	-75.434963	-98.148949			
14830	11.105654	1.622488	-1.326951	1.569672	-3.380389	0.856703	27.848673	-76.351318	-98.973150			
14831	12.423761	-0.158076	-3.613843	0.561956	-6.166233	1.549145	27.026543	-77.542039	-99.122896			
14832	14.752745	-1.642126	-5.266789	-0.375455	-8.355041	3.533306	25.201398	-79.136710	-97.569153			
14833	17.243672	-1.128343	-3.263928	-0.399542	-6.360299	6.577217	22.866483	-80.969699	-94.888339			
14834	19.132243	-2.345531	-3.537814	-1.315713	-6.822296	8.511255	23.087348	-82.347673	-94.070904			
14835	17.585538	-1.367689	0.022297	-1.510568	-2.803696	7.536037	27.680701	-82.153949	-96.502558			
14836	13.659925	1.485969	4.556783	-0.668781	2.646403	4.402898	32.660967	-80.197569	-98.617984			
14837	8.266017	5.061859	9.171777	0.323223	8.618692	0.365794	35.358595	-76.798012	-98.120569			
14838	0.299596	9.326590	10.998413	2.900227	13.549276	-5.818082	36.689812	-73.338684	-97.138183			
14839	-8.701128	13.348967	3.204272	10.321891	11.396880	-15.079610	38.606312	-73.298221	-99.067189			
14840	-8.232203	13.497494	-10.409972	17.238225	-0.789606	-17.582471	41.043563	-75.676748	-105.033398			
14841	-1.194235	8.672119	-17.249375	15.055473	-11.847038	-12.441180	46.487874	-78.558353	-114.696322			
14842	5.571551	3.643442	-16.786452	8.854684	-15.155082	-5.584734	60.933698	-81.392896	-131.595135			
14843	22.536455	-2.116770	-7.277515	-1.904680	-9.546487	11.877606	75.535154	-82.992067	-147.281340			
14844	19.980120	-6.234872	-2.295727	-7.050943	-5.368479	9.287082	73.918299	-83.976787	-145.520531			
14845	14.044445	-6.814481	1.332926	-7.902987	-1.725697	3.604165	64.984902	-85.097517	-136.186034			
14846	12.446758	-7.556145	3.100316	-8.761615	-0.179445	2.221419	55.209578	-86.346385	-126.375326			
14847	10.593059	-7.125899	3.270399	-8.103235	0.349095	0.574579	51.668227	-87.903258	-122.612096			
14848	7.606301	-5.674572	0.853411	-5.778229	-1.190213	-2.330876	72.906443	-88.895126	-144.146634			
14849	7.223559	-4.541881	-3.243844	-3.424165	-4.547402	-2.676532	115.463663	-88.524439	172.819551			
14850	7.607823	-2.312737	-4.126911	-1.156420	-4.574047	-2.197056	128.349130	-87.449199	159.966859			
14851	7.574316	-0.530633	-4.122663	0.404766	-3.909266	-2.118593	133.461379	-86.047632	155.184673			
14852	8.814665	0.361366	-4.557877	1.166833	-3.875914	-0.745439	135.542084	-84.593525	153.810573			
14853	9.595869	1.321402	-3.558859	1.529531	-2.451980	0.093745	135.388864	-83.343251	155.198637			
14854	9.766638	2.353940	-1.950215	1.755581	-0.472713	0.258202	133.418900	-82.279201	158.765878			
14855	9.781692	3.397343	-0.421380	1.940558	1.396075	0.271035	130.203515	-81.276105	163.579903			
14856	9.398144	4.469556	0.496749	2.367149	2.674586	-0.025613	126.970967	-80.305347	168.058161			
14857	8.958746	5.622345	0.995939	3.046288	3.611838	-0.297796	125.262646	-79.438072	170.413159			
14858	8.646458	6.462746	0.778554	3.805514	3.795288	-0.418662	126.119611	-78.866870	169.415536			
14859	7.779234	5.423838	0.362867	3.198714	2.990458	-1.393009	130.082052	-78.551153	164.593494			
14860	7.200227	3.782838	-0.270831	2.127535	1.792843	-2.165188	136.261605	-77.949704	156.997481			
14861	7.598815	2.154020	-3.028909	1.591732	-1.181060	-1.589349	142.584070	-76.795712	148.951381			
14862	9.440203	0.640406	-5.569140	0.602499	-3.627409	0.531974	147.317649	-75.539997	142.970495			
14863	9.307556	0.962796	-5.514687	0.773499	-3.243187	0.524052	150.017345	-74.567265	139.425821			
14864	8.945867	0.624280	-5.126523	0.317410	-2.907020	0.094187	151.314982	-73.894214	137.551568			
14865	8.706341	0.318777	-3.976189	-0.326104	-1.892289	-0.430567	151.976362	-73.384728	136.572590			
14866	9.069171	-0.089931	-3.474005	-0.978450	-1.421014	-0.254994	152.276268	-72.951257	136.120090			
14867	9.115845	0.073046	-2.276708	-1.222871	-0.195134	-0.498531	152.478598	-72.566582	135.753521			
14868	9.095082	-0.160208	-1.961349	-1.559354	0.082761	-0.639138	153.140196	-72.116337	134.806014			
14869	8.696611	-0.466736	-2.070149	-1.760084	-0.101538	-1.036306	154.209036	-71.476044	133.289918			
14870	8.243276	-0.522156	-3.352321	-1.413867	-1.267832	-1.103283	155.388992	-70.621798	131.584115			
14871	8.048618	-0.518381	-4.643830	-1.101868	-2.347587	-0.874778	156.387623	-69.672178	130.158065			
14872	8.197094	-0.106750	-4.884538	-0.766683	-2.259603	-0.573272	156.849704	-68.771201	129.498593			
14873	8.136018	0.926913	-4.284012	-0.008885	-1.298828	-0.662929	156.822362	-67.912084	129.495615			
14874	8.305076	2.107543	-3.500083	0.783441	-0.077321	-0.590690	156.663936	-67.058276	129.743122			
14875	8.560492	3.140831	-2.839867	1.437630	1.013670	-0.425691	156.495282	-66.212177	129.977501			
14876	9.060860	3.733561	-2.329632	1.652290	1.911362	-0.061737	156.481391	-65.441277	130.001634			
14877	9.381582	3.818120	-1.489190	1.378994	2.887483	-0.087996	156.605531	-64.775555	129.790786			
14878	9.528400	3.511066	-0.639863	0.808968	3.681523	-0.361832	156.731160	-64.181219	129.444100			
14879	9.919532	3.057383	0.082368	0.083935	4.390808	-0.407123	156.819646	-63.636958	129.031711			
14880	10.454051	2.578145	0.724191	-0.667580	5.069327	-0.309309	156.878406	-63.166980	128.548985			
14881	11.044130	1.763254	1.289655	-1.707309	5.604720	-0.199326	156.939878	-62.784155	127.930898			
14882	11.718534	0.694709	1.585291	-2.925206	5.877141	0.047397	157.051718	-62.464116	127.108177			
14883	12.245286	-0.491410	1.331299	-4.084594	5.618658	0.370919	157.269129	-62.147892	125.985198			
14884	12.381873	-1.838641	0.112220	-5.118929	4.372158	0.741080	157.661068	-61.861285	124.551946			
14885	12.236192	-2.917507	-1.658808	-5.770295	2.632449	1.176376	158.078165	-61.706188	123.123228			
14886	11.747945	-3.389508	-2.066071	-5.990291	2.080592	0.843700	158.028216	-61.798029	122.298191			
14887	11.423565	-3.054364	-1.906374	-5.586246	2.199115	0.551625	157.476983	-62.022912	122.259730			
14888	11.448750	-1.878267	-1.565220	-4.511415	2.723492	0.641071	156.724763	-62.245873	122.802368			
14889	11.698376	-0.992372	-1.328838	-3.791351	3.145938	0.926519	155.846422	-62.390269	123.772127			
14890	11.838917	0.195602	-0.916548	-2.805562	3.736388	1.105432	154.791081	-62.470781	125.009395			
14891	12.769950	1.163681	-0.958992	-2.220625	4.174574	2.144973	153.490734	-62.472622	126.302171			
14892	13.527076	2.047540	-1.060010	-1.678676	4.471928	3.051229	152.209144	-62.477928	127.391799			
14893	13.441576	2.499037	-1.364074	-1.269753	4.179281	3.214299	151.145247	-62.585243	128.061099			
14894	13.336035	2.207084	-1.350242	-1.536935	4.017620	3.072975	150.609507	-62.847524	128.182134			
14895	13.393138	1.735564	-1.003694	-2.010170	4.192197	2.906584	150.177661	-63.165023	128.232491			
14896	14.218205	2.018917	-0.886279	-1.953948	4.552887	3.695494	149.437089	-63.563921	128.637370			
14897	14.688998	2.897910	-0.729750	-1.241980	4.873952	4.308081	148.295508	-64.130639	129.409852			
14898	14.299162	3.391394	-1.313571	-0.600587	4.072564	4.355623	146.750363	-64.903587	130.558098			
14899	13.868823	3.788033	-1.483050	-0.075025	3.564433	4.193514	144.796891	-65.863666	132.194198			
14900	13.202475	4.144643	-1.640433	0.481957	2.928386	3.801805	142.265510	-67.091990	134.518102			
14901	11.870479	4.682426	-2.077005	1.417444	1.835276	2.905639	138.963200	-68.459588	137.689909			
14902	11.529604	5.679309	-1.935211	2.472705	1.614681	2.844110	134.867733	-69.797757	141.727922			
14903	11.562257	6.664624	-1.718030	3.401388	1.535108	3.114485	130.089206	-71.038235	146.403578			
14904	11.361247	7.381792	-1.823842	4.179349	1.045700	3.161055	125.163260	-72.192352	150.927762			
14905	11.118254	7.398643	-1.877926	4.336431	0.546520	2.945289	121.378201	-73.258277	153.919442			
14906	10.867470	6.088953	-2.298218	3.284018	-0.360226	2.415869	119.480139	-74.210546	154.572994			
14907	10.679989	4.738455	-3.102477	2.181300	-1.484676	1.984589	119.539744	-74.991089	152.922322			
14908	11.230437	4.471214	-4.970839	1.932832	-3.409685	2.655687	120.365702	-75.840542	150.162820			
14909	11.497766	2.714319	-6.739072	0.254187	-5.286997	2.715732	121.481884	-77.258501	147.374417			
14910	10.271842	1.225055	-6.445183	-0.798486	-5.264923	1.150392	122.367910	-79.124144	145.333514			
14911	9.676733	0.153944	-6.492959	-1.580233	-5.527118	0.324786	120.474100	-81.107472	146.204200			
14912	8.915518	-0.818926	-5.807705	-2.255798	-5.096094	-0.712135	113.923260	-82.964872	152.150080			
14913	8.035697	-0.660221	-4.826558	-1.820662	-4.428566	-1.727508	101.511909	-84.344090	164.319905			
14914	7.807096	-0.195469	-3.972592	-1.189272	-3.853756	-2.034576	84.081629	-85.094293	-178.291698			
14915	8.092737	-0.632204	-3.621727	-1.536815	-3.696533	-1.876856	64.323648	-85.356555	-158.377937			
14916	8.246916	-0.738939	-2.486531	-1.471963	-2.773162	-1.757951	46.503591	-85.198175	-140.078638			
14917	8.238847	-0.174166	-1.640846	-0.758070	-2.161461	-1.728694	32.180432	-84.584533	-125.446463			
14918	8.577027	-0.111048	-2.031503	-0.655179	-2.767867	-1.469375	21.774900	-83.727123	-115.063291			
14919	8.326460	-0.213697	-2.013821	-0.675149	-2.894803	-1.775745	14.004294	-82.801714	-107.426189			
14920	8.178033	-1.348891	-2.944435	-1.783785	-3.887412	-2.126793	8.320541	-81.874253	-101.674773			
14921	7.815626	-1.455592	-2.902308	-1.796146	-3.939083	-2.540768	4.408143	-80.896479	-97.293499			
14922	7.007598	-1.055874	-2.535251	-1.276084	-3.612675	-3.334520	1.732809	-79.904421	-93.927653			
14923	6.517553	-0.893690	-2.598116	-1.026021	-3.715459	-3.882407	0.124862	-79.025873	-91.451687			
14924	6.094559	-0.587961	-2.982893	-0.639184	-4.115138	-4.423567	-0.523442	-78.284507	-89.701397			
14925	5.745212	-0.038898	-2.968075	-0.003749	-4.101226	-4.812952	-0.288909	-77.633741	-88.732467			
14926	5.547792	0.598032	-2.638961	0.698092	-3.770501	-4.975821	0.548202	-77.109203	-88.417355			
14927	5.482379	1.164225	-2.885218	1.333310	-3.991976	-5.119880	1.644871	-76.742656	-88.320839			
14928	5.457938	1.567717	-2.564412	1.768768	-3.650426	-5.083127	2.956871	-76.440872	-88.580823			
14929	5.690650	1.714169	-2.628328	1.956728	-3.748122	-4.877843	4.502515	-76.182475	-89.127994			
14930	5.473169	2.099411	-1.931236	2.295768	-2.972313	-4.914980	6.319381	-75.983478	-89.965506			
14931	5.369836	2.422988	-1.736175	2.598689	-2.698985	-4.946221	8.484142	-75.890226	-91.217068			
14932	5.256972	2.818237	-1.628643	2.968650	-2.481568	-4.989892	10.938003	-75.885045	-92.744844			
14933	4.911261	3.138500	-1.294957	3.222241	-1.983657	-5.194309	13.720712	-75.914914	-94.597552			
14934	4.286878	3.469893	-0.980842	3.479607	-1.423687	-5.660060	17.034516	-76.022083	-97.029193			
14935	4.214459	3.742013	-0.934744	3.697069	-1.252695	-5.641410	20.952585	-76.212527	-100.149579			
14936	4.646513	3.977838	-0.554223	3.775811	-0.873294	-5.048275	25.455730	-76.513984	-103.925088			
14937	6.039193	4.272876	0.195861	3.742501	-0.319289	-3.436397	30.417261	-76.942442	-108.291335			
14938	8.160638	4.539853	1.294281	3.501037	0.459379	-1.071407	35.143716	-77.528453	-112.738186			
14939	10.773306	3.960012	2.547331	2.348689	1.190111	1.645882	38.518587	-78.254083	-116.194696			
14940	13.561185	2.494858	4.596647	0.214995	2.540648	4.496577	39.495546	-78.978217	-117.395709			
14941	17.139787	0.765833	7.599467	-2.314787	4.586750	8.234788	36.874203	-79.282902	-114.811846			
14942	19.209432	-1.267374	11.304351	-5.090727	7.195346	10.697978	31.545990	-78.583014	-108.742287			
14943	15.097377	-1.370445	13.754493	-5.576971	9.705938	7.322808	28.716835	-76.892511	-103.902484			
14944	11.323637	3.279278	15.528941	-1.854851	12.755078	4.813699	29.817491	-75.351309	-102.598906			
14945	10.371630	6.467202	13.774451	1.235384	11.953957	4.140520	31.118437	-74.514887	-102.678129			
14946	10.012066	5.345428	10.266756	1.110784	8.387395	2.940289	30.701064	-74.252190	-101.722840			
14947	10.018363	2.356232	7.868661	-0.929417	5.220481	2.007529	29.644853	-74.013045	-100.483273			
14948	10.064842	2.303522	6.460535	-0.483868	3.838926	1.736068	29.031068	-73.670072	-99.937144			
14949	10.100739	3.288436	5.167633	0.900462	2.890657	1.605547	28.468512	-73.423904	-99.565958			
14950	9.058558	4.034689	4.036472	2.069556	2.319352	0.432615	27.333007	-73.120223	-98.598859			
14951	6.854522	4.273470	4.022618	2.458878	2.947160	-1.645934	25.665264	-72.809252	-97.212516			
14952	4.751506	3.846701	3.838821	2.265261	3.226137	-3.765325	24.034917	-72.780020	-96.049954			
14953	4.825809	2.344600	0.688392	1.878224	-0.108026	-4.741205	22.659810	-73.096542	-95.204938			
14954	5.898716	0.980504	-2.025653	1.404901	-3.270936	-4.598606	21.472905	-73.424156	-94.246158			
14955	7.167936	0.115775	-3.237403	0.945389	-4.954704	-3.776931	20.487272	-73.801136	-93.244721			
14956	9.447800	-0.935860	-4.815799	0.422640	-7.277874	-2.055018	19.327936	-74.386597	-92.067183			
14957	11.847573	-1.944381	-5.299561	-0.361174	-8.544865	0.141330	17.732248	-75.215571	-90.624173			
14958	13.635416	-2.793624	-5.470305	-1.052597	-9.195983	1.933313	15.691142	-76.506279	-88.723031			
14959	15.691440	-2.874761	-4.743242	-1.226489	-8.667244	4.341257	13.655591	-78.304488	-86.538387			
14960	18.504045	-2.213963	-1.034137	-1.555978	-5.053662	8.086400	12.239013	-80.229935	-84.875446			
14961	23.084983	-3.098140	1.845746	-3.192502	-2.863119	13.155023	13.208824	-81.414850	-85.249879			
14962	24.902760	-2.019944	6.478655	-3.794035	1.508365	15.672526	18.075876	-80.604315	-87.846333			
14963	14.000366	4.343500	10.019464	0.364446	8.057672	6.001677	23.150708	-77.500047	-89.829121			
14964	-0.316176	8.127624	6.877011	4.514478	9.415021	-7.721675	28.154090	-73.968740	-92.182147			
14965	-6.711570	11.678039	-0.845805	10.920425	6.205074	-14.747648	33.897060	-73.110801	-96.090785			
14966	-11.062476	15.957475	-11.308453	19.818995	0.211577	-20.395088	37.994102	-74.736661	-101.653881			
14967	-3.021501	10.114049	-13.493277	15.047280	-7.233621	-13.634636	43.506592	-77.553874	-110.458599			
14968	4.989847	5.823440	-15.715984	10.806321	-13.207428	-6.012859	56.488211	-80.899490	-126.464554			
14969	19.702385	0.272386	-11.809448	2.248356	-13.089175	8.928994	68.489428	-82.649211	-140.411942			
14970	19.093006	-3.747482	-2.871237	-4.368079	-5.376818	8.594652	66.782588	-83.554078	-138.160372			
14971	15.432834	-3.729892	4.172494	-6.000749	1.563021	5.387066	58.670076	-84.474349	-128.894431			
14972	12.467881	-3.948801	5.382390	-6.132557	2.855837	2.606505	48.198644	-85.960922	-118.038675			
14973	9.516138	-4.832211	2.669308	-5.651182	0.407657	-0.383146	33.728673	-87.884306	-104.219423			
14974	7.556676	-6.392281	-2.536523	-5.240123	-4.627854	-2.362205	-21.838191	-89.580353	-49.806402			
14975	6.902143	-7.738933	-6.108830	-5.441441	-8.156970	-2.834547	-147.343762	-88.939288	74.963412			
14976	7.969882	-4.710419	-4.308139	-3.224495	-5.331201	-1.722882	179.024278	-88.237555	108.187823			
14977	8.568279	-2.032533	-2.912945	-1.254644	-3.077671	-1.153485	161.582292	-87.097462	125.380850			
14978	9.228831	-1.175361	-2.962714	-0.612871	-2.717423	-0.455000	157.380368	-85.706796	129.810849			
14979	9.350810	0.101590	-2.794641	0.405353	-2.024879	-0.273802	155.420236	-84.465272	132.528633			
14980	9.120461	1.652937	-1.727290	1.426437	-0.424114	-0.502426	152.048682	-83.412942	136.923184			
14981	9.114193	2.674000	-1.048909	1.994424	0.641916	-0.489323	147.490829	-82.360325	142.595222			
14982	9.613254	3.709254	-0.251981	2.414171	1.855637	0.034107	142.934298	-81.281141	148.192252			
14983	9.740311	4.711541	0.446644	2.836790	2.922604	0.221145	139.184645	-80.309926	152.614863			
14984	9.446757	5.461892	0.798019	3.248874	3.528160	0.021187	137.318594	-79.508430	154.539257			
14985	9.477050	5.240021	0.270877	3.137160	2.987604	0.115953	138.357017	-79.022974	152.998066			
14986	8.704649	3.791618	0.025793	2.027788	2.232337	-0.809832	142.558262	-78.656303	147.993098			
14987	8.481684	2.238279	-1.193631	1.077925	0.659910	-1.050623	147.944578	-78.026198	141.423307			
14988	8.682735	0.654099	-3.645401	0.336073	-1.943857	-0.581714	152.834913	-77.105237	135.254796			
14989	9.450225	-0.562056	-5.882051	-0.317849	-4.086679	0.551419	156.454837	-76.307706	130.936017			
14990	9.348429	-0.405828	-4.281416	-0.643345	-2.412897	0.169882	157.433504	-75.919439	129.544065			
14991	8.908102	0.058173	-2.547059	-0.647803	-0.684887	-0.595515	156.843812	-75.696817	129.851021			
14992	9.070190	0.654254	-1.426871	-0.450332	0.591125	-0.637724	156.453968	-75.422203	130.162435			
14993	9.279985	1.006269	-1.233398	-0.234075	0.948950	-0.448048	156.582549	-75.127968	129.966113			
14994	9.005595	0.934256	-1.385507	-0.232846	0.779440	-0.689574	157.257046	-74.829373	129.097336			
14995	8.655665	0.506335	-1.489029	-0.559216	0.551612	-1.050459	158.204796	-74.440133	127.753041			
14996	8.336435	0.177513	-1.801242	-0.753385	0.184050	-1.317403	159.047056	-73.866398	126.291342			
14997	8.570318	0.090113	-2.517935	-0.736190	-0.345083	-0.916854	159.813235	-73.080719	124.839957			
14998	8.794631	0.117243	-3.079870	-0.671300	-0.671332	-0.542226	160.576635	-72.183369	123.529879			
14999	8.990021	0.408014	-3.222285	-0.455191	-0.533342	-0.279781	161.071031	-71.271696	122.610375			
15000	9.282894	0.736855	-3.338331	-0.231969	-0.341656	0.070995	161.302438	-70.429896	122.126972			
15001	9.603093	1.487327	-2.820980	0.265750	0.532261	0.288517	161.403347	-69.745080	121.886601			
15002	9.504108	1.975179	-2.169474	0.574479	1.316571	0.029669	161.459195	-69.210957	121.651776			
15003	9.073297	2.169851	-1.518711	0.684180	1.906181	-0.580278	161.643388	-68.739585	121.222905			
15004	8.845711	2.198144	-1.249486	0.684554	2.159460	-0.896000	161.895199	-68.227022	120.632187			
15005	8.916715	2.268021	-1.066640	0.692091	2.438549	-0.904071	162.123081	-67.695324	119.974867			
15006	9.189866	1.939473	-1.146494	0.327486	2.452812	-0.680019	162.347197	-67.195230	119.287283			
15007	9.626568	1.423874	-0.627930	-0.341299	3.031970	-0.550791	162.571679	-66.765518	118.603043			
15008	10.229289	0.712568	-0.458037	-1.164361	3.315092	-0.168528	162.782233	-66.378609	117.917019			
15009	10.711281	0.028088	-0.546441	-1.894670	3.337021	0.202547	162.926820	-66.046074	117.255646			
15010	11.048405	-0.381580	-0.849095	-2.302886	3.172243	0.558763	162.955117	-65.764932	116.683637			
15011	11.096833	-0.522473	-1.056984	-2.415893	3.036728	0.650168	162.861056	-65.533331	116.233597			
15012	11.258117	-0.264226	-1.021315	-2.195767	3.226577	0.799840	162.675010	-65.348661	115.892039			
15013	11.237771	0.148782	-0.995835	-1.788062	3.352154	0.811206	162.481588	-65.211086	115.552690			
15014	11.178412	0.370233	-1.070663	-1.545932	3.323514	0.808264	162.264460	-65.138637	115.234526			
15015	11.039032	0.515052	-1.162534	-1.362611	3.217996	0.735525	161.979086	-65.157926	115.041458			
15016	10.960714	0.824876	-1.176099	-1.044529	3.210240	0.713668	161.483358	-65.225600	115.116236			
15017	11.279175	1.388205	-0.981643	-0.582364	3.564655	1.006946	160.774512	-65.264159	115.463416			
15018	11.397821	2.013902	-1.275312	-0.008436	3.393327	1.326320	159.798102	-65.275285	116.001357			
15019	11.907903	2.540388	-1.454748	0.374397	3.449847	1.948520	158.795196	-65.280874	116.521130			
15020	12.952808	2.938297	-1.206443	0.506137	4.067636	2.878333	157.767230	-65.336063	116.993916			
15021	13.418351	2.471290	-0.669062	-0.094077	4.602718	3.048580	156.727639	-65.634586	117.416648			
15022	13.400385	1.384823	0.312781	-1.180714	5.258397	2.537954	155.676842	-66.318538	117.868616			
15023	13.615858	0.693996	1.091678	-1.882543	5.796615	2.431263	154.294066	-67.347665	118.755612			
15024	14.724649	0.473163	1.451108	-2.290020	6.207890	3.429367	152.255970	-68.571460	120.486048			
15025	15.592129	0.759587	1.631628	-2.192049	6.317480	4.386721	149.556976	-69.808297	123.025595			
15026	14.999893	1.220475	0.961213	-1.664667	5.145748	4.263727	146.262806	-71.021659	126.107957			
15027	13.983271	1.545004	0.057039	-1.182434	3.625615	3.728504	142.421657	-72.291207	129.676945			
15028	11.963988	2.121233	-0.478659	-0.253343	2.259127	2.132348	137.581746	-73.621494	134.283883			
15029	10.414950	3.171309	-1.071757	1.042291	1.035137	1.027395	131.558580	-74.748164	140.253825			
15030	11.391530	5.436943	-0.178207	2.965521	1.807939	2.323280	124.355392	-75.495113	147.558257			
15031	12.554451	7.856136	0.559489	4.944930	2.393574	3.951232	116.567633	-75.921682	155.257124			
15032	12.993872	8.932677	0.523079	5.815950	1.976936	4.718390	109.522852	-76.385201	161.511618			
15033	12.767192	5.920393	-1.013611	2.989906	-0.090490	3.975666	104.506539	-77.248532	165.311847			
15034	12.796920	2.733105	-2.751985	-0.002467	-2.127678	3.388503	101.424074	-78.372671	167.072138			
15035	13.709724	1.248703	-3.104792	-1.447943	-2.584502	3.984887	98.789898	-79.746571	168.153735			
15036	13.746803	-0.437630	-4.213446	-2.959314	-3.745039	3.756826	94.650376	-81.272850	170.333391			
15037	13.115898	-1.702946	-4.597698	-3.929953	-4.195278	2.954977	86.187319	-82.944509	177.190376			
15038	10.782716	-2.394988	-3.615754	-4.008654	-3.329514	0.575619	73.296335	-84.287841	-171.288873			
15039	10.001080	-2.722457	-3.083929	-4.017293	-2.887653	-0.196890	59.117686	-85.065559	-157.868004			
15040	9.853302	-1.928286	-4.303368	-3.274021	-4.333054	-0.334925	46.107293	-85.398727	-145.125900			
15041	10.636698	-2.200612	-5.947527	-3.710694	-6.084854	0.314313	33.267127	-85.415407	-131.971075			
15042	9.758272	-2.759638	-5.736444	-4.025668	-5.943811	-0.636449	21.230621	-84.688539	-119.116658			
15043	9.508047	-2.891323	-3.591747	-3.740805	-4.064732	-0.804983	14.787132	-83.317633	-111.752977			
15044	9.422143	-1.470029	-1.599804	-2.045935	-2.564633	-0.717299	11.750661	-81.713190	-107.738031			
15045	9.483025	-1.284319	-1.818096	-1.862247	-3.104567	-0.770110	9.736790	-80.059148	-104.741230			
15046	8.872448	-1.043879	-1.222382	-1.507007	-2.726469	-1.351455	8.058569	-78.435280	-101.858419			
15047	7.817395	-1.026454	-1.140255	-1.394728	-2.699355	-2.448715	7.005473	-76.787276	-99.657478			
15048	6.882411	-0.671835	-1.155749	-0.968642	-2.736961	-3.431311	6.798775	-75.239314	-98.396853			
15049	6.705020	-0.174255	-1.072341	-0.437704	-2.798603	-3.639242	7.153086	-73.861766	-97.664553			
15050	6.646744	0.670931	-0.675190	0.426127	-2.550837	-3.616285	7.731027	-72.625332	-97.220753			
15051	6.735074	0.847693	-0.640852	0.610742	-2.660868	-3.564807	8.188103	-71.480785	-96.688372			
15052	6.327038	1.324874	-0.369174	1.107521	-2.361890	-3.886710	8.576068	-70.508728	-96.157779			
15053	6.634223	1.675170	-0.662960	1.477508	-2.801847	-3.711477	8.827415	-69.690532	-95.584246			
15054	6.757575	1.623818	-0.898088	1.464635	-3.128731	-3.715675	8.874151	-68.954001	-94.836427			
15055	6.548985	1.404465	-0.775610	1.279179	-3.007889	-3.915302	8.890363	-68.263641	-94.020075			
15056	6.410874	1.296912	-0.846980	1.219010	-3.080311	-4.109708	8.984587	-67.619746	-93.283786			
15057	6.387907	1.462696	-0.586456	1.391771	-2.861224	-4.053795	9.099464	-67.006346	-92.602966			
15058	6.198692	1.608282	-0.251889	1.528805	-2.508134	-4.116585	9.170975	-66.411413	-91.980986			
15059	5.763681	1.880383	0.433406	1.739571	-1.716518	-4.247527	9.067941	-65.900671	-91.307907			
15060	5.453143	1.703607	0.699912	1.552330	-1.393133	-4.448145	8.752451	-65.620415	-90.551193			
15061	5.202839	1.524795	0.370463	1.448598	-1.616328	-4.830643	8.311155	-65.516935	-89.766087			
15062	5.000506	1.294921	0.050962	1.295391	-1.845793	-5.165171	7.800412	-65.549329	-88.968252			
15063	4.667265	1.155789	0.137077	1.168275	-1.636568	-5.442938	7.347199	-65.669704	-88.213751			
15064	4.102701	1.238681	0.781360	1.162666	-0.791559	-5.689755	6.872485	-65.944633	-87.522580			
15065	3.827387	0.937092	0.679727	0.889239	-0.786364	-5.994333	6.592796	-66.415936	-87.042504			
15066	3.788989	0.889327	0.772530	0.830314	-0.654738	-5.988309	6.615327	-67.053629	-86.904688			
15067	4.118453	0.691899	0.726864	0.644465	-0.804801	-5.701073	6.962436	-67.836101	-87.067453			
15068	4.575835	0.379447	0.793247	0.318871	-0.902351	-5.252526	7.592958	-68.756901	-87.541718			
15069	5.374142	0.001486	0.899514	-0.084744	-1.072403	-4.471111	8.482708	-69.790024	-88.269599			
15070	6.440345	-0.331972	1.295059	-0.508743	-1.023429	-3.335203	9.621410	-70.876953	-89.223558			
15071	7.605790	-0.675788	2.148528	-1.052199	-0.536517	-1.968983	11.264606	-71.981496	-90.624870			
15072	9.131103	-0.559771	2.583949	-1.118521	-0.412269	-0.381782	13.828036	-73.136897	-92.814158			
15073	11.098906	-0.511101	2.365914	-1.211305	-0.975293	1.439825	17.838036	-74.246274	-95.890268			
15074	12.533475	0.280945	3.003799	-0.857377	-0.398464	3.043637	23.540602	-75.028544	-99.865142			
15075	14.337316	1.896170	4.839823	-0.211019	1.382807	5.372844	30.231201	-75.095891	-104.381931			
15076	16.217062	4.049000	7.000921	0.549139	3.492437	7.959890	36.162165	-74.261585	-108.093381			
15077	17.345470	6.472481	9.671692	1.191397	6.125207	10.119785	39.735445	-72.616795	-109.546958			
15078	16.509804	9.743294	13.392629	2.286056	10.266806	11.071613	40.502048	-70.523980	-108.403632			
15079	10.965664	13.423954	18.781858	3.597407	17.545348	8.418692	39.389135	-69.120625	-106.070725			
15080	6.507439	10.482050	15.935426	2.428204	15.369384	2.995133	37.912438	-69.421461	-104.921524			
15081	7.146986	6.446820	7.698313	2.214355	6.606167	0.353690	37.074083	-70.257914	-105.070251			
15082	9.470561	6.278874	4.665232	3.171312	3.226214	1.607127	37.312212	-71.173979	-106.254356			
15083	12.990288	6.600277	3.306534	3.709992	1.185274	4.612032	38.198100	-72.114057	-108.043434			
15084	15.317173	5.831476	0.606209	3.759840	-1.978269	6.028262	38.576877	-73.122244	-109.402390			
15085	17.107230	2.600519	-3.305650	1.944552	-6.753321	6.341208	37.671177	-74.551018	-109.574907			
15086	19.453866	-0.137021	-5.658090	0.038240	-9.850021	7.890961	36.357796	-76.718221	-109.058717			
15087	20.636428	-1.490598	-5.503471	-1.133218	-9.693082	9.241730	35.493540	-79.018734	-108.156404			
15088	16.713447	-1.208494	-0.677364	-1.815354	-3.929363	6.389648	33.257673	-79.849041	-105.022365			
15089	13.051910	-1.458664	5.004861	-3.511280	1.765534	3.680220	27.923345	-78.311428	-97.889988			
15090	4.058424	0.382329	5.986416	-1.875474	4.648070	-4.586461	23.666821	-75.154260	-91.607046			
15091	-3.780264	2.442763	2.184655	1.438154	3.869491	-12.638665	22.906028	-73.177158	-90.122272			
15092	-12.215643	7.185215	-7.071617	9.396966	-0.426237	-22.553282	24.170792	-74.605404	-94.058267			
15093	-18.762145	10.038127	-19.486416	16.264169	-10.615248	-31.136903	29.313662	-77.661829	-103.434951			
15094	-0.038706	-1.148594	-21.120148	4.622041	-20.373621	-13.082011	44.915742	-81.228413	-119.892818			
15095	37.482283	-3.130055	0.349011	-6.013166	-3.653782	27.123618	83.253963	-84.970524	-156.304913			
15096	23.628755	-6.217453	-8.167305	-5.244268	-10.125019	13.287150	101.175585	-86.252405	-173.965802			
15097	13.707610	-7.692681	-6.125933	-6.296311	-8.291101	3.461754	86.251466	-87.122728	-159.112343			
15098	8.767101	-3.989475	-0.340094	-4.080524	-1.692916	-1.246708	71.608742	-87.334235	-144.531368			
15099	8.643369	-2.764993	0.657239	-3.176217	-0.418829	-1.296754	75.574452	-87.197991	-148.142881			
15100	8.170053	-1.019093	1.144496	-1.714905	0.600656	-1.701276	90.549051	-86.673334	-162.297571			
15101	8.195874	0.736266	0.940864	-0.142926	1.026155	-1.595475	103.798630	-85.593993	-174.912739			
15102	8.106754	1.931158	-0.995851	1.424876	-0.329359	-1.548436	110.782353	-84.241948	178.263854			
15103	7.763336	1.944570	-3.788263	2.193464	-2.877396	-1.731394	115.253777	-82.914894	173.993384			
15104	8.755105	3.104763	-3.536841	2.927164	-2.137654	-0.557428	118.578607	-81.921524	171.322450			
15105	9.268960	3.787398	-2.163963	2.919584	-0.501701	-0.006380	120.284095	-81.290447	170.064321			
15106	9.404084	3.334336	-1.001445	2.000990	0.513002	0.000033	122.312652	-80.865338	168.436218			
15107	9.618688	3.375658	0.033187	1.582317	1.591096	0.131096	125.106916	-80.438181	165.978412			
15108	9.958610	3.439445	0.189008	1.469829	1.879341	0.451121	128.042311	-79.972589	163.184201			
15109	9.919713	3.272957	0.242406	1.258203	1.973931	0.370200	130.912898	-79.592405	160.261419			
15110	9.631717	2.529166	0.044786	0.671776	1.602769	-0.007195	133.759081	-79.283625	157.113371			
15111	9.497581	1.491335	-1.153317	0.145240	0.201012	-0.133017	136.448288	-79.015108	153.944392			
15112	9.385683	0.445130	-2.144996	-0.483527	-1.016329	-0.240700	138.276596	-78.767975	151.495452			
15113	9.087136	0.370452	-2.071572	-0.551078	-0.933003	-0.548233	139.449839	-78.501811	149.701422			
15114	8.785040	0.559126	-1.985210	-0.387140	-0.755987	-0.828886	140.548552	-78.104892	147.956384			
15115	8.996902	0.701200	-2.456924	-0.196448	-1.056085	-0.521956	141.820471	-77.619402	146.130502			
15116	9.231236	0.745920	-2.804999	-0.143155	-1.263214	-0.219810	142.941614	-77.194776	144.615752			
15117	8.861424	0.751376	-1.892495	-0.369041	-0.376749	-0.735666	144.024714	-76.795216	143.237882			
15118	9.053399	0.571987	-1.819202	-0.624978	-0.258247	-0.585406	145.272988	-76.335266	141.729464			
15119	9.253176	0.404652	-1.920365	-0.822466	-0.283352	-0.393813	146.670256	-75.845381	140.069937			
15120	9.417424	0.162632	-2.515336	-0.949925	-0.786400	-0.142143	148.197720	-75.347382	138.268852			
15121	9.355444	-0.210073	-2.894387	-1.212353	-1.156799	-0.161935	149.707362	-74.899499	136.560344			
15122	9.083228	-0.480808	-2.952067	-1.421334	-1.242098	-0.437869	150.828885	-74.470201	135.273610			
15123	8.950886	-0.530299	-2.813225	-1.501772	-1.067366	-0.597557	151.675629	-74.025573	134.374584			
15124	9.015143	-0.168263	-2.579274	-1.259049	-0.653133	-0.542228	152.333493	-73.548283	133.753960			
15125	9.050021	0.331868	-2.608421	-0.818091	-0.451520	-0.434887	152.925025	-73.053266	133.254739			
15126	8.987084	0.784902	-2.566121	-0.423819	-0.215112	-0.445606	153.454184	-72.543419	132.816540			
15127	8.866658	1.139365	-2.538334	-0.109345	-0.030003	-0.520468	154.033214	-71.995523	132.313509			
15128	8.891556	1.377087	-2.564934	0.078479	0.110495	-0.457698	154.698575	-71.421225	131.740643			
15129	8.904184	1.756068	-2.358502	0.343647	0.509973	-0.455776	155.307143	-70.844577	131.220133			
15130	8.693479	2.146928	-2.249658	0.689514	0.769002	-0.637766	155.841428	-70.229875	130.730445			
15131	8.609597	2.521826	-2.356359	1.042822	0.855016	-0.635662	156.252748	-69.600112	130.294712			
15132	8.562608	2.868722	-2.211418	1.297476	1.166479	-0.680692	156.552827	-69.008509	129.925828			
15133	8.600054	3.181264	-1.707039	1.416319	1.808181	-0.772815	156.784243	-68.462211	129.597394			
15134	8.797938	3.343796	-1.205572	1.362934	2.439837	-0.744766	156.990100	-67.941184	129.262281			
15135	9.033922	3.338302	-0.722144	1.155739	3.010758	-0.709023	157.217193	-67.472601	128.853639			
15136	9.364955	2.996614	-0.234140	0.621332	3.510686	-0.646141	157.474381	-67.045894	128.327990			
15137	9.734337	2.316794	-0.002696	-0.168144	3.693191	-0.514486	157.742711	-66.646899	127.676947			
15138	10.089132	1.569543	-0.155281	-0.922780	3.514929	-0.269549	158.011951	-66.279093	126.916343			
15139	10.388950	0.740637	-0.569250	-1.680923	3.074917	0.011859	158.305620	-65.945150	126.024983			
15140	10.568771	-0.011945	-1.225864	-2.291337	2.416075	0.292435	158.621858	-65.639245	125.028256			
15141	10.405661	-0.624198	-1.996492	-2.676560	1.588459	0.334509	158.912986	-65.379415	124.034675			
15142	10.226013	-1.026423	-2.376396	-2.945797	1.158532	0.249709	159.039783	-65.174846	123.254136			
15143	9.996304	-1.031156	-2.477068	-2.886430	1.043683	0.071861	158.932420	-65.005595	122.823580			
15144	9.989983	-0.570378	-2.416773	-2.471581	1.242253	0.102646	158.649233	-64.819597	122.708521			
15145	10.159033	0.228533	-2.396531	-1.774551	1.530184	0.361343	158.319546	-64.622015	122.712424			
15146	10.334845	0.785227	-2.512148	-1.294046	1.633412	0.646462	157.986560	-64.458106	122.718821			
15147	10.364655	1.212680	-2.422262	-0.928113	1.831698	0.701468	157.660405	-64.342109	122.693939			
15148	10.119509	1.519919	-2.135232	-0.634571	2.072102	0.413627	157.265973	-64.257066	122.710839			
15149	9.811203	1.939561	-1.621050	-0.246977	2.510361	-0.000123	156.718777	-64.143978	122.863043			
15150	10.564626	2.396799	-1.366030	-0.052651	3.111042	0.653470	156.085524	-63.915291	123.106435			
15151	12.179323	2.616129	-0.918467	-0.319326	4.157945	1.961565	155.506084	-63.774287	123.298947			
15152	12.351620	1.489270	-0.128482	-1.539832	4.711690	1.598962	154.983034	-63.878013	123.275153			
15153	12.408480	-0.043226	0.354466	-3.048439	4.879772	1.186973	154.610904	-64.036183	122.943596			
15154	12.637462	-1.283818	0.297070	-4.246339	4.705492	1.199511	154.340918	-64.214039	122.472295			
15155	13.127016	-1.929525	-0.058212	-4.907585	4.457183	1.680521	153.951326	-64.510688	122.216963			
15156	14.043300	-1.909886	-0.624562	-5.023504	4.199098	2.772316	153.131170	-65.132405	122.655342			
15157	14.133724	-1.271438	0.185765	-4.459396	4.875809	2.747064	151.506375	-66.071606	124.162227			
15158	14.227350	-0.787333	0.617708	-4.067868	5.076867	2.879274	149.265545	-67.165281	126.611149			
15159	14.742096	-0.491315	0.569374	-3.963889	4.847377	3.553993	146.378993	-68.397912	129.957100			
15160	14.055533	-0.179856	0.294171	-3.545625	3.977431	3.197468	142.866805	-69.835465	134.108477			
15161	12.936130	0.469637	0.321205	-2.688832	3.345202	2.403180	138.816150	-71.320568	138.834570			
15162	13.156273	1.218974	0.421151	-2.043980	3.132948	2.865554	133.989310	-72.693575	144.186847			
15163	13.949423	1.942356	-0.138878	-1.478491	2.360947	3.993025	128.381477	-73.846389	150.129526			
15164	13.832694	2.849384	-0.200849	-0.561644	1.963292	4.162865	122.586137	-74.765259	156.000104			
15165	13.740897	3.571220	-0.543454	0.257524	1.351065	4.328035	118.434193	-75.596163	159.676052			
15166	13.215925	2.307639	-1.561663	-0.543017	-0.096818	3.682318	118.155339	-76.681508	159.078723			
15167	13.805753	2.339583	-2.369419	-0.247382	-0.829366	4.362116	122.974409	-77.942199	152.773905			
15168	14.731364	0.638401	-5.718595	-1.391689	-4.027123	5.417046	133.029617	-79.249611	140.631147			
15169	14.666135	-4.601711	-13.110486	-5.623780	-11.437428	5.860744	148.370226	-80.672359	124.776373			
15170	11.151618	-6.403726	-10.810430	-6.580256	-9.740031	2.188448	158.447976	-82.645805	115.512302			
15171	9.446658	-4.088393	-7.068465	-4.061534	-6.457149	0.071541	149.846247	-85.329839	124.420197			
15172	9.306318	-0.784236	-4.561919	-0.853456	-4.225616	-0.356252	112.268907	-87.223229	162.556061			
15173	9.252240	0.358534	-2.448136	0.144363	-2.463776	-0.559470	66.265119	-86.813364	-150.506375			
15174	11.442226	1.870512	-2.480358	1.607874	-2.757730	1.605487	43.351181	-85.677041	-126.109332			
15175	10.538878	2.181899	-2.590159	2.128892	-3.073028	0.606075	27.096755	-84.283983	-108.111769			
15176	8.812783	1.228331	-1.104787	1.187082	-1.858004	-1.122138	17.672995	-82.631974	-97.404147			
15177	8.833083	0.490355	-0.629418	0.507645	-1.779420	-1.139219	13.105048	-80.916734	-91.615941			
15178	8.483565	0.899314	-0.596822	1.013320	-1.841130	-1.523252	10.559320	-79.374883	-87.937520			
15179	8.353096	0.681837	-0.925463	0.979990	-2.356613	-1.776628	8.517605	-78.111946	-84.764315			
15180	8.174444	0.108790	-1.267721	0.622072	-2.921003	-2.097882	6.704039	-77.005882	-81.860995			
15181	7.746073	0.205683	-1.588953	0.903730	-3.220909	-2.645023	5.388361	-75.975778	-79.598693			
15182	7.328211	0.067658	-1.433077	0.814026	-3.105557	-3.070846	4.485926	-75.135647	-77.868794			
15183	7.656310	-0.143509	-3.194730	1.228668	-4.949080	-3.267388	4.125379	-74.349404	-76.430443			
15184	7.022204	1.068801	-2.809361	2.343203	-4.123057	-3.824833	4.444002	-73.348940	-75.567376			
15185	6.030647	1.759305	-1.545698	2.605839	-2.527192	-4.457737	5.132080	-72.475059	-75.141811			
15186	5.962190	2.295305	-1.697121	3.198693	-2.483721	-4.588163	5.972710	-71.792586	-74.927475			
15187	5.894838	2.611148	-2.042928	3.644197	-2.662844	-4.775854	6.736431	-71.179626	-74.758108			
15188	5.708477	2.562761	-1.947004	3.582373	-2.537551	-4.947239	7.357527	-70.643439	-74.524818			
15189	5.525905	2.498845	-1.739366	3.457428	-2.316140	-5.070656	7.947678	-70.263978	-74.311585			
15190	5.679142	2.634461	-1.620930	3.570231	-2.196659	-4.888406	8.496559	-70.014481	-74.164459			
15191	5.733361	2.814954	-1.511846	3.711300	-2.032865	-4.795242	8.870436	-69.818303	-73.980869			
15192	5.367504	2.906346	-1.277080	3.674836	-1.660340	-5.055934	9.138538	-69.689875	-73.829462			
15193	4.827108	3.028591	-1.049184	3.643592	-1.223350	-5.476588	9.402308	-69.648514	-73.795564			
15194	4.195631	3.066993	-0.954082	3.574296	-0.901583	-6.026982	9.761679	-69.751051	-73.943438			
15195	3.414175	3.311935	-0.801888	3.646667	-0.392742	-6.679632	10.336425	-70.020418	-74.386653			
15196	2.844105	3.548371	-0.620560	3.715473	0.063502	-7.118972	11.116562	-70.472311	-75.194219			
15197	2.885312	3.439076	-0.598187	3.590247	0.035339	-7.052464	12.186786	-71.114839	-76.404797			
15198	3.350821	3.024146	-0.592748	3.218872	-0.263474	-6.604264	13.576875	-71.944154	-77.997339			
15199	4.347302	2.163245	-0.712902	2.511605	-0.990220	-5.714207	15.199462	-72.954694	-79.735427			
15200	5.433911	1.021200	-0.116719	1.224419	-1.190318	-4.552793	17.024049	-74.154686	-81.533795			
15201	7.539503	-0.212532	0.825221	-0.291233	-1.322559	-2.347248	19.323921	-75.581918	-83.827934			
15202	11.200410	-1.348984	1.498780	-1.642456	-1.880071	1.290153	22.366195	-77.189013	-86.849544			
15203	14.481334	-2.106705	1.903266	-2.658136	-2.248370	4.527277	26.864667	-78.634488	-90.932922			
15204	17.779145	-1.319657	3.260181	-2.821737	-1.086478	8.056675	32.553809	-79.419399	-95.483366			
15205	20.960617	-0.604330	4.346195	-3.056631	-0.346971	11.379958	37.577090	-79.288219	-98.451309			
15206	24.286648	1.556898	8.594781	-3.783116	3.334762	15.498187	41.114646	-78.066912	-99.123262			
15207	24.587022	6.061560	14.661081	-3.754657	9.455965	17.617405	40.150772	-74.865572	-95.509649			
15208	13.930737	8.694385	16.604780	-2.745667	13.481488	9.047305	35.675108	-69.855287	-89.265104			
15209	-3.092606	10.380578	27.410474	-8.116395	27.298217	-2.238076	32.713667	-67.122621	-85.304162			
15210	-1.351130	4.414671	11.856828	-3.491573	11.724468	-6.315176	31.368032	-67.844321	-85.568355			
15211	2.841424	1.069758	3.494166	-1.033859	2.188625	-5.867241	30.518264	-69.059265	-86.441227			
15212	5.162882	1.454426	2.170713	0.121540	0.652343	-4.064523	30.309052	-70.141020	-87.496489			
15213	7.329980	2.787132	1.816214	1.467281	0.424519	-1.909442	30.730149	-71.113034	-89.039024			
15214	10.390292	2.609069	-1.371360	2.933481	-3.073623	0.116485	32.008332	-72.523547	-91.347206			
15215	14.067435	1.633247	-6.101119	4.298036	-8.262999	2.475888	33.812490	-74.545668	-94.170767			
15216	16.570358	-0.056093	-9.661000	4.355019	-12.303733	4.241808	33.683953	-76.763234	-94.969723			
15217	16.673647	-2.567530	-11.015360	2.736227	-14.157813	4.257298	31.756378	-79.033626	-93.628448			
15218	17.809984	-3.445466	-9.014904	1.038886	-12.488210	6.101247	31.083083	-81.176758	-92.983834			
15219	18.435294	-3.157182	-5.452940	-0.359712	-8.874270	7.527088	33.137531	-82.308222	-94.586574			
15220	18.516154	-1.964115	1.056993	-2.442235	-2.616743	8.490441	35.108882	-81.645717	-94.819706			
15221	15.910525	0.221385	6.495416	-3.346523	2.940826	6.784766	33.854813	-79.328612	-90.736016			
15222	8.701877	3.028826	10.504046	-3.408633	8.226017	0.950396	31.416671	-75.682370	-84.994952			
15223	-1.444819	5.996578	12.549007	-2.859367	13.479234	-7.447147	30.645839	-72.830245	-82.123977			
15224	-9.023956	7.758053	-0.050776	5.907979	7.110219	-17.305851	33.243431	-74.026040	-86.080839			
15225	-10.286545	11.279890	-16.955272	19.006126	-4.562600	-21.564737	38.839049	-77.099722	-95.577039			
15226	-0.937981	7.606973	-25.651833	20.073883	-17.309051	-13.540863	46.554299	-79.453097	-106.154046			
15227	14.143389	2.780292	-17.214494	10.223673	-15.488374	2.818953	61.955440	-81.461534	-121.684314			
15228	25.951611	-0.947155	0.466731	-3.083259	-3.237354	15.772662	65.146723	-81.879818	-123.901086			
15229	14.061413	-1.793806	3.023922	-4.150991	-0.020143	4.074450	62.624687	-82.204734	-120.286613			
15230	12.332407	-2.431249	4.224179	-5.103244	0.881087	2.394746	61.801141	-83.103778	-118.954151			
15231	12.386414	-3.701206	3.214834	-5.515517	-0.469768	2.303796	62.560305	-84.268327	-120.028339			
15232	10.775055	-5.124062	0.649244	-5.186741	-3.042592	0.512879	62.171521	-84.869949	-120.374526			
15233	7.066427	-4.039499	-0.649728	-3.416475	-3.184351	-3.114825	65.249711	-85.098759	-123.715476			
15234	5.744838	-1.705018	-0.621022	-1.440330	-1.796412	-4.245515	76.560455	-84.967936	-135.133971			
15235	7.032005	-0.354394	-2.567924	0.506608	-2.778246	-2.870774	90.371083	-84.126359	-149.160195			
15236	9.121950	0.834275	-4.659794	2.190116	-4.004947	-0.605263	99.637836	-82.826417	-158.426125			
15237	10.291014	2.057521	-4.055078	2.543980	-2.843924	0.771163	104.658587	-81.715788	-162.802277			
15238	9.786605	3.494169	-1.127448	2.104052	0.506069	0.413366	108.111284	-81.038844	-165.159960			
15239	9.128077	4.578350	0.757312	1.944022	2.790160	-0.153987	110.895007	-80.612748	-167.113123			
15240	9.055410	4.219931	0.869134	1.498453	2.771218	-0.292311	113.999919	-80.352595	-169.808210			
15241	8.833215	3.385580	-0.006101	1.283974	1.679764	-0.592240	117.884266	-80.217616	-173.528990			
15242	8.696537	2.290510	-1.322800	1.115374	0.078065	-0.791878	121.614876	-80.068909	-177.317548			
15243	8.401427	1.909918	-1.340781	0.828128	-0.059328	-1.132861	124.929780	-79.776088	179.130052			
15244	9.004122	1.726973	-1.496660	0.596448	-0.207098	-0.544626	127.780237	-79.292659	175.741278			
15245	9.826878	1.380576	-1.923747	0.310890	-0.659076	0.269081	130.256595	-78.804704	172.655620			
15246	10.263041	0.499793	-2.575433	-0.224062	-1.585243	0.658631	132.511071	-78.482862	170.087062			
15247	9.594373	0.511264	-0.886672	-1.009647	-0.094187	-0.217344	134.882382	-78.247338	167.655013			
15248	9.068772	0.677321	-0.112780	-1.201741	0.711023	-0.825829	137.026302	-77.885248	165.219866			
15249	9.221334	0.542435	-1.335709	-0.763709	-0.298648	-0.515486	138.486385	-77.372184	163.130229			
15250	9.586742	0.467290	-2.279819	-0.492325	-1.034395	-0.014304	139.898708	-76.914575	161.324798			
15251	9.040689	0.678994	-1.639864	-0.573118	-0.342349	-0.623677	141.407409	-76.492596	159.676144			
15252	8.835736	0.926207	-1.157530	-0.611826	0.256874	-0.878099	142.709855	-75.968918	158.151739			
15253	9.331086	0.921132	-1.493542	-0.623882	0.097685	-0.339120	144.082493	-75.396882	156.505907			
15254	9.422745	0.840010	-1.472989	-0.787560	0.174373	-0.272679	145.320171	-74.832541	154.966341			
15255	9.164074	0.939947	-1.519356	-0.683891	0.246529	-0.504481	146.370243	-74.236725	153.617928			
15256	8.939637	1.336309	-1.825701	-0.218623	0.246355	-0.597131	147.286642	-73.586587	152.431147			
15257	8.801976	1.887628	-2.091874	0.333301	0.361985	-0.583888	148.029436	-72.927796	151.460101			
15258	8.730946	2.433573	-2.036756	0.716688	0.751417	-0.581170	148.709312	-72.291365	150.617206			
15259	8.748785	2.957783	-1.591210	0.888656	1.471688	-0.600450	149.391124	-71.695347	149.803951			
15260	8.886900	3.228154	-1.155018	0.827760	2.073521	-0.552736	150.049053	-71.130576	148.919376			
15261	9.089897	2.894123	-0.853684	0.308100	2.269623	-0.512997	150.732663	-70.614261	147.917964			
15262	9.287330	2.397996	-0.589688	-0.321277	2.358197	-0.502063	151.390671	-70.128359	146.898036			
15263	9.366693	2.025721	-0.096213	-0.902731	2.685287	-0.657280	151.941621	-69.660089	145.938572			
15264	9.433278	1.799728	0.072255	-1.210242	2.806075	-0.708200	152.410191	-69.203378	145.007207			
15265	9.636606	1.523087	0.031423	-1.509280	2.753236	-0.575469	152.805359	-68.780622	144.079769			
15266	9.923871	1.149756	-0.018434	-1.909332	2.669332	-0.376898	153.118621	-68.401508	143.143577			
15267	10.151695	0.605648	-0.316965	-2.339905	2.284698	-0.177920	153.327322	-68.092632	142.213087			
15268	10.476494	0.049896	-0.500336	-2.855847	2.022067	0.074916	153.453732	-67.844199	141.317318			
15269	10.713279	-0.387294	-0.628428	-3.265469	1.843474	0.249977	153.501552	-67.645797	140.543082			
15270	10.650162	-0.621185	-0.661406	-3.446697	1.760447	0.150751	153.460683	-67.465448	139.944733			
15271	10.606603	-0.527467	-0.765383	-3.325394	1.747679	0.149804	153.298409	-67.280085	139.569151			
15272	10.624912	-0.115303	-1.048952	-2.886302	1.708796	0.323954	153.044410	-67.098550	139.397976			
15273	10.618239	0.370425	-1.348279	-2.374373	1.662431	0.497534	152.728380	-66.949537	139.335649			
15274	10.446140	0.653566	-1.820512	-1.941879	1.326592	0.547450	152.344812	-66.828069	139.317321			
15275	10.365038	0.891732	-2.103956	-1.640100	1.152828	0.610211	151.923662	-66.721018	139.315163			
15276	10.288505	1.153098	-1.968611	-1.448452	1.353291	0.537624	151.489344	-66.623321	139.341504			
15277	10.594777	1.442212	-1.912017	-1.323773	1.590639	0.850450	151.039311	-66.494324	139.414797			
15278	11.382070	1.644754	-1.847135	-1.431272	1.923392	1.585582	150.498335	-66.368363	139.606972			
15279	12.087919	1.656985	-1.176405	-1.864727	2.699513	1.997589	149.869493	-66.246737	139.796789			
15280	12.646520	1.109963	-0.645244	-2.704574	3.111824	2.211649	149.253789	-66.205011	139.781931			
15281	12.148728	0.169920	0.309931	-3.654446	3.504392	1.236324	148.739791	-66.315571	139.538531			
15282	12.191528	-0.391149	1.095223	-4.339272	4.037119	0.904492	148.378400	-66.504419	139.193524			
15283	12.901717	-0.403662	1.006315	-4.496233	4.130491	1.604521	147.800293	-66.707170	139.220819			
15284	13.655840	0.181528	0.320035	-4.001747	3.836660	2.672617	146.756304	-66.913669	139.938945			
15285	14.238471	1.162230	-0.093351	-3.188321	3.802365	3.583890	145.332119	-67.228702	141.216076			
15286	14.737739	1.767941	-0.286736	-2.745029	3.757353	4.285255	143.612774	-67.758780	142.850534			
15287	15.157125	2.054203	-0.086158	-2.630787	3.882654	4.746238	141.616045	-68.571500	144.815507			
15288	13.631591	2.243048	-0.746348	-1.776425	2.705737	3.638043	139.101162	-69.657161	147.349713			
15289	11.432236	2.724742	-1.584507	-0.406594	1.340316	1.962732	135.838550	-70.751750	150.730912			
15290	11.375795	4.410760	-1.375855	1.157238	1.729870	2.287595	131.897971	-71.536336	154.845121			
15291	12.722504	7.115118	-1.415002	3.273050	2.357168	4.265952	127.207573	-72.097373	159.493003			
15292	13.226586	8.890527	-1.615059	4.851255	2.347096	5.271470	122.386315	-72.906489	163.926193			
15293	12.069347	6.877977	-1.279974	3.387537	1.594775	3.625375	118.725635	-74.082914	166.839325			
15294	11.725860	4.640882	-2.901066	2.029744	-0.876478	2.936952	116.780807	-75.341386	167.568621			
15295	13.246824	3.131624	-5.451113	1.079703	-3.851353	4.293733	115.185982	-77.004848	167.477668			
15296	13.028491	1.094343	-6.141394	-0.386427	-5.210978	3.653569	112.290877	-79.121968	168.548400			
15297	11.390232	-0.339079	-4.972062	-1.375409	-4.630785	1.642656	106.514831	-81.450140	172.826798			
15298	9.728618	-2.164520	-4.830195	-2.659497	-5.044959	-0.319073	95.469696	-83.387189	-177.043860			
15299	8.265247	-2.137199	-4.033908	-2.366348	-4.444276	-1.825379	80.610748	-84.522683	-162.294793			
15300	8.168452	-1.256706	-2.877683	-1.494653	-3.335863	-1.861670	67.816881	-84.845031	-149.081872			
15301	9.076361	0.129841	-2.171792	-0.211167	-2.607371	-0.853379	59.339871	-84.571364	-140.203249			
15302	9.936783	0.856088	-2.687921	0.573263	-3.179913	-0.001703	53.101685	-84.125556	-133.527178			
15303	10.219346	1.120050	-2.388961	0.814669	-2.995936	0.274691	46.621136	-83.607796	-126.551195			
15304	10.129107	1.370763	-1.603514	1.004827	-2.318974	0.220211	39.449892	-83.073382	-118.941629			
15305	9.834557	0.696242	-1.919635	0.528814	-2.872747	-0.202687	31.553413	-82.441793	-110.675022			
15306	8.961663	-0.029669	-1.996063	0.004611	-3.130179	-1.181648	24.440167	-81.691723	-103.136537			
15307	8.449561	-0.594034	-2.131340	-0.375267	-3.443656	-1.794720	19.186462	-80.838745	-97.361765			
15308	8.305669	-1.401823	-2.887808	-0.872353	-4.465419	-2.158712	15.417938	-79.792912	-92.719236			
15309	7.405475	-0.739219	-2.061439	-0.269434	-3.520039	-2.944603	13.285132	-78.678616	-89.428050			
15310	7.281744	0.211244	-1.813149	0.697789	-3.164141	-3.041047	12.347347	-77.571025	-87.377580			
15311	7.209525	1.146901	-1.027974	1.473598	-2.277517	-2.957796	11.962246	-76.527779	-85.936093			
15312	7.126179	1.772137	-0.553733	1.994683	-1.728314	-2.937873	11.814142	-75.668148	-84.809744			
15313	7.216494	2.235627	-1.083421	2.638117	-2.161313	-2.984928	11.728001	-74.978904	-83.767580			
15314	7.051207	2.251896	-1.374185	2.782756	-2.413573	-3.246898	11.732068	-74.371101	-82.933812			
15315	6.974951	2.644902	-1.067454	3.092042	-2.015949	-3.243062	11.814701	-73.830233	-82.293885			
15316	6.856428	2.723453	-1.244765	3.250187	-2.138586	-3.422082	11.801532	-73.363706	-81.699752			
15317	6.784914	2.842650	-0.931295	3.282257	-1.814581	-3.416049	11.619693	-72.945277	-81.033184			
15318	6.489591	2.722814	-0.761984	3.126448	-1.632312	-3.675106	11.258563	-72.624446	-80.286525			
15319	6.264222	2.568493	-0.607087	2.942663	-1.489180	-3.868851	10.897623	-72.394877	-79.600412			
15320	5.939239	2.816246	0.047198	2.943509	-0.727450	-3.980486	10.618609	-72.227379	-79.076166			
15321	5.543701	3.227481	0.117176	3.292084	-0.398979	-4.320332	10.280849	-72.163274	-78.624732			
15322	5.087532	3.170606	-0.216882	3.344198	-0.570412	-4.865597	9.741356	-72.230161	-78.075019			
15323	4.644812	2.577752	-0.477352	2.868725	-0.868354	-5.400965	9.295895	-72.396346	-77.587825			
15324	4.327132	2.541309	0.158536	2.589863	-0.203937	-5.516361	9.018842	-72.724094	-77.322881			
15325	4.462361	2.021928	-0.045502	2.184914	-0.580505	-5.466200	8.984550	-73.253551	-77.317595			
15326	5.061064	1.623867	0.155614	1.763723	-0.669934	-4.841196	9.422504	-73.912465	-77.832165			
15327	5.872803	1.387320	0.724440	1.354984	-0.409945	-3.902125	10.241848	-74.638937	-78.755399			
15328	6.665135	0.854477	1.088070	0.723645	-0.407421	-3.056387	11.349023	-75.426870	-79.997900			
15329	7.734865	0.260367	1.588135	-0.021697	-0.340623	-1.919634	12.764575	-76.261379	-81.476106			
15330	9.405285	-0.441646	2.531424	-1.030565	-0.009911	-0.117415	14.401540	-77.106316	-83.164666			
15331	11.384109	-1.494791	3.442714	-2.374318	0.138879	1.935746	16.102036	-77.820632	-84.760446			
15332	13.032317	-1.680940	4.692912	-3.064961	0.961585	3.765619	17.905063	-78.192335	-86.140305			
15333	14.293401	-1.262286	5.797755	-3.188028	1.846898	5.218341	19.961278	-78.091195	-87.178199			
15334	14.933385	-0.083318	6.642720	-2.601767	2.758497	6.085458	22.434543	-77.506094	-87.866851			
15335	15.104476	1.781461	8.511991	-1.951073	4.835313	6.817589	24.669702	-76.538708	-87.837950			
15336	14.415485	3.188710	10.813197	-2.061614	7.207974	6.880631	25.557470	-75.296726	-86.457246			
15337	11.914900	4.047401	14.238774	-3.274931	10.700645	5.544256	24.577757	-74.010383	-83.890676			
15338	8.313198	2.797432	15.438845	-5.132293	11.764764	2.456689	22.491410	-73.346739	-81.531243			
15339	7.428354	0.833926	11.104850	-4.540925	7.459277	0.332747	20.808500	-73.589017	-80.519061			
15340	7.811056	0.249575	6.254525	-2.490770	3.176683	-0.653180	19.598323	-74.105794	-80.265350			
15341	7.516395	0.198363	3.869407	-1.328325	1.343505	-1.570258	18.644129	-74.520679	-80.114001			
15342	7.418395	0.053411	3.123117	-1.071263	0.734941	-1.869054	17.853777	-74.742440	-79.848932			
15343	7.006872	0.265442	2.985134	-0.816549	0.864674	-2.285194	17.369314	-75.005299	-79.698538			
15344	8.208049	0.413720	0.914453	0.322154	-1.086295	-1.621520	17.181965	-75.498201	-79.800531			
15345	10.557335	0.865686	-1.660035	1.979428	-3.582584	0.097319	17.170503	-76.149329	-79.908556			
15346	12.632607	1.473491	-4.064773	3.671304	-5.719326	1.680048	17.129050	-77.116948	-79.803995			
15347	14.423447	1.906438	-6.171412	5.080943	-7.471184	3.153017	16.627371	-78.469174	-78.929306			
15348	16.492623	2.537763	-7.886545	6.524202	-8.667574	5.118074	16.206649	-80.088901	-78.032492			
15349	19.095806	2.422521	-7.959254	6.517320	-8.700126	7.954270	17.104036	-81.812020	-78.402303			
15350	20.242176	1.102726	-4.031752	3.421692	-5.615927	9.782138	20.343428	-82.783087	-80.624813			
15351	19.782343	0.729060	1.433539	0.268808	-0.984201	10.008519	24.425967	-82.095928	-82.943704			
15352	14.726637	2.482380	6.138010	-0.935061	4.099812	5.775098	26.535982	-79.630066	-82.278919			
15353	6.400762	5.853615	11.008631	-1.443098	10.719068	-0.905484	27.495119	-75.775777	-80.075780			
15354	-3.424324	10.947609	16.187626	-1.603132	19.691103	-8.021751	29.148211	-73.836622	-79.238554			
15355	-6.988287	11.786215	-2.737124	10.578280	7.045879	-15.616174	30.127510	-74.931837	-81.754421			
15356	-3.527359	9.341665	-17.470779	17.735358	-7.379543	-15.789684	29.283071	-77.044365	-84.998419			
15357	-4.210895	8.005570	-21.588408	18.224580	-12.873776	-16.858576	30.919538	-80.076900	-90.812457			
15358	2.849648	2.545286	-23.214540	13.540384	-19.228390	-9.395840	45.730670	-83.619267	-107.282988			
15359	23.593796	-2.452474	-11.370934	2.362085	-13.191074	12.821522	60.982710	-85.330490	-122.607646			
15360	21.413489	-6.170130	3.147784	-7.685700	-1.588898	11.280207	53.588712	-86.156652	-114.425324			
15361	13.607613	-7.350164	4.145070	-8.636555	-0.730516	3.649632	30.885988	-86.979756	-91.738613			
15362	11.294597	-10.733310	3.145895	-10.802928	-2.927090	1.473476	-3.374152	-87.648184	-57.960548			
15363	9.138335	-9.918252	4.229450	-10.507193	-1.258239	-0.443584	-30.509576	-88.179623	-31.089567			
15364	8.079729	-6.087667	2.883916	-6.558675	-0.419431	-1.599084	-53.827836	-89.176865	-8.006359			
15365	8.496909	-2.723882	0.230665	-2.496482	-1.045408	-1.307402	158.162869	-89.239024	139.600885			
15366	9.044132	-0.742113	-1.437329	-0.205534	-1.487830	-0.748977	145.501343	-87.549722	152.170925			
15367	8.234957	0.994374	-3.589235	2.121566	-2.491167	-1.388148	144.690761	-85.793768	153.176981			
15368	7.396469	2.278490	-5.073319	3.801022	-3.092229	-1.962722	145.980497	-84.086472	152.363971			
15369	7.383504	3.269464	-4.937678	4.439063	-2.339089	-1.787527	146.681105	-82.481207	152.435285			
15370	8.464418	4.480326	-3.981644	4.730385	-0.667204	-0.607014	146.852469	-81.050770	153.259395			
15371	10.127407	5.310431	-2.250598	4.166525	1.520141	0.964813	146.682906	-80.023320	154.172104			
15372	10.799305	4.833800	-0.377069	2.571553	3.024024	1.339627	147.119331	-79.521455	153.981171			
15373	10.149986	3.370226	1.021529	0.693709	3.461969	0.334102	148.890114	-79.397213	152.053138			
15374	9.209553	2.199457	1.691782	-0.447611	3.413227	-0.831358	151.425249	-79.274032	148.939564			
15375	8.749695	1.445903	1.618148	-0.931169	3.014136	-1.367992	153.940621	-78.894985	145.414201			
15376	8.361542	1.108490	0.335104	-0.533160	1.816358	-1.586415	156.145864	-78.118215	141.970916			
15377	8.285198	0.917941	-2.386144	0.496635	-0.514082	-1.171668	158.115531	-76.993706	138.812239			
15378	8.530192	1.067841	-4.777788	1.502038	-2.354521	-0.382538	159.714461	-75.780648	136.158047			
15379	8.825910	0.964197	-5.892044	1.672056	-3.180925	0.218486	161.016479	-74.692721	133.949687			
15380	9.125962	0.426547	-5.683589	0.928316	-3.020558	0.472243	162.402696	-73.792481	131.903331			
15381	9.391845	-0.205988	-4.390034	-0.268892	-1.942369	0.369382	163.622060	-73.064263	130.227582			
15382	9.686931	-0.562217	-3.243755	-1.125053	-0.884616	0.317723	164.505012	-72.489530	129.078270			
15383	9.751446	-0.826752	-2.305734	-1.758585	-0.056672	0.086517	164.871489	-72.069069	128.525107			
15384	9.475692	-0.480550	-1.533575	-1.707972	0.766254	-0.385769	164.967887	-71.662685	128.258177			
15385	9.481636	0.227415	-1.625434	-1.068472	1.037876	-0.306068	165.030008	-71.192024	127.907760			
15386	9.000292	0.471157	-2.500900	-0.476704	0.315734	-0.477046	165.272304	-70.682646	127.256431			
15387	8.728730	0.413727	-2.751883	-0.426820	0.079074	-0.661423	165.499612	-70.137341	126.593282			
15388	8.432482	0.483728	-3.040367	-0.253474	-0.145089	-0.840598	165.596794	-69.492012	126.125400			
15389	8.540447	1.142973	-3.479111	0.409066	-0.161256	-0.530699	165.415166	-68.755255	125.945667			
15390	9.154642	1.833487	-3.574808	0.871759	0.281704	0.142619	165.329581	-68.123723	125.851965			
15391	9.212390	2.329767	-2.612108	0.951837	1.398520	-0.104095	165.255658	-67.679208	125.800455			
15392	9.146928	2.408693	-1.701274	0.711423	2.255013	-0.497594	165.182219	-67.307952	125.712560			
15393	9.288241	2.336074	-1.229018	0.436892	2.727107	-0.560068	165.157460	-66.978896	125.549899			
15394	9.310811	2.387020	-0.680132	0.290481	3.270867	-0.753517	165.104574	-66.672566	125.302321			
15395	9.300247	1.971732	-0.517824	-0.149635	3.294758	-0.881142	165.072094	-66.362794	124.905307			
15396	9.255230	1.679044	-0.085422	-0.539805	3.599845	-1.138864	165.058547	-65.962410	124.317954			
15397	9.529073	0.825677	-0.655106	-1.235181	2.968947	-0.780909	165.180903	-65.409213	123.461279			
15398	10.260281	0.024339	-1.489450	-1.928432	2.331161	0.103857	165.557285	-64.820146	122.364285			
15399	10.543798	-0.832414	-1.864072	-2.698402	1.951077	0.397596	165.908458	-64.335089	121.219976			
15400	10.598362	-1.766373	-2.201974	-3.500913	1.503126	0.472113	166.246731	-63.980107	120.137150			
15401	10.432712	-2.134109	-1.968250	-3.857821	1.637978	0.172472	166.415958	-63.708987	119.296557			
15402	10.394320	-2.223114	-1.993418	-3.930230	1.656476	0.125462	166.310119	-63.477977	118.842639			
15403	10.490073	-1.676600	-2.022852	-3.442705	1.877515	0.265360	165.972555	-63.279392	118.763439			
15404	10.543874	-0.615563	-1.916264	-2.493644	2.317031	0.367550	165.539287	-63.115024	118.867925			
15405	10.528774	0.185048	-1.999687	-1.742904	2.471895	0.470307	165.027641	-62.976969	119.020046			
15406	10.578554	0.937075	-2.027412	-1.061134	2.674961	0.609060	164.561107	-62.879788	119.133563			
15407	10.140674	1.445802	-2.026588	-0.503503	2.628847	0.280194	164.003864	-62.850025	119.260294			
15408	10.129981	1.881312	-1.842920	-0.137045	2.879751	0.249142	163.475855	-62.865304	119.354452			
15409	10.618194	2.229998	-1.705761	0.048070	3.259922	0.675357	162.922992	-62.857708	119.433667			
15410	10.996690	2.375317	-1.716120	0.089076	3.415717	1.042693	162.386053	-62.831978	119.418323			
15411	11.805960	2.083149	-1.635476	-0.393116	3.727149	1.691607	161.944376	-62.789094	119.218341			
15412	12.066719	1.583238	-1.630949	-0.933371	3.711548	1.854599	161.456768	-62.808534	119.032470			
15413	11.918216	1.546016	-1.134970	-1.001333	4.057264	1.512416	160.768036	-62.940866	119.091056			
15414	12.804893	2.049001	-0.431429	-0.804726	5.077935	2.100169	159.758073	-63.180107	119.505988			
15415	14.224856	2.321827	-0.578303	-0.861843	5.431174	3.522554	158.383866	-63.684925	120.351239			
15416	14.305212	2.203208	-0.906382	-0.982060	4.917678	3.794636	156.660938	-64.645335	121.643660			
15417	14.159337	1.614307	-1.172386	-1.492069	4.185922	3.777966	154.620372	-66.025537	123.334182			
15418	14.494865	0.922155	-1.249159	-2.199010	3.685089	4.118437	152.180845	-67.735755	125.516905			
15419	13.528625	0.599256	-1.489231	-2.229931	2.612749	3.369787	148.962498	-69.669365	128.654942			
15420	11.483285	1.191718	-2.189154	-1.116616	0.971033	1.843519	144.235082	-71.549527	133.617504			
15421	10.596348	3.263366	-2.011126	1.020963	0.784941	1.381061	137.479453	-72.880885	140.899741			
15422	12.246126	7.191325	-0.166847	4.037050	3.032646	3.460728	128.473296	-73.459327	150.179014			
15423	13.452114	9.841780	0.160041	5.992144	3.376180	5.369433	119.164952	-73.741649	159.224363			
15424	12.650929	9.483207	1.008741	5.678132	3.483579	4.560677	112.679948	-74.590848	165.045398			
15425	11.716168	4.786512	-0.333904	1.735754	1.016993	2.686623	109.199047	-75.784762	167.347020			
15426	12.000787	2.306339	-1.308466	-0.409648	-0.420108	2.463371	108.168533	-76.880509	166.820186			
15427	12.448902	1.255537	-2.999182	-1.210378	-2.202383	2.805896	109.410634	-77.910228	163.847597			
15428	13.161946	2.545362	-4.423760	0.145659	-3.509114	3.860193	110.284627	-79.157741	160.868406			
15429	12.163789	1.772519	-4.613749	-0.288252	-3.888501	2.724420	108.621615	-80.721670	159.918722			
15430	11.960932	-0.442371	-4.790120	-2.305366	-4.189304	2.159590	104.497378	-82.554285	161.891214			
15431	9.270682	-1.693426	-4.630668	-3.032075	-4.186388	-0.673006	100.907050	-84.339635	164.386511			
15432	8.422113	-2.036163	-4.978048	-3.123801	-4.598650	-1.509148	101.880032	-85.829660	163.510261			
15433	9.738573	-1.415519	-4.765394	-2.394666	-4.485631	-0.133105	96.433134	-86.815462	169.035533			
15434	9.551605	-2.309906	-5.448025	-3.226402	-5.247350	-0.415812	74.015681	-87.081574	-168.507956			
15435	8.884302	-1.178268	-3.187105	-1.848060	-3.285574	-1.079888	51.337720	-86.569380	-145.340794			
15436	8.982512	-0.244698	-2.116029	-0.819058	-2.501046	-0.964351	36.949873	-85.713775	-130.464426			
15437	8.987254	-0.228673	-2.806727	-0.803244	-3.388448	-1.062242	27.192569	-84.823268	-120.137846			
15438	8.304340	-0.431356	-2.617016	-0.898890	-3.318415	-1.801841	19.674647	-83.872198	-111.961111			
15439	7.648833	-0.587754	-2.560539	-0.955586	-3.358880	-2.518281	14.512405	-82.833772	-106.173062			
15440	7.129322	-0.882491	-2.657969	-1.171533	-3.539704	-3.121928	11.270221	-81.736148	-102.298139			
15441	6.734561	-0.774068	-2.500171	-0.996007	-3.471465	-3.554953	9.698123	-80.664809	-100.026313			
15442	7.111837	-0.215822	-3.057344	-0.401116	-4.216641	-3.329704	8.985353	-79.583519	-98.531661			
15443	6.701125	0.162536	-2.535524	0.031348	-3.755799	-3.709300	8.706006	-78.377889	-97.383347			
15444	6.190138	0.571211	-2.332844	0.487493	-3.564140	-4.232003	9.173654	-77.177029	-96.902905			
15445	5.800965	1.146537	-1.437584	1.057891	-2.676300	-4.450780	10.181553	-76.140869	-96.897125			
15446	6.009043	1.600126	-1.142676	1.494019	-2.479154	-4.191642	11.336479	-75.340705	-97.111051			
15447	6.209070	1.867841	-1.141849	1.757945	-2.551520	-4.003689	12.290446	-74.746739	-97.194825			
15448	6.216728	2.131964	-1.388235	2.054283	-2.792408	-4.059210	12.828088	-74.300862	-96.967819			
15449	6.108215	1.891798	-1.353043	1.835316	-2.766126	-4.182412	12.987038	-73.958332	-96.468531			
15450	6.014772	1.837130	-1.135438	1.781447	-2.546899	-4.228652	12.990165	-73.716999	-95.897809			
15451	5.820256	1.855554	-0.943998	1.802195	-2.310571	-4.369994	12.990416	-73.547592	-95.370726			
15452	5.479490	2.115968	-0.923574	2.084221	-2.156788	-4.678549	13.036088	-73.482670	-94.942335			
15453	5.011975	2.375835	-0.823909	2.352808	-1.876769	-5.081380	13.223073	-73.541910	-94.611234			
15454	4.519264	2.705201	-0.782805	2.692563	-1.620747	-5.514105	13.613671	-73.733909	-94.520124			
15455	3.988981	2.997055	-0.439137	2.937318	-1.065031	-5.897988	14.303799	-74.059949	-94.861338			
15456	4.057458	2.975712	-0.576753	2.927169	-1.177033	-5.850802	15.439478	-74.552750	-95.846672			
15457	4.483645	2.722148	-0.502258	2.631870	-1.211054	-5.411364	17.097444	-75.208823	-97.434566			
15458	5.445981	2.558908	-0.093144	2.335132	-1.020830	-4.361114	19.315399	-76.027574	-99.611292			
15459	6.771518	2.185200	0.352714	1.791350	-0.869036	-2.972555	21.805352	-76.949237	-102.208468			
15460	8.467252	1.286171	1.095819	0.653223	-0.527469	-1.219550	24.148818	-77.992437	-104.681905			
15461	10.723641	0.142008	2.194090	-0.799345	0.101798	1.104129	25.884462	-79.149134	-106.504222			
15462	13.273967	-1.282612	3.577207	-2.544386	1.012628	3.720022	26.474561	-80.280776	-107.159628			
15463	15.720166	-2.801819	4.440821	-4.234071	1.460394	6.144452	25.933845	-81.161787	-106.369358			
15464	17.613618	-3.518084	4.936692	-5.068725	1.636771	8.037138	25.921238	-81.407138	-105.120942			
15465	18.162831	-2.214201	5.986122	-4.170017	2.598470	8.800822	28.414359	-80.594511	-105.120813			
15466	17.804448	1.182961	8.410378	-1.900218	5.192348	9.120916	31.586740	-78.544665	-104.966406			
15467	14.966786	4.448167	11.574945	-0.259108	8.788331	7.517272	32.573321	-75.300126	-102.977631			
15468	10.481633	6.402734	15.800758	-0.290563	13.454708	4.994534	31.202847	-71.806053	-99.429526			
15469	2.698873	6.783785	21.525870	-2.130507	20.481072	-0.188324	29.493032	-70.714417	-96.910851			
15470	6.030061	2.657255	9.986545	-1.613489	7.784254	-0.871158	28.725147	-71.610054	-96.879166			
15471	6.790873	2.400640	4.118546	0.446967	2.417171	-1.888251	28.521397	-72.692000	-97.786006			
15472	7.097205	2.778779	1.744164	1.688303	0.433019	-2.190638	28.555439	-73.487000	-98.776773			
15473	7.046454	2.758818	-0.412001	2.422393	-1.456384	-2.781030	28.480632	-73.957053	-99.280990			
15474	7.638262	3.003586	-1.213652	2.892843	-2.237830	-2.365474	28.404917	-74.354502	-99.497667			
15475	9.673871	2.778693	-1.972314	2.837987	-3.470225	-0.587872	28.720584	-75.063437	-99.967506			
15476	11.952490	2.470336	-2.971727	2.765273	-4.910345	1.413788	29.172690	-76.115110	-100.683043			
15477	13.205192	1.787425	-4.438945	2.523902	-6.545191	2.355292	29.364046	-77.421293	-101.387971			
15478	14.591573	1.082664	-7.045332	2.609570	-9.178823	3.326856	29.814935	-78.984823	-102.072368			
15479	15.867132	1.367618	-7.831536	3.086615	-9.661408	4.750025	32.174912	-80.776992	-104.309483			
15480	17.957538	1.465691	-5.953801	2.462146	-7.713142	7.348010	38.796505	-82.103492	-110.568855			
15481	20.318973	2.104609	-1.094005	1.208110	-2.963968	10.392119	45.790150	-81.819060	-116.455123			
15482	16.956290	3.998519	3.981755	1.163918	2.680027	7.816732	47.013080	-80.179083	-115.425589			
15483	9.497973	5.039956	5.598741	1.714822	5.291007	0.957348	43.664153	-77.551238	-109.324764			
15484	2.430795	5.606436	7.718774	1.492008	8.539489	-5.150563	39.591056	-74.337680	-102.823710			
15485	-5.131300	7.206096	9.270699	2.312875	12.498094	-11.436207	38.495674	-72.998163	-100.336818			
15486	-8.848458	9.896255	-0.507999	9.524040	6.185752	-16.702549	40.246209	-75.044176	-104.536909			
15487	-3.326623	8.365584	-13.657304	13.377823	-8.400871	-14.030534	46.487338	-78.838231	-115.440382			
15488	0.914760	6.594076	-24.402928	14.159421	-20.939315	-10.368685	64.505660	-82.733072	-137.548710			
15489	11.059323	0.397125	-19.547682	4.668260	-19.240527	0.787628	95.784019	-84.166452	-171.019697			
15490	21.016043	-3.937652	-9.440509	-3.447161	-10.289360	10.888391	106.211431	-84.238341	179.169761			
15491	13.662328	-3.558107	-0.072140	-4.708849	-1.068812	3.454034	104.865317	-84.612260	-178.018220			
15492	13.379079	-4.121492	4.342002	-6.368243	2.897095	3.067123	108.798649	-85.470007	179.161750			
15493	14.037448	-6.123653	4.864346	-8.285894	2.814747	3.664119	115.709453	-86.466752	172.110240			
15494	11.842952	-7.814086	2.050601	-8.691663	-0.285532	1.584202	126.763059	-87.191337	160.909197			
15495	8.892404	-6.450783	2.259237	-7.195885	0.371264	-1.217826	147.713065	-87.268210	140.401933			
15496	7.161076	-5.514859	1.045764	-5.851981	-0.442925	-2.859644	154.405311	-86.358281	133.553435			
15497	6.630967	-4.072447	-2.230939	-3.554776	-2.994044	-3.184956	153.793018	-84.584524	133.973228			
15498	7.602158	-1.683653	-5.002892	-0.705883	-4.631510	-1.831662	153.185811	-82.137227	134.653430			
15499	9.904624	0.717016	-8.238048	2.056223	-6.476318	1.155161	151.643742	-80.006053	136.426817			
15500	9.681304	2.672974	-7.523664	3.484994	-5.009069	1.152555	149.490126	-78.742261	139.209386			
15501	8.778841	4.125553	-4.163558	3.802021	-1.388062	-0.063879	147.298427	-78.009849	142.306153			
15502	8.603815	4.925348	-2.484307	3.919046	0.505903	-0.387195	145.529258	-77.480384	145.085394			
15503	9.367007	5.092036	-1.457077	3.484865	1.677080	0.228960	144.490114	-77.154318	147.112288			
15504	9.034090	4.491220	-0.522947	2.584373	2.330236	-0.328508	144.518281	-76.934011	147.989754			
15505	9.161780	4.601462	0.596885	2.194325	3.470516	-0.399511	145.172506	-76.658952	147.730785			
15506	9.558999	3.979397	0.379005	1.601093	3.135551	-0.068040	146.283792	-76.333529	146.500275			
15507	9.545454	3.233306	-0.110304	1.099586	2.454517	-0.099394	147.436904	-76.027547	144.948272			
15508	9.378083	2.661793	-0.844076	0.875295	1.589334	-0.197398	148.095583	-75.784820	143.790870			
15509	8.729016	2.920775	-0.464086	1.102935	1.970222	-0.877155	148.372204	-75.526185	142.941020			
15510	8.277648	2.968782	-0.986825	1.400529	1.470163	-1.199678	148.787888	-75.090115	141.824371			
15511	8.083819	3.147413	-1.699725	1.816329	0.904556	-1.208874	150.195365	-74.490578	139.692302			
15512	8.025428	2.691820	-2.226042	1.546051	0.346052	-1.204700	152.212006	-73.678340	136.758098			
15513	8.031019	1.848133	-2.695221	0.858315	-0.229811	-1.188010	154.421280	-72.598728	133.438188			
15514	8.496477	0.940516	-3.683113	0.118515	-1.130188	-0.574539	156.740423	-71.257859	129.967823			
15515	9.563905	-0.162487	-5.389087	-0.782454	-2.501750	0.848333	159.310147	-69.927744	126.580237			
15516	10.292929	-0.893239	-5.391882	-1.665176	-2.236741	1.502495	161.425185	-69.006782	123.953476			
15517	10.247177	-1.837771	-4.857616	-2.685156	-1.843532	1.204051	162.350547	-68.625968	122.550957			
15518	9.527577	-1.813603	-3.052954	-2.924065	-0.331238	-0.080042	162.574906	-68.504380	121.996739			
15519	8.906442	-1.166432	-1.833801	-2.459533	0.802631	-1.017552	162.444235	-68.257538	121.827451			
15520	8.804487	-0.441272	-1.826679	-1.778732	1.028822	-1.047561	162.407751	-67.705953	121.612649			
15521	9.131424	0.335586	-2.582112	-0.993564	0.743492	-0.398782	162.453038	-66.975631	121.324051			
15522	9.524773	1.007650	-3.357650	-0.331856	0.451395	0.321189	162.496558	-66.317325	121.063496			
15523	9.524118	1.582905	-2.831508	0.072519	1.159542	0.181388	162.519048	-65.855964	120.862804			
15524	9.259029	1.827253	-1.860180	0.149431	2.064977	-0.418966	162.560819	-65.494295	120.689641			
15525	9.073764	2.059982	-0.951112	0.222735	2.922351	-0.930604	162.559056	-65.171270	120.560631			
15526	9.157087	2.171155	-0.429101	0.197576	3.489935	-1.064462	162.471972	-64.850476	120.458104			
15527	9.355817	2.322971	-0.040932	0.216034	3.987337	-1.038664	162.380893	-64.522809	120.283513			
15528	9.557825	2.304506	-0.069829	0.149811	4.075714	-0.866542	162.315916	-64.144873	119.959651			
15529	9.668355	2.057725	-0.363943	-0.065723	3.849867	-0.701287	162.278694	-63.696182	119.423490			
15530	9.879400	1.288354	-1.214930	-0.721483	3.066900	-0.283186	162.329189	-63.190881	118.668499			
15531	10.237473	0.226076	-2.223503	-1.680573	2.166564	0.300758	162.492627	-62.747700	117.783106			
15532	10.483038	-0.839070	-2.931519	-2.669094	1.501456	0.666481	162.622605	-62.494220	116.997739			
15533	10.375001	-1.489261	-2.818237	-3.283226	1.489726	0.424596	162.631679	-62.421308	116.447628			
15534	10.284878	-1.672439	-2.586648	-3.465333	1.660541	0.212307	162.477770	-62.364128	116.149429			
15535	10.236238	-1.469642	-2.759762	-3.254060	1.552576	0.264869	162.166981	-62.221657	116.092580			
15536	10.337103	-0.536981	-2.900912	-2.386926	1.660723	0.536404	161.707791	-62.021616	116.239085			
15537	10.301023	0.456831	-2.842469	-1.460521	1.889426	0.613057	161.215556	-61.836105	116.441361			
15538	10.388923	1.390280	-2.554903	-0.636699	2.352908	0.696757	160.735930	-61.675005	116.628228			
15539	10.753103	2.087490	-2.529963	-0.071215	2.653053	1.111768	160.400682	-61.546253	116.702710			
15540	11.056159	2.194396	-2.650108	-0.043242	2.690631	1.449449	160.106595	-61.542721	116.682473			
15541	11.548557	1.776350	-2.052518	-0.599774	3.343948	1.553736	159.793856	-61.694717	116.664290			
15542	11.888464	1.406823	-1.488318	-1.068039	3.888868	1.556811	159.257400	-61.927491	116.859577			
15543	12.111717	1.447301	-1.497991	-1.090780	3.907423	1.787910	158.470259	-62.235553	117.373068			
15544	12.485841	1.907349	-1.337889	-0.774571	4.163532	2.161760	157.230231	-62.626681	118.395488			
15545	13.477564	2.350833	-0.904655	-0.665552	4.851697	2.993670	155.332053	-63.184906	120.093727			
15546	14.208172	2.685039	-0.381932	-0.642213	5.405099	3.588437	153.017849	-64.059246	122.350463			
15547	14.154934	2.968838	-0.241192	-0.462496	5.216825	3.670320	150.536963	-65.228169	124.934177			
15548	14.110564	3.158017	0.243530	-0.358752	5.290436	3.641207	147.915131	-66.561450	127.632759			
15549	13.691801	3.010249	0.471894	-0.437450	4.953734	3.302335	145.150413	-67.925744	130.305641			
15550	11.774666	3.060994	0.000755	0.105300	3.593882	1.809483	142.144392	-69.193921	133.068281			
15551	10.411862	3.656626	-1.097730	1.065131	1.934686	1.054557	138.555558	-70.240676	136.328702			
15552	10.945411	4.977321	-1.833854	2.201904	1.166922	2.091846	134.050508	-71.060352	140.480114			
15553	11.977344	6.302336	-1.461284	3.114101	1.499650	3.353533	128.658401	-71.769748	145.598813			
15554	12.439113	7.257930	-0.497910	3.785001	2.182005	3.918713	122.958517	-72.526853	150.952149			
15555	11.826658	6.336394	-0.255107	3.041651	1.814994	3.130417	117.943742	-73.451987	155.213121			
15556	10.993673	4.019923	-0.856465	1.123743	0.609891	1.854024	114.474058	-74.393402	157.584222			
15557	11.254926	2.996983	-1.895127	0.207895	-0.656188	1.967372	112.994961	-75.293276	157.752522			
15558	11.691697	3.131986	-2.739981	0.374304	-1.588987	2.489527	112.444222	-76.342296	156.521879			
15559	11.563438	2.264620	-3.728577	-0.333093	-2.704710	2.241966	111.796442	-77.644512	154.881837			
15560	10.868090	0.999520	-4.393199	-1.355518	-3.476570	1.344765	111.396158	-79.180660	152.945241			
15561	11.063656	-0.785208	-5.044386	-3.067708	-4.021224	1.272590	111.028500	-80.869584	151.492187			
15562	9.878703	-1.286645	-5.838460	-3.364717	-4.906298	0.083633	110.040590	-82.414215	151.238138			
15563	9.538552	-1.812093	-5.777211	-3.705659	-4.875856	-0.318706	108.638068	-83.720611	152.131172			
15564	9.304334	-1.754907	-5.010041	-3.384228	-4.254650	-0.582658	103.918745	-84.671129	156.786204			
15565	9.039186	-1.628596	-5.127383	-3.188892	-4.549182	-0.880588	93.632807	-85.116901	167.177251			
15566	9.686455	-0.447124	-4.642956	-1.978463	-4.441074	-0.224053	78.815846	-85.138779	-177.651145			
15567	9.512066	0.014834	-2.863308	-1.219693	-2.988820	-0.418444	62.492178	-84.828633	-160.927106			
15568	8.969158	0.374363	-1.858787	-0.645421	-2.268123	-0.954040	48.486249	-84.327454	-146.562302			
15569	8.775636	-0.034989	-2.168477	-1.026523	-2.716074	-1.252278	36.826528	-83.743380	-134.677115			
15570	8.507460	-1.106051	-3.518072	-2.170544	-4.079470	-1.774080	27.011003	-82.972471	-124.475911			
15571	7.710827	-1.300583	-3.154462	-2.173729	-3.813545	-2.613631	19.621280	-81.985047	-116.417260			
15572	7.291505	-1.373420	-3.274088	-2.146155	-4.062936	-3.130297	14.894138	-80.830614	-110.857634			
15573	6.770683	-1.277163	-2.935361	-1.907798	-3.842526	-3.674163	12.322745	-79.651856	-107.251030			
15574	6.535287	-0.626050	-1.903254	-1.102432	-3.000411	-3.770795	11.461570	-78.585662	-105.222091			
15575	6.603246	0.128457	-1.972080	-0.314940	-3.250776	-3.743045	11.485122	-77.671212	-104.114167			
15576	6.666783	0.686768	-1.688404	0.285773	-3.099528	-3.641868	11.784828	-76.938803	-103.349395			
15577	6.624657	0.959520	-1.764641	0.593050	-3.231838	-3.719752	12.091769	-76.365500	-102.614910			
15578	6.783425	1.161982	-1.567079	0.822908	-3.121254	-3.535655	12.264536	-75.887477	-101.890357			
15579	6.676041	1.063635	-1.866070	0.773298	-3.419152	-3.738629	12.302688	-75.489056	-101.001183			
15580	6.512178	1.320386	-1.549807	1.069891	-3.092731	-3.825705	12.446847	-75.121452	-100.255716			
15581	6.389805	1.633172	-1.131897	1.399589	-2.662708	-3.835303	12.763964	-74.828450	-99.753620			
15582	6.308828	2.088461	-0.895984	1.862504	-2.398060	-3.833881	13.170920	-74.587441	-99.444876			
15583	6.004603	2.525897	-0.675794	2.305389	-2.077299	-4.045356	13.680057	-74.417083	-99.362964			
15584	5.483412	2.974312	-0.874366	2.794227	-2.085162	-4.566431	14.258825	-74.377018	-99.450411			
15585	5.108249	3.210096	-0.900970	3.048643	-1.967759	-4.909190	14.893225	-74.479957	-99.707468			
15586	4.642261	3.048170	-0.942735	2.909839	-1.864348	-5.364365	15.739262	-74.755512	-100.260594			
15587	4.603095	3.133196	-0.808265	2.974570	-1.673754	-5.339558	16.941925	-75.206522	-101.205918			
15588	5.148360	3.194752	-0.927448	3.007893	-1.863355	-4.807462	18.369725	-75.763182	-102.436782			
15589	5.706483	3.263536	-0.023475	2.928777	-1.047096	-4.021279	20.019876	-76.407823	-103.909482			
15590	6.764874	3.190588	1.022581	2.657128	-0.187521	-2.749224	21.717295	-77.202627	-105.500310			
15591	7.973527	2.476522	1.827179	1.774114	0.389420	-1.461152	23.018485	-78.118415	-106.804746			
15592	9.678719	0.547874	2.752907	-0.338148	0.917764	0.217126	24.084974	-79.069112	-107.976497			
15593	12.672023	-0.705317	4.147818	-1.881758	1.800638	3.282937	24.599765	-79.918273	-108.585165			
15594	15.016903	-1.983065	5.575350	-3.388366	2.844869	5.709834	24.235384	-80.453777	-108.052457			
15595	16.577108	-2.970531	6.460142	-4.544341	3.388388	7.311130	24.031953	-80.458128	-106.884192			
15596	17.664035	-2.734807	7.812692	-4.736561	4.335903	8.606797	26.077874	-79.680752	-106.654472			
15597	16.980362	0.999075	10.449077	-2.036185	7.088365	8.735512	29.134165	-77.829874	-106.193149			
15598	13.903212	5.553074	14.240805	0.814410	11.668285	7.216385	31.036627	-75.314014	-104.789670			
15599	10.313251	8.438404	17.603895	2.044911	15.913996	5.351836	30.567176	-73.459500	-102.465071			
15600	7.900054	4.753950	14.499721	-0.570366	12.427897	2.039471	28.122068	-73.285283	-99.816687			
15601	8.112156	0.809478	7.488567	-1.957551	4.805659	-0.034526	25.809542	-73.696731	-97.909133			
15602	8.419484	0.359457	2.917435	-0.846534	0.446922	-0.946395	23.723574	-73.872386	-96.472023			
15603	7.385105	0.665528	1.842644	-0.114474	-0.182840	-2.175224	21.626939	-73.542191	-94.890021			
15604	5.129629	0.691772	3.041960	-0.317485	1.519408	-4.013091	19.721987	-73.184987	-93.392477			
15605	4.668499	-0.724161	1.793166	-1.265960	0.111051	-4.921916	18.394549	-73.235324	-92.315626			
15606	6.377251	-1.820870	-0.564103	-1.653870	-2.821621	-4.015610	17.542636	-73.540126	-91.536242			
15607	8.742494	-1.577437	-1.485437	-1.157593	-4.229435	-1.945200	16.901640	-74.011710	-90.909887			
15608	11.467935	-0.990816	-2.823099	-0.197621	-5.956623	0.431438	16.133889	-74.832291	-90.048914			
15609	13.276185	-0.179346	-4.153080	1.018731	-7.248378	2.017483	15.067950	-76.016281	-88.752413			
15610	15.246148	1.022541	-5.011189	2.509802	-7.875779	3.980746	14.234538	-77.557821	-87.559468			
15611	17.961271	2.271800	-4.863945	3.737364	-7.525180	6.944542	14.440042	-79.209750	-87.440737			
15612	21.039680	1.755665	-3.148976	2.697063	-6.142823	10.451417	17.048652	-80.576575	-89.822603			
15613	23.941116	0.169266	-0.784757	0.299450	-4.583277	13.697340	21.849641	-80.664522	-93.237717			
15614	18.847871	2.429797	5.129416	0.293242	2.226176	9.741730	25.504505	-78.898600	-93.494229			
15615	9.221792	5.531123	10.146005	0.839007	9.169619	1.749452	27.326347	-75.338453	-91.446504			
15616	-0.669989	8.970596	15.867203	0.555170	17.666817	-5.333891	28.924037	-72.008257	-89.341604			
15617	-7.414830	10.487085	5.806498	6.177420	12.056748	-13.704566	30.946989	-72.099068	-90.534007			
15618	-8.128926	12.227919	-14.735123	17.917481	-4.451439	-19.387800	32.134158	-74.097341	-95.310622			
15619	-10.414049	14.155616	-24.070120	23.115046	-13.165880	-23.219309	30.848355	-76.510637	-99.600143			
15620	-0.622395	5.162421	-23.985402	13.095229	-20.346388	-13.878655	36.988945	-80.249927	-108.605659			
15621	17.157366	-0.018261	-15.505646	3.978244	-16.901469	5.457861	46.118687	-83.023249	-117.686719			
15622	32.854841	-6.392533	6.557093	-9.833978	0.855726	22.834518	45.487720	-84.183381	-115.926457			
15623	17.941737	-6.614660	5.759498	-8.758174	1.563259	8.066515	33.067328	-84.547346	-103.479180			
15624	12.235000	-9.281973	2.748733	-9.784273	-1.482917	2.247661	16.151789	-85.490293	-87.492110			
15625	9.584716	-13.836488	-2.107851	-12.384984	-7.017409	-0.586977	3.506936	-86.023507	-75.694184			
15626	7.649446	-9.295508	-0.446527	-8.595798	-3.802672	-2.278010	9.256879	-86.297774	-80.958605			
15627	7.364020	-2.759700	0.883919	-2.888580	-0.473623	-2.460409	27.508917	-86.961276	-98.466034			
15628	8.487874	-0.515405	-0.281311	-0.566676	-0.816901	-1.363106	59.861195	-87.129189	-130.735998			
15629	8.981094	0.171098	-3.134823	0.758955	-3.196740	-0.884424	85.521234	-86.213139	-156.832151			
15630	8.902048	0.635726	-6.779122	2.115159	-6.418830	-0.872552	96.279473	-84.886341	-167.569085			
15631	8.298735	2.724381	-5.261333	3.493584	-4.217000	-1.211377	100.715469	-83.822366	-170.767279			
15632	8.744475	4.939547	-1.186783	4.019600	0.501324	-0.546591	103.806257	-83.091699	-171.917516			
15633	9.698865	6.431673	1.251671	4.207680	3.467179	0.544436	105.488087	-82.637801	-171.824838			
15634	10.237007	6.198105	2.807673	3.145575	4.898799	1.013269	106.051115	-82.428595	-171.378041			
15635	9.823496	4.551457	3.385308	1.399105	4.799688	0.369768	107.575336	-82.448110	-172.560059			
15636	8.639181	3.123140	2.947974	0.445215	3.887466	-0.994037	112.066523	-82.462569	-177.259819			
15637	8.536254	2.704929	1.584105	0.659097	2.587734	-1.120097	119.317467	-82.264649	174.811182			
15638	9.285316	2.796032	-1.431904	1.847403	0.027241	-0.186180	127.144561	-81.881606	165.847708			
15639	10.361708	1.393234	-4.254924	1.457828	-2.972900	0.978341	130.942423	-81.779695	160.645871			
15640	8.669696	0.181549	-1.866286	-0.334035	-1.224012	-1.033761	133.286936	-81.724539	157.220374			
15641	8.156420	0.293594	-1.287607	-0.381060	-0.599154	-1.580654	136.527037	-81.349266	153.245550			
15642	9.133807	0.826291	-1.945789	0.157597	-0.874880	-0.479738	138.975907	-80.791413	150.072902			
15643	9.354471	1.223172	-1.947971	0.445324	-0.638468	-0.211118	141.013477	-80.310384	147.352718			
15644	9.025284	0.978219	-1.688575	0.144789	-0.415695	-0.589375	143.269219	-79.888727	144.423975			
15645	9.123554	0.154350	-2.359362	-0.481744	-1.204234	-0.477456	145.230282	-79.460178	141.805776			
15646	9.157871	-0.455263	-2.770837	-0.985758	-1.680869	-0.434330	146.796074	-79.033272	139.809414			
15647	9.025709	-0.423078	-2.543518	-1.035371	-1.385147	-0.586608	148.087832	-78.551443	138.323033			
15648	9.302627	-0.096306	-2.357909	-0.858178	-0.990918	-0.305392	149.087095	-78.003105	137.199351			
15649	9.580644	0.319628	-2.301153	-0.565529	-0.689765	0.005142	150.030375	-77.473222	136.105538			
15650	9.783878	0.205830	-2.841839	-0.600647	-1.116197	0.298462	151.079737	-77.036838	134.921596			
15651	9.121330	0.297475	-1.980897	-0.656497	-0.299022	-0.501934	152.200461	-76.607819	133.680375			
15652	9.214419	0.387788	-2.620399	-0.450817	-0.779817	-0.267514	152.933279	-76.099563	132.785699			
15653	8.996990	0.868497	-2.470167	-0.033350	-0.461483	-0.453887	153.554957	-75.593106	132.162232			
15654	8.786202	1.780503	-2.072150	0.729982	0.210299	-0.642979	154.064892	-75.042989	131.741722			
15655	8.892423	2.712040	-1.810621	1.488040	0.820431	-0.494930	154.488016	-74.496353	131.403893			
15656	8.730363	3.428522	-1.550649	2.090087	1.314725	-0.632221	154.979297	-73.968839	130.889113			
15657	8.810410	3.641255	-1.179756	2.153883	1.814486	-0.628909	155.654260	-73.462483	130.074194			
15658	8.872832	3.461761	-0.673963	1.826156	2.322609	-0.733296	156.286264	-72.949932	129.147820			
15659	8.928243	3.222330	-0.548116	1.542317	2.451977	-0.756967	156.706915	-72.435699	128.254318			
15660	8.984895	2.871167	-0.428030	1.158760	2.541947	-0.793229	157.034969	-71.945263	127.310025			
15661	8.911075	2.458660	-0.056487	0.691278	2.818105	-1.035695	157.233955	-71.476984	126.426667			
15662	9.210113	1.989291	-0.031063	0.180599	2.858054	-0.835883	157.336072	-70.999437	125.471562			
15663	9.615832	1.254520	-0.006190	-0.602548	2.877256	-0.571693	157.376598	-70.573881	124.487668			
15664	10.050084	0.232008	-0.303707	-1.607489	2.564908	-0.221707	157.343320	-70.204357	123.394348			
15665	10.610811	-0.818805	-0.648248	-2.661268	2.272128	0.258770	157.322670	-69.928918	122.244279			
15666	10.984452	-1.745894	-0.963909	-3.564572	2.012521	0.573750	157.372617	-69.760278	120.967671			
15667	10.899021	-2.453046	-1.513195	-4.148817	1.453412	0.568541	157.476785	-69.677444	119.737696			
15668	10.470187	-2.816487	-1.865451	-4.378283	1.030606	0.227495	157.460984	-69.611230	118.800820			
15669	10.062489	-2.654195	-1.793196	-4.154288	1.061882	-0.162401	157.328193	-69.489647	118.388288			
15670	9.996892	-1.951618	-1.518443	-3.487175	1.431638	-0.229255	157.136845	-69.269369	118.418943			
15671	10.513825	-0.905216	-1.327459	-2.591344	1.925181	0.321437	156.848587	-69.024712	118.845171			
15672	10.894074	-0.210660	-1.383973	-2.015542	2.090297	0.780171	156.424554	-68.855765	119.476082			
15673	11.045221	0.482203	-0.839481	-1.448489	2.738410	0.833297	156.003699	-68.749892	120.080462			
15674	11.327895	1.046189	-0.639297	-1.003762	3.087125	1.109144	155.419942	-68.643749	120.536291			
15675	12.179519	1.125145	-1.246309	-1.080839	2.784012	2.113789	154.665265	-68.601601	120.956010			
15676	12.119069	1.048753	-0.974693	-1.185694	2.984363	1.960558	154.084248	-68.729640	121.198169			
15677	11.995732	0.507133	-0.459304	-1.720595	3.321385	1.605429	153.671598	-69.004129	121.341239			
15678	12.674312	0.186771	0.199756	-2.176260	4.040363	2.004731	153.140424	-69.470415	121.711607			
15679	12.803646	0.063819	0.200791	-2.308045	3.937082	2.151746	152.011274	-70.122919	122.817066			
15680	13.027081	0.447557	0.227394	-1.994229	3.880198	2.472247	150.172241	-70.859573	124.857744			
15681	13.219596	1.325619	0.260134	-1.241197	3.821168	2.853562	147.419812	-71.611425	128.018339			
15682	13.490825	2.487484	0.559982	-0.293282	4.031079	3.308216	143.702287	-72.340759	132.171870			
15683	13.310635	4.003683	1.149809	1.038179	4.436994	3.368681	139.289924	-73.060744	136.924170			
15684	12.518827	5.611003	1.643427	2.625876	4.645777	2.931595	134.882208	-73.859667	141.406329			
15685	10.679483	5.999997	1.667557	3.369365	4.106583	1.350129	130.822110	-74.704251	145.287435			
15686	9.742878	6.459801	0.331656	4.140496	2.451497	0.845828	126.774446	-75.313063	148.914162			
15687	10.772923	7.942334	-1.126310	5.464096	1.053820	2.411524	122.273175	-75.747127	152.973784			
15688	11.920976	9.632722	-1.620669	6.861021	0.532379	3.977024	116.775326	-76.170786	157.880828			
15689	11.675447	10.038265	-1.148109	7.258508	0.595533	3.801379	110.538021	-76.650043	163.215110			
15690	11.050089	8.090047	-0.978129	5.508661	0.146004	2.762266	105.079832	-77.138834	167.285917			
15691	11.255078	5.586021	-2.149414	3.094757	-1.473508	2.465132	101.398884	-77.641216	169.193589			
15692	11.979699	3.474656	-3.133938	0.908262	-2.677071	2.733795	99.279961	-78.287448	169.191394			
15693	12.446329	1.606469	-3.863823	-1.019287	-3.448143	2.816331	97.850439	-79.073107	168.126577			
15694	12.446736	-0.115279	-5.149116	-2.811882	-4.637525	2.517542	95.829751	-79.977008	167.598208			
15695	11.591373	-0.177167	-4.108904	-2.602434	-3.645580	1.642062	92.845731	-80.996551	168.285531			
15696	10.943641	-0.252812	-4.936573	-2.675751	-4.507978	0.990796	89.553507	-82.080515	169.548428			
15697	10.168210	-0.859851	-6.816110	-3.461714	-6.295994	0.135556	86.613116	-83.274061	171.439807			
15698	9.802798	-1.294562	-6.144272	-3.601952	-5.620428	-0.275527	81.166045	-84.274430	176.537093			
15699	9.479252	-0.981264	-5.023100	-2.935292	-4.712862	-0.581141	71.201277	-84.713419	-173.753789			
15700	9.607789	-1.415082	-4.201609	-3.144197	-3.975173	-0.524276	59.383312	-84.709938	-161.945137			
15701	9.369556	-0.992793	-2.749733	-2.359322	-2.829025	-0.715322	47.864714	-84.387138	-150.153004			
15702	9.503438	-0.917909	-2.389307	-2.178168	-2.695986	-0.601273	37.557957	-83.875729	-139.508390			
15703	8.756963	-1.328969	-2.636148	-2.520251	-3.006077	-1.445644	28.360140	-83.049454	-129.921752			
15704	7.982525	-1.826450	-1.801124	-2.746002	-2.231917	-2.211730	21.456093	-81.919409	-122.605375			
15705	7.249959	-1.538683	-1.128004	-2.260651	-1.746576	-2.881759	16.851626	-80.734120	-117.578074			
15706	6.874530	-1.585068	-1.484836	-2.323532	-2.200700	-3.352643	13.692795	-79.672865	-113.919992			
15707	6.552553	-1.539069	-1.916264	-2.293569	-2.723708	-3.788095	11.550413	-78.767652	-110.900953			
15708	6.280198	-1.006501	-2.147200	-1.739038	-3.113423	-4.125399	10.490334	-77.955442	-108.830946			
15709	6.186569	-0.346499	-2.369518	-1.062148	-3.509992	-4.284659	10.353316	-77.233499	-107.595279			
15710	6.540388	0.303983	-2.598099	-0.418090	-3.965513	-4.005933	10.726704	-76.647126	-106.811056			
15711	6.693137	0.788321	-2.342912	0.129366	-3.859909	-3.813296	11.392119	-76.122615	-106.277363			
15712	6.591680	1.349600	-2.112926	0.754576	-3.699995	-3.856467	12.291745	-75.652440	-106.014519			
15713	6.383715	1.945124	-1.988249	1.402027	-3.589088	-4.012589	13.441701	-75.217632	-106.058150			
15714	6.245393	2.450559	-1.664007	1.943106	-3.273781	-4.043305	14.734660	-74.778770	-106.427734			
15715	5.766593	2.641084	-1.023674	2.180182	-2.537831	-4.327887	16.240088	-74.413189	-107.030416			
15716	5.562779	2.980596	-0.535536	2.520305	-2.003166	-4.358285	18.011394	-74.187253	-107.943894			
15717	5.385866	3.517109	-0.038042	3.034383	-1.448080	-4.328681	20.012174	-74.060255	-109.214957			
15718	5.085230	3.976379	0.106777	3.473875	-1.189173	-4.502303	22.207342	-74.031325	-110.908689			
15719	4.962004	4.282671	-0.127356	3.755183	-1.338044	-4.608193	24.432049	-74.118110	-112.816256			
15720	5.021149	4.400893	-0.169723	3.826826	-1.345930	-4.506843	26.640784	-74.384624	-114.857032			
15721	5.490322	4.428103	0.183277	3.751400	-1.057440	-3.931055	28.696992	-74.865564	-116.835342			
15722	6.203741	3.964505	0.824136	3.156436	-0.529060	-3.131432	30.646148	-75.590652	-118.920927			
15723	7.436286	3.013815	1.433186	2.035519	-0.110154	-1.921004	32.569298	-76.495684	-121.204748			
15724	8.807439	1.920173	1.941146	0.785936	0.248819	-0.628786	34.489653	-77.527422	-123.662258			
15725	10.405166	0.827831	2.795716	-0.455118	0.991643	0.937839	36.162028	-78.674299	-125.830453			
15726	12.103052	-0.562073	3.339130	-1.938326	1.500878	2.513424	37.553444	-79.899401	-127.582800			
15727	13.443225	-1.895278	3.614052	-3.287500	1.839003	3.721664	38.731469	-80.975694	-128.705716			
15728	14.006355	-2.569869	3.598118	-3.945221	1.924507	4.203703	40.501216	-81.582506	-129.719122			
15729	14.165682	-2.198762	3.852247	-3.679155	2.178547	4.401927	43.584713	-81.337693	-131.201918			
15730	14.050137	-0.293548	4.579858	-2.102432	2.840574	4.538666	46.816078	-80.194339	-132.083357			
15731	13.549415	1.879352	6.072139	-0.505245	4.273963	4.520243	48.268314	-78.344362	-130.904215			
15732	12.220017	3.708858	7.363275	0.741485	5.588829	3.806245	47.590819	-76.055876	-127.921246			
15733	10.958685	4.718635	8.495128	1.229551	6.642889	3.181470	45.352144	-73.771532	-123.923055			
15734	8.869554	5.231380	10.867097	1.206617	9.095231	2.016520	42.692992	-72.230367	-119.925145			
15735	6.500701	4.637240	11.898399	0.620127	10.389325	0.036769	41.294377	-72.065538	-118.308237			
15736	7.669647	3.134194	6.926650	0.253332	5.121120	-0.308320	41.624382	-72.814963	-119.083480			
15737	8.381113	3.378913	4.190065	1.101459	2.525130	-0.240602	42.865336	-73.761894	-121.150538			
15738	8.756437	3.565088	1.564038	1.843546	0.100466	-0.409436	44.336752	-74.621085	-123.475350			
15739	9.297930	3.623922	-0.755638	2.306698	-2.140529	-0.312574	44.934591	-75.222667	-124.726193			
15740	9.828346	3.020401	-0.940176	1.709684	-2.488674	0.060832	43.899082	-75.462410	-123.913545			
15741	10.068513	2.787927	0.960077	1.148492	-0.754483	0.588305	42.547649	-75.447310	-122.441805			
15742	10.396626	3.749186	1.939457	1.894370	0.251444	1.244247	41.887499	-75.451749	-121.544071			
15743	10.527442	4.728324	1.386965	2.961265	-0.140944	1.426471	41.759125	-75.640400	-121.432793			
15744	11.980754	4.146581	-1.111470	2.713225	-2.894709	2.279721	41.970032	-76.177879	-122.013196			
15745	14.872880	2.935832	-2.546888	1.466627	-4.922610	4.675995	42.757950	-76.975583	-123.140006			
15746	17.095103	1.995124	-2.033117	0.216432	-4.767386	6.847924	44.561239	-77.761336	-124.955509			
15747	16.754988	1.987336	-0.910028	0.066324	-3.410510	6.736303	46.461670	-78.155916	-126.388616			
15748	15.353826	2.426633	1.222118	0.282938	-0.998079	5.745114	45.423563	-77.886674	-124.516705			
15749	11.588132	0.829542	2.991599	-1.124176	0.872039	2.098996	39.965955	-76.879113	-117.558948			
15750	5.895652	-0.630412	4.780132	-2.316735	3.114939	-3.260909	33.564303	-75.425614	-109.065828			
15751	0.694368	-0.722781	5.833132	-2.333877	5.107896	-7.945097	29.611824	-74.347566	-103.438790			
15752	-2.123020	1.073499	2.190716	0.529471	2.869354	-11.207425	29.449153	-74.639330	-103.193590			
15753	-1.948485	3.767664	-4.258695	4.910862	-2.583745	-12.121345	33.352417	-76.267571	-108.825076			
15754	0.483447	5.926052	-9.599679	7.955414	-7.996883	-10.290354	39.419242	-77.893456	-117.611825			
15755	10.141079	4.476293	-10.633563	5.361936	-11.173219	-0.740382	50.081211	-79.494825	-130.101653			
15756	21.238118	2.583819	-3.799207	0.713771	-5.976773	11.065761	55.278283	-80.745059	-135.900881			
15757	12.746293	-1.270371	-3.999506	-1.936117	-5.551438	2.249940	51.940392	-81.333625	-132.101535			
15758	10.363777	-2.327901	-0.843773	-3.093134	-2.393153	0.098996	48.200218	-81.829615	-127.358216			
15759	9.508880	-1.815472	1.608116	-2.868070	0.152088	-0.429122	46.049728	-82.185354	-124.296506			
15760	8.368604	-0.875942	2.092790	-1.936418	0.933424	-1.412715	47.302170	-82.360471	-125.023398			
15761	8.824877	0.466321	0.413695	-0.342441	-0.426773	-0.982803	52.143630	-82.456053	-129.566744			
15762	10.013554	1.722970	-2.066868	1.247334	-2.622656	0.141031	57.252025	-82.323211	-134.410954			
15763	10.152245	2.414814	-2.222895	1.861756	-2.582595	0.370837	60.573799	-82.117633	-137.330736			
15764	9.835066	2.742250	-1.071254	1.898052	-1.324070	0.189320	62.115604	-82.067437	-138.533123			
15765	9.534998	1.953459	0.167208	0.866203	-0.246128	-0.119949	62.817467	-82.239098	-139.275951			
15766	10.118101	0.579492	-0.480694	-0.347289	-1.201147	0.256038	63.271800	-82.559104	-140.061992			
15767	10.676963	-0.635676	-1.853778	-1.224392	-2.809845	0.600930	62.683309	-82.929103	-139.810666			
15768	10.281335	-1.859138	-3.051443	-2.050435	-4.184572	0.023890	61.403340	-83.233782	-138.457528			
15769	9.401406	-1.669700	-2.083674	-1.953593	-3.130177	-0.762753	61.416676	-83.367948	-137.913671			
15770	9.437480	-0.462579	-1.366546	-0.940078	-2.154855	-0.559565	63.695247	-83.303585	-139.519582			
15771	9.929635	0.670977	-1.572680	0.138577	-2.097631	0.041335	66.554912	-83.132533	-141.659983			
15772	10.058255	1.463478	-1.605285	0.863085	-1.911385	0.261475	68.711075	-82.921174	-143.063724			
15773	9.581535	2.046145	-1.560485	1.427155	-1.654471	-0.135214	70.218407	-82.741578	-143.904468			
15774	9.408325	2.338101	-1.515125	1.686608	-1.491093	-0.262254	71.756715	-82.637918	-145.039056			
15775	9.516770	2.230412	-1.605322	1.579720	-1.583750	-0.162983	73.524971	-82.640792	-146.608171			
15776	9.648205	2.026386	-1.345143	1.278626	-1.361885	-0.039576	75.658868	-82.684227	-148.679927			
15777	9.516701	1.965545	-1.394913	1.229354	-1.374825	-0.170329	77.971378	-82.692055	-150.972230			
15778	9.182642	2.246450	-1.413629	1.511319	-1.247898	-0.457248	80.418053	-82.641158	-153.371800			
15779	8.820224	2.579337	-1.312016	1.805030	-0.991934	-0.761258	83.026476	-82.532462	-155.904587			
15780	8.753381	2.903570	-0.999284	1.989314	-0.549337	-0.768823	85.901965	-82.417100	-158.730431			
15781	8.988669	3.032362	-0.726734	1.967071	-0.210497	-0.506479	89.067735	-82.371396	-162.016664			
15782	9.348038	2.533835	-0.899377	1.475861	-0.472761	-0.209930	92.655520	-82.424642	-166.028271			
15783	9.692257	1.523614	-1.413357	0.603977	-1.190278	0.009568	96.439657	-82.529861	-170.468807			
15784	9.993541	0.618778	-1.663793	-0.242046	-1.600039	0.207420	100.210483	-82.637664	-174.946701			
15785	10.004521	-0.065854	-1.732525	-0.892280	-1.758425	0.147611	103.650528	-82.705177	-178.988002			
15786	9.771799	-0.455047	-1.636488	-1.276349	-1.681795	-0.121702	106.716347	-82.657464	177.538673			
15787	9.702333	-0.277685	-1.354400	-1.194209	-1.296557	-0.172193	109.203492	-82.449032	174.797807			
15788	9.936736	0.285272	-1.393340	-0.718280	-1.136292	0.134874	111.205666	-82.144506	172.654646			
15789	10.100883	0.722091	-1.327696	-0.383018	-0.916836	0.352174	112.643470	-81.867882	171.170840			
15790	9.999601	0.922121	-0.980518	-0.298181	-0.494857	0.260532	113.776522	-81.639605	170.012527			
15791	9.862008	0.979907	-0.858803	-0.283648	-0.335054	0.125326	114.656435	-81.444164	169.050994			
