// General information: 
//  MT Manager version: 2022.0.0 
//  XDA version: 2022.0.0 build 7085 rev 119802 built on 2022-11-08
// Device information: 
//  DeviceId: 00B4938A
//  ProductCode: MTW2-3A7G6
//  Firmware Version: 4.6.0
//  Hardware Version: 2.0.0
// Device settings: 
//  Filter Profile: human(46.1)
//  Option Flags: Orientation Smoother Disabled, Position/Velocity Smoother Disabled, Continuous Zero Rotation Update Disabled, AHS Disabled, ICC Disabled
// Coordinate system: ENU
PacketCounter	Acc_X	Acc_Y	Acc_Z	FreeAcc_E	FreeAcc_N	FreeAcc_U	Roll	Pitch	Yaw	Vel_E	Vel_N	Vel_U
14665	8.938136	-0.234968	4.125090	0.153043	-0.350646	0.026798	-2.773376	-67.395395	108.106146			
14666	8.940603	-0.203229	4.133702	0.120442	-0.362478	0.031970	-2.807553	-67.369108	108.049310			
14667	8.938145	-0.184854	4.110690	0.092564	-0.342499	0.020751	-2.851983	-67.330646	107.993920			
14668	8.925741	-0.192749	4.155665	0.107134	-0.381776	0.026943	-2.904074	-67.303068	107.945896			
14669	8.959400	-0.171838	4.200945	0.087737	-0.410179	0.075304	-2.955824	-67.264334	107.895705			
14670	8.937274	-0.205493	4.182321	0.112569	-0.389639	0.048570	-3.018104	-67.235591	107.850695			
14671	8.961478	-0.231816	4.191565	0.130405	-0.376588	0.075295	-3.081536	-67.189665	107.804310			
14672	8.959198	-0.258540	4.224041	0.156888	-0.395186	0.086596	-3.153665	-67.151376	107.759320			
14673	8.936612	-0.314533	4.233999	0.208311	-0.391129	0.071256	-3.213228	-67.095813	107.702997			
14674	8.944075	-0.336588	4.227167	0.219747	-0.370704	0.076347	-3.283315	-67.046404	107.652805			
14675	8.869845	-0.412181	4.178349	0.282902	-0.327454	-0.008843	-3.338963	-66.985978	107.588413			
14676	8.899309	-0.467178	4.143789	0.318216	-0.265670	0.006432	-3.395680	-66.938442	107.526207			
14677	8.913469	-0.517115	4.090539	0.346290	-0.192837	0.000200	-3.449783	-66.883151	107.463533			
14678	8.917184	-0.550094	4.050037	0.362903	-0.142521	-0.011180	-3.509678	-66.848410	107.405289			
14679	8.941372	-0.554232	4.031569	0.353709	-0.111183	0.004206	-3.576488	-66.811955	107.358435			
14680	8.998749	-0.586682	3.943824	0.353822	-0.001237	0.023483	-3.645898	-66.787832	107.315822			
14681	8.909320	-0.594032	3.922328	0.361053	-0.011068	-0.066763	-3.712188	-66.763332	107.273021			
14682	8.904284	-0.610118	3.890745	0.365751	0.018566	-0.083232	-3.782254	-66.759610	107.236259			
14683	8.898142	-0.608198	3.962573	0.374651	-0.048831	-0.060453	-3.850394	-66.753288	107.196010			
14684	8.848010	-0.653279	3.927534	0.412975	-0.028276	-0.118966	-3.911611	-66.755885	107.152359			
14685	8.852941	-0.645214	3.958155	0.406858	-0.056718	-0.102429	-3.965564	-66.753048	107.102866			
14686	8.873919	-0.641647	4.005966	0.407957	-0.096073	-0.064342	-4.010150	-66.768900	107.046879			
14687	8.910492	-0.620475	4.044730	0.388400	-0.124556	-0.015988	-4.051195	-66.777182	106.989098			
14688	8.913864	-0.549618	4.125941	0.333454	-0.216785	0.017077	-4.087476	-66.795276	106.931665			
14689	8.943610	-0.477412	4.184768	0.269763	-0.277420	0.065503	-4.107136	-66.806829	106.861023			
14690	8.940438	-0.466753	4.122349	0.247516	-0.229431	0.037650	-4.107863	-66.831542	106.774058			
14691	8.962910	-0.481639	4.195039	0.275082	-0.285413	0.087159	-4.077229	-66.846187	106.667497			
14692	8.922329	-0.451257	4.169833	0.249142	-0.287933	0.038917	-4.007117	-66.866676	106.541598			
14693	8.748186	-0.473429	4.145913	0.291502	-0.327576	-0.130167	-3.902566	-66.880351	106.408074			
14694	8.655828	-0.440040	4.164772	0.282067	-0.389766	-0.208999	-3.760045	-66.920700	106.267283			
14695	8.596909	-0.319945	4.276797	0.204104	-0.542242	-0.222875	-3.608199	-66.960550	106.134294			
14696	8.467001	-0.225003	4.277901	0.137093	-0.618216	-0.344838	-3.477252	-67.006261	106.025371			
14697	8.196776	-0.131400	4.169929	0.062926	-0.646510	-0.638225	-3.370791	-67.038882	105.952870			
14698	7.924729	0.026937	3.982237	-0.091588	-0.621326	-0.965890	-3.314133	-67.099877	105.950601			
14699	7.714917	0.341131	3.947829	-0.377284	-0.748612	-1.180255	-3.324820	-67.182531	106.026546			
14700	7.585993	0.653666	3.841076	-0.687269	-0.787870	-1.348922	-3.441950	-67.307075	106.205573			
14701	7.556227	0.891612	3.758831	-0.934900	-0.800405	-1.415926	-3.658953	-67.450013	106.496310			
14702	7.691961	1.097072	3.619905	-1.182917	-0.701882	-1.352101	-3.953468	-67.636739	106.888076			
14703	7.972282	0.972577	3.624551	-1.100176	-0.611011	-1.091639	-4.325284	-67.840892	107.378777			
14704	8.317321	0.644343	3.610362	-0.832380	-0.441231	-0.771670	-4.729530	-68.080848	107.932384			
14705	8.817721	0.452691	3.792833	-0.677190	-0.430649	-0.236757	-5.173494	-68.325142	108.522782			
14706	9.775356	-0.016901	3.541889	-0.399316	0.189174	0.575157	-5.655680	-68.593886	109.086840			
14707	10.317815	-0.121846	3.429265	-0.399734	0.450271	1.044073	-6.054508	-68.824754	109.577472			
14708	10.610308	0.298356	3.358633	-0.867734	0.461534	1.277032	-6.391630	-69.046580	109.983997			
14709	11.106593	0.541795	3.350441	-1.171786	0.527672	1.729568	-6.656516	-69.273392	110.294222			
14710	11.545452	0.947287	3.407028	-1.606359	0.474770	2.145435	-6.819661	-69.471186	110.498080			
14711	11.453220	1.339284	3.416450	-1.969778	0.306728	2.047662	-6.886556	-69.586893	110.587553			
14712	11.524393	1.356345	3.339163	-2.006949	0.375486	2.088257	-6.891096	-69.663849	110.581658			
14713	11.432909	1.072583	3.228342	-1.738331	0.508061	1.977313	-6.817968	-69.695820	110.481402			
14714	11.154780	0.694032	3.027687	-1.371242	0.689044	1.664359	-6.694415	-69.733569	110.308653			
14715	10.744088	0.376236	3.041784	-0.997637	0.621438	1.298026	-6.475564	-69.743298	110.039973			
14716	10.169181	0.290256	3.214856	-0.792814	0.301652	0.822735	-6.197266	-69.744331	109.708927			
14717	9.820961	0.117325	3.078844	-0.595489	0.364793	0.456519	-5.857050	-69.714117	109.305148			
14718	9.597568	-0.068252	2.924881	-0.402575	0.488320	0.200919	-5.482681	-69.691968	108.859266			
14719	9.301946	-0.113463	2.846894	-0.320539	0.487156	-0.101675	-5.062475	-69.653950	108.376156			
14720	9.234926	-0.106412	2.911477	-0.284308	0.417986	-0.142306	-4.645554	-69.614825	107.892355			
14721	9.194369	-0.229545	2.777214	-0.167182	0.573005	-0.223856	-4.227467	-69.550019	107.410605			
14722	9.116955	-0.253044	2.708460	-0.129981	0.632390	-0.320492	-3.820311	-69.485681	106.947439			
14723	9.035165	-0.249536	2.686896	-0.110215	0.642692	-0.405742	-3.429613	-69.407308	106.522582			
14724	8.940275	-0.147750	2.706181	-0.178572	0.587367	-0.490840	-3.088333	-69.328682	106.159871			
14725	8.857486	-0.009582	2.690332	-0.294085	0.561034	-0.577334	-2.788953	-69.239155	105.854168			
14726	8.751098	0.102030	2.723540	-0.374424	0.485068	-0.667509	-2.560849	-69.165155	105.625682			
14727	8.687923	0.222012	2.649112	-0.492894	0.518429	-0.755350	-2.392569	-69.096938	105.459399			
14728	8.626091	0.378422	2.650857	-0.633816	0.470165	-0.815082	-2.287765	-69.048129	105.353091			
14729	8.734808	0.394895	2.727225	-0.641308	0.443925	-0.686779	-2.213493	-68.999782	105.265385			
14730	8.885689	0.342353	2.541418	-0.641464	0.685004	-0.612102	-2.165447	-68.953437	105.194647			
14731	9.028504	0.363928	2.554768	-0.672065	0.727668	-0.475023	-2.102349	-68.891388	105.113345			
14732	9.120861	0.125818	2.580698	-0.442219	0.800725	-0.377158	-2.044168	-68.829923	105.018787			
14733	9.213421	-0.033618	2.560236	-0.298378	0.900421	-0.297264	-1.971726	-68.757305	104.907597			
14734	9.233750	-0.123569	2.490148	-0.225275	1.003432	-0.303712	-1.907587	-68.690259	104.793573			
14735	9.261629	-0.145976	2.431749	-0.216622	1.084857	-0.300136	-1.850222	-68.611048	104.682925			
14736	9.293079	-0.095902	2.457992	-0.262720	1.073324	-0.263280	-1.829523	-68.538346	104.603316			
14737	9.349890	-0.046424	2.461253	-0.317087	1.092902	-0.211366	-1.832031	-68.457553	104.542451			
14738	9.399364	-0.066897	2.453474	-0.307011	1.134093	-0.169471	-1.885277	-68.382087	104.532827			
14739	9.411240	-0.092042	2.378283	-0.304969	1.224583	-0.187537	-1.969554	-68.302334	104.554498			
14740	9.381241	-0.194012	2.354596	-0.215422	1.267759	-0.224371	-2.088497	-68.235918	104.612303			
14741	9.300386	-0.182272	2.406870	-0.218113	1.197405	-0.281577	-2.226582	-68.179626	104.690865			
14742	9.252289	-0.119583	2.339794	-0.297482	1.231732	-0.352871	-2.378188	-68.147544	104.788120			
14743	9.182440	0.014911	2.377689	-0.423586	1.145539	-0.406352	-2.520930	-68.127737	104.878955			
14744	9.099723	0.210918	2.374409	-0.615352	1.074515	-0.487773	-2.664028	-68.138892	104.966187			
14745	9.017757	0.446643	2.446053	-0.829903	0.924269	-0.541248	-2.796367	-68.174984	105.040919			
14746	9.077996	0.767561	2.442814	-1.155102	0.869981	-0.491992	-2.953919	-68.239495	105.125924			
14747	9.070438	0.995130	2.406078	-1.388813	0.839281	-0.516498	-3.118956	-68.328212	105.208405			
14748	9.275339	1.079892	2.436024	-1.490702	0.849023	-0.315886	-3.316837	-68.448280	105.308292			
14749	9.484517	1.080027	2.435521	-1.516152	0.903138	-0.120429	-3.520531	-68.577338	105.393495			
14750	9.764691	1.073232	2.331285	-1.560819	1.075844	0.104080	-3.733944	-68.710562	105.464129			
14751	10.088721	0.980437	2.193870	-1.530514	1.313636	0.360241	-3.926491	-68.828153	105.493655			
14752	10.271401	0.925022	1.959983	-1.538553	1.584725	0.449883	-4.093019	-68.926758	105.476095			
14753	10.404506	0.787426	1.749161	-1.453642	1.840273	0.503982	-4.209026	-68.994133	105.385506			
14754	10.474935	0.667533	1.603846	-1.364511	2.014436	0.522802	-4.278569	-69.045488	105.233933			
14755	10.400257	0.626093	1.793065	-1.277101	1.819633	0.523190	-4.275924	-69.085805	105.036931			
14756	10.250653	0.696602	2.088339	-1.274027	1.479498	0.488295	-4.248257	-69.133839	104.833704			
14757	10.259476	0.416086	2.190728	-0.972429	1.435573	0.542155	-4.174558	-69.200635	104.627742			
14758	10.375035	0.541597	2.762647	-0.998875	0.912514	0.852040	-4.052963	-69.315721	104.414078			
14759	10.634984	-0.036917	2.552725	-0.470432	1.281389	1.038916	-3.899756	-69.465528	104.151265			
14760	10.863076	-0.230906	2.659662	-0.258670	1.267190	1.298600	-3.653364	-69.659947	103.834475			
14761	11.149151	-0.037256	3.453130	-0.312666	0.559434	1.841414	-3.304670	-69.899539	103.443546			
14762	11.377364	-0.111732	3.974380	-0.135960	0.127621	2.237938	-2.895833	-70.110586	103.000291			
14763	11.575369	-0.174179	4.394661	0.018357	-0.216190	2.568156	-2.434801	-70.273700	102.538238			
14764	11.799132	-0.538533	4.913912	0.486055	-0.584898	2.957494	-1.955046	-70.417824	102.076176			
14765	12.389597	-1.264544	5.597472	1.318386	-0.916616	3.746600	-1.357200	-70.536940	101.550856			
14766	12.537649	-1.805932	5.659025	1.905961	-0.836324	3.903951	-0.667323	-70.578775	100.964244			
14767	11.630381	-1.889375	4.737338	1.942817	-0.252912	2.734788	0.002956	-70.559211	100.372654			
14768	10.749254	-1.340674	4.119465	1.394261	-0.053510	1.692393	0.616756	-70.533492	99.841896			
14769	10.017072	-0.218103	4.219317	0.383113	-0.573886	1.037000	1.104140	-70.468585	99.385869			
14770	9.398549	0.537067	4.451363	-0.263967	-1.114479	0.537385	1.414492	-70.410643	99.019658			
14771	9.074068	0.944035	4.926890	-0.554380	-1.719317	0.397148	1.610652	-70.323105	98.745181			
14772	8.479351	1.406030	5.270398	-0.920034	-2.295321	-0.038314	1.650053	-70.175865	98.576782			
14773	7.781362	1.469527	5.469934	-0.925292	-2.697989	-0.620632	1.551771	-70.020445	98.503814			
14774	7.269094	1.155670	5.589597	-0.589389	-2.902771	-1.057954	1.387784	-69.867794	98.481445			
14775	6.719455	0.779652	5.584494	-0.212415	-2.996788	-1.571354	1.258011	-69.694358	98.422733			
14776	6.321328	0.444860	5.260801	0.071278	-2.756063	-2.051753	1.226418	-69.532957	98.306811			
14777	6.185833	0.059955	4.870272	0.390252	-2.358163	-2.311060	1.358281	-69.382043	98.074703			
14778	6.482699	-0.132451	4.806207	0.558792	-2.144962	-2.051927	1.638441	-69.244472	97.741216			
14779	6.882094	-0.338646	4.569306	0.717921	-1.731084	-1.760090	2.020756	-69.089143	97.325403			
14780	7.405226	-0.462093	4.272813	0.786541	-1.229983	-1.376086	2.443764	-68.943926	96.876193			
14781	8.012383	-0.363234	4.096396	0.655735	-0.843812	-0.870171	2.893883	-68.817808	96.394673			
14782	8.483486	-0.194146	4.139032	0.498494	-0.720185	-0.412071	3.308365	-68.709883	95.965066			
14783	8.772099	-0.074614	4.205214	0.399896	-0.676738	-0.116236	3.640383	-68.619375	95.592861			
14784	8.791291	0.003265	4.173897	0.332261	-0.639761	-0.107611	3.859204	-68.559538	95.308359			
14785	8.972296	0.006386	4.174080	0.332102	-0.564923	0.061301	3.992870	-68.517659	95.060314			
14786	8.938783	0.053977	4.150898	0.286180	-0.558034	0.023034	4.022190	-68.492038	94.927137			
14787	8.795028	-0.111660	3.971629	0.426489	-0.416249	-0.180260	4.002612	-68.460608	94.825098			
14788	8.924911	-0.016140	3.977191	0.324671	-0.387829	-0.054792	3.914270	-68.471563	94.819619			
14789	8.856587	-0.152248	4.008006	0.457213	-0.422505	-0.110169	3.745591	-68.467189	94.870992			
14790	8.639605	-0.398625	3.911940	0.680967	-0.379079	-0.352374	3.516921	-68.457783	94.997549			
14791	8.567588	-0.506462	3.712940	0.747380	-0.209333	-0.493697	3.281077	-68.474419	95.134351			
14792	8.830373	-0.665445	3.658442	0.873477	-0.049055	-0.271350	3.007259	-68.527711	95.336571			
14793	8.957795	-0.776075	3.641845	0.959759	0.017854	-0.159401	2.712667	-68.574490	95.548513			
14794	8.945842	-0.802087	3.436999	0.940182	0.194379	-0.243851	2.398827	-68.628149	95.804687			
14795	8.915681	-0.629268	3.374592	0.744174	0.205691	-0.290236	2.095828	-68.684186	96.048583			
14796	9.007017	-0.401052	3.349781	0.493667	0.217076	-0.209700	1.774933	-68.748627	96.337137			
14797	9.166198	-0.102953	3.385597	0.178116	0.189075	-0.044139	1.443698	-68.793002	96.629910			
14798	9.243605	0.012795	3.380986	0.039007	0.194987	0.027835	1.076933	-68.831264	96.972955			
14799	9.219755	-0.058907	3.213154	0.066561	0.344670	-0.055206	0.693595	-68.844399	97.308012			
14800	9.112768	-0.117522	3.165520	0.100430	0.352971	-0.172036	0.312549	-68.854723	97.659022			
14801	9.123148	-0.221834	3.060112	0.167871	0.465638	-0.200181	-0.033803	-68.849152	97.973359			
14802	9.100467	-0.245919	3.011572	0.166521	0.504387	-0.238432	-0.345892	-68.831220	98.282741			
14803	9.084628	-0.383640	2.853310	0.265466	0.667006	-0.309865	-0.610414	-68.788528	98.540713			
14804	9.180482	-0.416586	2.759264	0.265367	0.797934	-0.254382	-0.815334	-68.738014	98.771158			
14805	9.120989	-0.374246	2.561067	0.189047	0.962104	-0.382408	-0.960822	-68.673279	98.938782			
14806	9.013970	-0.417175	2.451565	0.214163	1.039242	-0.522372	-1.051428	-68.614902	99.080010			
14807	8.963067	-0.383109	2.311015	0.159035	1.155038	-0.622218	-1.093665	-68.556460	99.170117			
14808	8.877353	-0.370018	2.127027	0.122950	1.299426	-0.770291	-1.102960	-68.511560	99.252102			
14809	8.816339	-0.375299	2.016199	0.114738	1.387106	-0.868611	-1.096256	-68.474798	99.311241			
14810	8.664746	-0.362597	1.857514	0.088174	1.480674	-1.068576	-1.077030	-68.455067	99.382549			
14811	8.483400	-0.362757	1.686663	0.075706	1.574744	-1.300405	-1.035864	-68.452271	99.428874			
14812	8.301218	-0.442276	1.627459	0.157215	1.572884	-1.490682	-0.990522	-68.486468	99.490992			
14813	8.262790	-0.578418	1.687122	0.303284	1.518720	-1.502684	-0.951881	-68.545850	99.537884			
14814	8.270830	-0.671173	1.851444	0.418198	1.374971	-1.432980	-0.924289	-68.623735	99.599819			
14815	8.391214	-0.730564	1.986571	0.490216	1.292380	-1.269732	-0.896866	-68.704929	99.637765			
14816	8.555438	-0.572409	2.246574	0.362984	1.074280	-1.021532	-0.864134	-68.806975	99.671515			
14817	8.797134	-0.403480	2.432818	0.212105	0.946892	-0.728121	-0.821201	-68.922830	99.650567			
14818	8.940221	-0.167108	2.592843	-0.001580	0.794097	-0.536499	-0.772872	-69.054870	99.601450			
14819	9.159362	0.092855	2.858009	-0.227373	0.564584	-0.236663	-0.748920	-69.202982	99.512608			
14820	9.394654	0.284868	2.772692	-0.437639	0.671402	-0.046105	-0.762752	-69.357069	99.428133			
14821	9.456659	0.494303	2.582382	-0.671502	0.813116	-0.054137	-0.834806	-69.506014	99.344666			
14822	9.625763	0.516470	2.230612	-0.750892	1.170268	-0.016551	-0.969531	-69.647067	99.307382			
14823	9.771443	0.304596	1.900332	-0.594853	1.536391	0.009266	-1.135645	-69.769974	99.274192			
14824	9.976784	-0.130302	1.828044	-0.186903	1.714802	0.183283	-1.294682	-69.883738	99.261131			
14825	10.236130	-1.003801	2.022340	0.688529	1.724341	0.503725	-1.413781	-69.977688	99.198688			
14826	10.351340	-1.921349	2.380509	1.637306	1.534097	0.745455	-1.480035	-70.077332	99.139763			
14827	10.629726	-2.568427	2.512512	2.283357	1.564453	1.061101	-1.521257	-70.227257	99.070890			
14828	11.109803	-2.971546	2.653217	2.676734	1.610674	1.568792	-1.636306	-70.408614	99.107869			
14829	11.450364	-3.019005	2.723830	2.708874	1.620279	1.921066	-1.928307	-70.606169	99.309940			
14830	11.631904	-2.504356	2.886080	2.189068	1.408487	2.150851	-2.462114	-70.853466	99.781800			
14831	12.022249	-1.549031	3.485134	1.252861	0.782310	2.713196	-3.334058	-71.150693	100.571958			
14832	12.672809	-0.841170	4.141587	0.525469	0.199877	3.534343	-4.575772	-71.446913	101.699812			
14833	13.164278	0.407427	4.860650	-0.754852	-0.563909	4.194487	-6.122193	-71.657556	103.070826			
14834	12.930933	2.135950	5.189764	-2.531663	-1.226847	3.999949	-7.868987	-71.758647	104.600747			
14835	12.139664	3.114386	5.004494	-3.586002	-1.452424	3.115781	-9.722848	-71.810649	106.131369			
14836	11.770583	2.617143	4.882653	-3.201778	-1.410084	2.717083	-11.546456	-71.771534	107.549817			
14837	10.920149	1.425310	4.639613	-2.080806	-1.293583	1.883597	-13.016358	-71.599047	108.606166			
14838	9.650771	-0.268372	3.759704	-0.431470	-0.636707	0.519439	-13.923463	-71.377976	109.238562			
14839	9.038981	-2.138075	3.615059	1.425907	-0.469186	0.040724	-14.387038	-71.206161	109.544747			
14840	9.356257	-3.527272	4.236422	2.789057	-0.799226	0.652053	-14.508056	-71.057396	109.674416			
14841	8.940946	-4.569012	5.042751	3.916730	-1.553624	0.603218	-14.398809	-70.901003	109.645784			
14842	8.241459	-4.974277	4.800087	4.383707	-1.457665	-0.098571	-14.051484	-70.738996	109.479770			
14843	7.092853	-3.720080	4.798629	3.283251	-1.902819	-1.281936	-13.570584	-70.549416	109.240589			
14844	6.725666	-1.957610	5.140980	1.624227	-2.502778	-1.652147	-13.318100	-70.463823	109.231129			
14845	7.195640	-0.495706	5.352138	0.152011	-2.707212	-1.250198	-13.354293	-70.409313	109.415733			
14846	7.504857	0.837212	5.272021	-1.210560	-2.684882	-1.086637	-13.556881	-70.316267	109.765230			
14847	7.795018	2.074578	5.178723	-2.489344	-2.648849	-0.942958	-13.922435	-70.203954	110.238502			
14848	8.427219	2.649608	4.830366	-3.184872	-2.189909	-0.515822	-14.395688	-70.097179	110.805670			
14849	8.609758	2.809084	4.445322	-3.427475	-1.785612	-0.493690	-14.853057	-69.955903	111.331573			
14850	8.550254	2.414477	4.250118	-3.073593	-1.568082	-0.588038	-15.240097	-69.854053	111.807254			
14851	8.792865	1.449389	3.858304	-2.207203	-0.997726	-0.408725	-15.510873	-69.811990	112.143452			
14852	8.659548	0.456855	3.895801	-1.216242	-0.949609	-0.432242	-15.620433	-69.805296	112.357751			
14853	8.919116	-0.704255	3.746832	-0.117426	-0.579995	-0.130996	-15.595647	-69.880172	112.423182			
14854	9.116567	-1.422436	3.990937	0.602529	-0.660721	0.200457	-15.375618	-69.976506	112.346603			
14855	9.018587	-1.521324	3.966126	0.734136	-0.659004	0.107302	-14.970602	-70.039452	112.086701			
14856	8.993378	-1.288923	3.826889	0.523941	-0.567820	0.015345	-14.482893	-70.105858	111.766815			
14857	8.823235	-0.846013	3.884108	0.146256	-0.732121	-0.164163	-13.940213	-70.124816	111.378418			
14858	8.765893	-0.238838	3.927921	-0.410066	-0.869699	-0.252255	-13.426878	-70.129599	111.029278			
14859	8.802785	0.267206	3.941969	-0.885862	-0.931594	-0.249902	-12.956599	-70.078479	110.677530			
14860	8.660294	0.743664	3.802013	-1.333421	-0.899563	-0.462727	-12.545509	-69.999180	110.385785			
14861	8.565849	1.136774	3.581242	-1.719313	-0.763943	-0.650175	-12.203959	-69.919068	110.138471			
14862	8.588189	1.211319	3.548920	-1.786283	-0.725695	-0.641992	-11.951158	-69.874988	109.971293			
14863	8.615476	1.152954	3.531995	-1.723404	-0.682034	-0.615111	-11.724693	-69.834093	109.782678			
14864	8.432281	0.939435	3.310311	-1.508782	-0.492997	-0.844713	-11.513780	-69.791655	109.593768			
14865	8.202418	0.637543	3.031136	-1.209446	-0.252217	-1.132392	-11.312124	-69.773345	109.355523			
14866	8.177327	0.258174	2.803068	-0.849748	0.014313	-1.206281	-11.093589	-69.784020	109.098804			
14867	8.151757	0.069752	2.609263	-0.670943	0.217315	-1.282339	-10.825790	-69.820313	108.770994			
14868	8.333518	0.085939	2.568244	-0.696551	0.310425	-1.125386	-10.570234	-69.879695	108.463058			
14869	8.507146	-0.046182	2.478620	-0.579629	0.467558	-0.983043	-10.322318	-69.935466	108.131205			
14870	8.640437	-0.011684	2.313662	-0.631935	0.657424	-0.914443	-10.086148	-69.976458	107.820952			
14871	8.798145	0.001493	2.225436	-0.657327	0.790469	-0.795870	-9.866033	-69.992646	107.507743			
14872	8.941678	-0.086797	2.116643	-0.585585	0.954387	-0.691967	-9.691711	-69.989363	107.251702			
14873	8.974879	-0.148162	2.024793	-0.529575	1.066335	-0.688398	-9.561197	-69.957917	107.011389			
14874	9.039014	-0.201163	1.944093	-0.487688	1.177826	-0.653069	-9.508461	-69.914684	106.858543			
14875	8.995095	-0.171779	1.862548	-0.520295	1.245721	-0.724905	-9.531228	-69.847559	106.738802			
14876	8.980322	-0.029336	1.725253	-0.678568	1.359698	-0.795243	-9.658148	-69.782382	106.719904			
14877	8.906791	0.233801	1.766120	-0.936274	1.272343	-0.867897	-9.891307	-69.707196	106.774239			
14878	8.678269	0.630137	1.838320	-1.312840	1.088205	-1.084511	-10.228603	-69.621886	106.896937			
14879	8.559854	1.163604	2.145107	-1.818766	0.706667	-1.128264	-10.660984	-69.539314	107.083122			
14880	8.277840	1.680879	2.510627	-2.293502	0.222170	-1.307299	-11.155859	-69.430698	107.289526			
14881	7.981376	2.174649	2.890800	-2.748173	-0.270576	-1.496294	-11.678167	-69.315334	107.493897			
14882	8.130784	2.136262	2.869680	-2.759924	-0.177744	-1.371157	-12.244964	-69.240880	107.711016			
14883	8.308360	1.500904	2.640165	-2.196488	0.177812	-1.245554	-12.787408	-69.218170	107.884302			
14884	8.492332	1.072167	2.581856	-1.819312	0.340659	-1.065731	-13.247005	-69.252922	107.991662			
14885	8.952022	0.524596	2.505375	-1.345534	0.612824	-0.620040	-13.557684	-69.348124	107.975387			
14886	9.590370	-0.119452	2.334621	-0.787160	1.029941	-0.027010	-13.655671	-69.476646	107.784217			
14887	10.041373	-0.761015	2.230941	-0.189523	1.314671	0.415757	-13.500908	-69.608860	107.376262			
14888	10.517193	-1.331151	2.052718	0.347619	1.667108	0.850179	-13.159140	-69.750987	106.803120			
14889	10.918827	-1.437124	2.040151	0.453905	1.799545	1.232842	-12.666380	-69.907582	106.122623			
14890	11.687269	-1.053405	3.142977	0.097218	0.961986	2.297021	-12.093760	-70.101996	105.446737			
14891	12.495202	-0.782215	4.263393	-0.142870	0.128860	3.411577	-11.472164	-70.245894	104.771662			
14892	13.294302	-0.665932	4.149564	-0.277478	0.473575	4.119264	-10.874960	-70.349525	104.126537			
14893	13.812002	-1.561859	4.072149	0.625310	0.756842	4.638231	-10.290087	-70.503846	103.513076			
14894	13.658941	-2.345780	4.595296	1.503261	0.229176	4.708788	-9.630115	-70.744147	102.938893			
14895	13.200155	-2.726505	5.433561	2.030510	-0.730456	4.558958	-8.801126	-71.020961	102.325689			
14896	12.670292	-2.622834	6.458139	2.105814	-1.901097	4.367358	-7.758110	-71.154626	101.611001			
14897	11.269328	-1.564568	6.366606	1.224987	-2.326545	2.957016	-6.764666	-71.126846	100.871005			
14898	10.494029	-1.251857	5.047915	0.946916	-1.336807	1.784262	-5.932155	-71.164696	100.215730			
14899	10.836408	-0.347426	5.711384	0.132808	-1.929147	2.288085	-5.041006	-71.258060	99.518685			
14900	10.864517	0.757476	6.216218	-0.870639	-2.495279	2.445703	-4.191788	-71.321453	98.714154			
14901	10.215371	2.019472	6.019865	-2.054223	-2.618693	1.745566	-3.335734	-71.346291	97.836143			
14902	9.295018	3.430015	6.424063	-3.346596	-3.394507	0.990478	-2.561769	-71.315787	96.949839			
14903	8.119871	3.636843	6.119296	-3.501983	-3.468959	-0.205034	-1.913595	-71.236253	96.059208			
14904	7.255529	3.128381	5.859726	-2.968548	-3.431031	-1.084486	-1.283640	-71.158298	95.180609			
14905	7.040311	1.926320	5.838927	-1.751799	-3.369709	-1.271848	-0.658164	-71.062023	94.304475			
14906	7.495131	0.226093	5.590447	-0.067815	-2.855556	-0.906378	-0.077084	-70.939565	93.483805			
14907	8.115305	-1.426252	5.226413	1.565298	-2.189612	-0.433821	0.453488	-70.775232	92.745331			
14908	8.724357	-2.735595	4.820163	2.859083	-1.512623	0.004105	0.885346	-70.599367	92.135417			
14909	8.938341	-3.683950	4.418685	3.799409	-0.992148	0.065079	1.203461	-70.407573	91.666248			
14910	8.352329	-4.068851	4.040232	4.181755	-0.793380	-0.619001	1.382035	-70.233802	91.372403			
14911	7.239618	-3.729127	3.807820	3.844079	-0.949857	-1.741829	1.414645	-70.088518	91.254221			
14912	6.823224	-2.933131	3.321343	3.027061	-0.662791	-2.290150	1.310274	-70.056504	91.308765			
14913	6.826069	-1.614919	3.116671	1.693511	-0.532087	-2.345043	1.080487	-70.132296	91.517303			
14914	7.096050	-0.330249	3.493706	0.412107	-0.867468	-1.954788	0.762864	-70.284010	91.822592			
14915	7.512563	0.263725	3.550057	-0.198733	-0.828634	-1.543173	0.399371	-70.446245	92.153985			
14916	7.774793	0.449894	3.185416	-0.419251	-0.431033	-1.420128	0.081080	-70.616902	92.465849			
14917	8.049573	0.515386	3.274533	-0.497242	-0.454256	-1.133394	-0.159456	-70.809033	92.719991			
14918	8.236884	0.259952	3.486396	-0.245233	-0.612105	-0.888905	-0.341837	-71.007363	92.899223			
14919	8.441776	-0.113876	3.561349	0.122053	-0.628072	-0.672101	-0.451080	-71.171918	92.998324			
14920	8.450001	-0.573385	3.373377	0.569484	-0.450975	-0.725155	-0.523953	-71.299858	93.049860			
14921	8.331721	-0.911114	3.294809	0.904489	-0.417403	-0.862206	-0.534828	-71.402365	93.060951			
14922	8.358852	-1.065334	3.311939	1.060353	-0.433528	-0.831486	-0.494109	-71.495400	93.039709			
14923	8.654026	-1.056260	3.169506	1.043752	-0.217558	-0.597653	-0.436337	-71.567516	93.018083			
14924	8.890935	-1.012602	3.104618	0.996967	-0.093485	-0.394086	-0.380022	-71.626558	92.999418			
14925	9.079648	-0.847947	2.949995	0.826570	0.096664	-0.264445	-0.308799	-71.682784	92.989426			
14926	9.240141	-0.668131	2.868093	0.644760	0.205989	-0.138267	-0.239148	-71.756286	92.992699			
14927	9.298128	-0.516900	2.776021	0.491871	0.293992	-0.112157	-0.195919	-71.818111	93.030093			
14928	9.176097	-0.512211	2.719010	0.487820	0.300101	-0.245656	-0.192157	-71.877345	93.121081			
14929	9.128543	-0.641432	2.607360	0.611466	0.390709	-0.325142	-0.221703	-71.921197	93.264654			
14930	9.063614	-0.774655	2.628784	0.743646	0.351788	-0.379611	-0.294526	-71.956753	93.468039			
14931	9.111516	-0.942915	2.439008	0.896134	0.554436	-0.392118	-0.368675	-71.969167	93.698734			
14932	9.040441	-0.973161	2.171432	0.907459	0.789727	-0.542057	-0.436984	-71.964189	93.942178			
14933	9.027781	-0.879345	1.773513	0.785182	1.163074	-0.677581	-0.468374	-71.938877	94.172878			
14934	8.855576	-0.636440	1.644544	0.533764	1.222205	-0.882283	-0.452334	-71.916137	94.375887			
14935	8.497246	-0.454059	1.586211	0.353685	1.159430	-1.242037	-0.379316	-71.897165	94.538658			
14936	8.241108	-0.368265	1.602160	0.275983	1.061481	-1.481092	-0.225791	-71.898009	94.632180			
14937	8.144689	-0.380035	1.554551	0.290849	1.079191	-1.587861	0.002626	-71.905160	94.646400			
14938	7.981724	-0.465746	1.814367	0.408999	0.790081	-1.662519	0.316089	-71.918061	94.539745			
14939	8.060380	-0.593356	2.127561	0.573090	0.529040	-1.491631	0.695108	-71.939019	94.334516			
14940	8.286897	-0.168255	2.570322	0.200064	0.142538	-1.138176	1.154660	-71.950430	94.022420			
14941	8.547756	0.197758	2.839829	-0.123909	-0.063483	-0.804445	1.654370	-71.949696	93.613884			
14942	8.657547	0.620468	3.289270	-0.480742	-0.492360	-0.556133	2.216963	-71.954138	93.108332			
14943	8.797181	1.184696	3.819525	-0.967968	-1.001295	-0.250102	2.800667	-71.958874	92.535727			
14944	8.982379	1.398814	3.889850	-1.148981	-1.029054	-0.045826	3.337501	-71.967198	91.940116			
14945	9.102715	1.246009	3.586070	-0.999947	-0.686060	-0.024877	3.828572	-71.943614	91.340538			
14946	9.118167	0.853030	2.771385	-0.658069	0.131340	-0.268115	4.248142	-71.909685	90.791453			
14947	9.189473	0.287746	1.993239	-0.141033	0.944164	-0.453690	4.641498	-71.886909	90.280204			
14948	9.460477	-0.401175	1.663370	0.538543	1.399309	-0.316360	5.004095	-71.876501	89.820771			
14949	9.921652	-1.184650	1.395244	1.317898	1.862161	0.015066	5.334601	-71.838810	89.431670			
14950	10.530679	-1.992353	0.926169	2.103950	2.565840	0.420215	5.620803	-71.786142	89.140834			
14951	10.983850	-2.763543	0.537304	2.856200	3.146229	0.699884	5.861954	-71.733448	88.955827			
14952	11.376642	-3.519262	0.557232	3.621132	3.319244	1.049804	6.028958	-71.725898	88.892959			
14953	11.646520	-4.221444	0.762112	4.339210	3.270953	1.345940	6.050844	-71.769915	88.998299			
14954	11.816044	-4.013729	1.486513	4.185026	2.620560	1.743991	5.856496	-71.835631	89.334451			
14955	11.711577	-3.378776	2.040892	3.573456	2.004040	1.847351	5.312826	-71.920189	89.984987			
14956	11.957188	-2.380568	2.198178	2.543698	1.824526	2.173710	4.438247	-72.095100	90.991025			
14957	12.798527	-0.641075	2.999196	0.806166	1.125772	3.275103	3.167340	-72.323470	92.387137			
14958	13.553104	1.470590	4.834242	-1.236277	-0.639954	4.584526	1.528997	-72.515545	94.115246			
14959	13.093812	3.080431	6.180867	-2.831687	-2.254977	4.541228	-0.413927	-72.564146	96.017584			
14960	12.313237	3.313635	6.544729	-3.150445	-2.887658	3.868085	-2.492248	-72.652233	97.939057			
14961	12.251166	3.414865	7.466733	-3.321110	-3.822835	4.038604	-4.643176	-72.695622	99.855395			
14962	11.765713	3.589352	7.927220	-3.589331	-4.416203	3.669448	-6.559835	-72.487164	101.513761			
14963	10.512279	2.880612	6.067070	-3.085591	-2.909609	1.918780	-8.042403	-72.188958	102.753353			
14964	10.028787	1.762813	4.730147	-2.129388	-1.649382	1.086996	-9.154186	-72.026353	103.671789			
14965	10.041266	-0.368000	5.362632	-0.034597	-2.052503	1.390259	-10.068140	-71.960691	104.445878			
14966	9.651498	-2.649624	5.582962	2.229979	-2.177575	1.215757	-10.654703	-71.825622	105.032820			
14967	8.217487	-4.591757	4.779190	4.201529	-1.645793	-0.268565	-10.755559	-71.577601	105.307558			
14968	7.039507	-4.834870	5.000371	4.554881	-2.137262	-1.290999	-10.579998	-71.322645	105.415182			
14969	6.854487	-4.324511	5.012172	4.070533	-2.200726	-1.482343	-10.537605	-71.139741	105.628210			
14970	6.998594	-3.374740	4.806934	3.099994	-2.017729	-1.458376	-10.662793	-70.997438	105.984930			
14971	6.951200	-1.408641	5.096864	1.170338	-2.481160	-1.520789	-10.868147	-70.855179	106.396760			
14972	7.435652	0.463816	5.045488	-0.744857	-2.465018	-1.191210	-11.149762	-70.757599	106.828669			
14973	8.172861	2.077229	4.927673	-2.440194	-2.288452	-0.636582	-11.481701	-70.631376	107.236156			
14974	8.566703	3.301898	4.660554	-3.736235	-2.035599	-0.436734	-11.802596	-70.474653	107.597606			
14975	9.083327	4.038096	4.408907	-4.560985	-1.700055	-0.088559	-12.059946	-70.324897	107.869626			
14976	9.154569	4.222503	4.104810	-4.794059	-1.396163	-0.140417	-12.216859	-70.213770	108.018719			
14977	8.657628	3.575288	3.862011	-4.131888	-1.238843	-0.645077	-12.262526	-70.127074	108.008431			
14978	8.486185	2.240619	3.688103	-2.808794	-0.970763	-0.768015	-12.213613	-70.123151	107.887042			
14979	8.641167	0.791008	3.594858	-1.390346	-0.671069	-0.547966	-12.061732	-70.175392	107.657760			
14980	8.617338	-0.495314	3.745895	-0.087977	-0.686098	-0.428814	-11.822487	-70.252594	107.352856			
14981	8.269605	-1.139396	3.689894	0.598103	-0.682692	-0.731053	-11.514528	-70.318661	106.982857			
14982	8.125868	-1.530350	3.600753	1.011212	-0.610235	-0.871649	-11.190025	-70.386797	106.591490			
14983	8.218440	-1.541848	3.529473	1.027234	-0.518016	-0.809708	-10.839565	-70.447744	106.170030			
14984	8.079583	-1.203846	3.545636	0.725441	-0.617122	-0.958688	-10.467925	-70.492410	105.743309			
14985	8.013169	-0.548416	3.684621	0.110085	-0.837715	-1.016429	-10.115248	-70.533812	105.334101			
14986	8.207658	0.023006	3.809795	-0.448218	-0.951266	-0.825203	-9.796180	-70.562171	104.941468			
14987	8.384133	0.659877	3.760181	-1.085562	-0.907902	-0.709647	-9.523493	-70.567804	104.593187			
14988	8.476480	0.962122	3.777438	-1.381592	-0.920541	-0.631770	-9.329408	-70.583069	104.299871			
14989	8.857863	0.873491	3.706515	-1.322366	-0.719816	-0.289232	-9.198438	-70.600381	104.063811			
14990	8.956492	0.811154	3.650485	-1.267686	-0.627046	-0.210472	-9.117934	-70.597754	103.879919			
14991	8.995397	0.271711	3.508552	-0.743127	-0.428009	-0.191590	-9.115044	-70.597606	103.738142			
14992	8.994949	-0.320136	3.239453	-0.172752	-0.121524	-0.249161	-9.105585	-70.605331	103.610112			
14993	8.824448	-0.511968	3.159106	0.026650	-0.082885	-0.426241	-9.085357	-70.591420	103.474462			
14994	8.682547	-0.719079	2.933320	0.230584	0.104064	-0.623342	-9.035172	-70.573065	103.309005			
14995	8.621918	-0.505325	2.791333	0.016089	0.207680	-0.738495	-8.951215	-70.509985	103.108568			
14996	8.566272	-0.338477	2.629577	-0.153263	0.341233	-0.853317	-8.865600	-70.416949	102.887010			
14997	8.771609	-0.282783	2.447882	-0.232889	0.593525	-0.723866	-8.789943	-70.293189	102.658897			
14998	8.840774	-0.151099	2.369204	-0.372928	0.701776	-0.693278	-8.742570	-70.156046	102.441608			
14999	8.933432	-0.132795	2.296336	-0.402888	0.823235	-0.633530	-8.745849	-70.014743	102.253144			
15000	8.963834	-0.086717	2.263538	-0.456792	0.882480	-0.620627	-8.841811	-69.889437	102.127760			
15001	9.000291	-0.178458	2.132199	-0.381154	1.043517	-0.628509	-9.010400	-69.774631	102.041564			
15002	8.986443	-0.222322	1.853021	-0.357009	1.319898	-0.736914	-9.250660	-69.668898	101.994301			
15003	8.866150	-0.125911	1.740614	-0.458739	1.394083	-0.896394	-9.519891	-69.569858	101.967708			
15004	8.791638	0.051981	1.870431	-0.638578	1.250543	-0.934486	-9.829999	-69.485144	101.965898			
15005	8.583939	0.360268	2.194014	-0.936955	0.874568	-1.038594	-10.151650	-69.399546	101.977793			
15006	8.288880	0.544831	2.629736	-1.108438	0.369313	-1.178290	-10.511873	-69.327021	102.020973			
15007	8.123465	0.363326	2.736730	-0.933927	0.229692	-1.286999	-10.911731	-69.269454	102.088653			
15008	8.176845	-0.064839	2.578107	-0.533085	0.415724	-1.265489	-11.345770	-69.247374	102.179313			
15009	8.428422	-0.441454	2.632714	-0.195472	0.459107	-0.985720	-11.739872	-69.273079	102.240363			
15010	8.765321	-0.648749	2.704142	-0.029715	0.501516	-0.630548	-12.065569	-69.346680	102.241894			
15011	9.099615	-0.738065	2.715318	0.025248	0.591818	-0.306386	-12.264866	-69.436127	102.136457			
15012	9.371119	-0.832421	2.525948	0.100463	0.847735	-0.108954	-12.357177	-69.514943	101.919460			
15013	9.671657	-0.836716	2.160583	0.095787	1.281434	0.049254	-12.372183	-69.575147	101.602907			
15014	9.953860	-0.752011	1.930366	0.007560	1.584348	0.230267	-12.370804	-69.623720	101.241128			
15015	10.396190	-0.268152	1.988651	-0.494451	1.678687	0.629770	-12.346597	-69.655672	100.869292			
15016	10.828887	0.188687	1.935898	-0.964417	1.881393	0.984458	-12.372919	-69.675770	100.522318			
15017	11.193329	0.521479	1.934573	-1.308175	2.015656	1.301760	-12.418443	-69.707846	100.202384			
15018	11.388789	1.132602	2.891683	-1.967944	1.191759	1.765569	-12.477730	-69.831665	99.951607			
15019	11.879480	0.897590	3.131194	-1.766604	1.101625	2.328050	-12.500321	-70.040348	99.666267			
15020	12.459468	0.076676	3.143821	-0.962850	1.210498	2.944081	-12.340941	-70.315018	99.246386			
15021	13.175697	-1.287062	3.785040	0.355606	0.729553	3.932232	-11.889308	-70.598805	98.577792			
15022	13.247039	-2.237152	5.017372	1.279529	-0.508835	4.461981	-11.051742	-70.816974	97.656017			
15023	12.825795	-2.450148	5.962368	1.532480	-1.584476	4.371607	-9.915347	-70.962504	96.549917			
15024	12.459525	-2.852698	6.376909	2.021891	-2.132276	4.166116	-8.574846	-71.045479	95.277178			
15025	12.252125	-2.961805	6.460186	2.243889	-2.283589	3.984772	-7.081146	-71.048509	93.859248			
15026	11.411988	-2.171137	5.959069	1.613662	-2.022265	2.984316	-5.591803	-70.915582	92.405399			
15027	9.831745	-0.395841	5.665378	-0.031067	-2.141875	1.337528	-4.382798	-70.795712	91.157102			
15028	8.988488	1.605823	5.855308	-1.977303	-2.470258	0.562480	-3.536532	-70.707778	90.176761			
15029	8.024364	3.390801	5.775486	-3.725669	-2.581045	-0.394535	-3.042442	-70.555002	89.401529			
15030	6.969460	4.460946	5.567638	-4.780073	-2.626048	-1.462443	-2.788200	-70.443708	88.788710			
15031	6.406864	4.904948	5.536284	-5.234542	-2.706922	-2.000595	-2.675973	-70.374011	88.250081			
15032	5.954781	3.864449	5.174186	-4.191532	-2.548182	-2.525494	-2.614656	-70.285009	87.698308			
15033	6.018555	1.972852	4.789583	-2.288415	-2.283652	-2.559878	-2.434515	-70.187576	87.055274			
15034	6.767269	0.240564	4.919850	-0.567310	-2.287835	-1.781332	-2.088925	-70.107616	86.322815			
15035	7.595490	-1.524514	4.974155	1.210623	-2.219843	-0.960315	-1.561556	-70.004093	85.501452			
15036	8.819754	-3.183527	4.671325	2.949013	-1.687582	0.096877	-0.885695	-69.896843	84.617116			
15037	9.484949	-4.591114	4.279068	4.450228	-1.244340	0.579612	-0.124486	-69.784650	83.712010			
15038	9.707396	-5.344396	3.965742	5.285611	-0.962152	0.659159	0.617582	-69.724166	82.906738			
15039	9.334908	-5.058896	3.642751	5.060741	-0.759274	0.178050	1.199875	-69.695999	82.342845			
15040	8.852207	-3.994827	3.323183	4.041095	-0.510293	-0.390751	1.526507	-69.742790	82.099184			
15041	8.456320	-2.602291	3.153090	2.666133	-0.340554	-0.812744	1.603401	-69.870235	82.145429			
15042	8.517991	-1.247218	3.283516	1.304253	-0.315066	-0.697164	1.456198	-70.102483	82.459152			
15043	8.672588	-0.252703	3.454947	0.286566	-0.351261	-0.484847	1.053707	-70.367174	83.031939			
15044	8.642251	0.342029	3.551521	-0.346246	-0.429042	-0.479168	0.456841	-70.619765	83.811552			
15045	8.338119	0.563635	3.456726	-0.605035	-0.451073	-0.800409	-0.243560	-70.806322	84.703597			
15046	8.304296	0.617486	3.446763	-0.695502	-0.473316	-0.839678	-0.952877	-70.952576	85.623822			
15047	8.146893	0.326495	3.502107	-0.448625	-0.623032	-0.972231	-1.623987	-71.066232	86.512910			
15048	8.217905	-0.241103	3.553348	0.084965	-0.713517	-0.885090	-2.180396	-71.163605	87.306295			
15049	8.351821	-0.868489	3.501493	0.694468	-0.681878	-0.767226	-2.603458	-71.218112	87.986992			
15050	8.491646	-1.239901	3.443468	1.055264	-0.614123	-0.646874	-2.905851	-71.261597	88.571116			
15051	8.655321	-1.502007	3.408732	1.310854	-0.546142	-0.497461	-3.093285	-71.284442	89.064393			
15052	8.706787	-1.460929	3.254245	1.275523	-0.377225	-0.498005	-3.205929	-71.302352	89.495713			
15053	8.660255	-1.351791	3.126821	1.171560	-0.260822	-0.584265	-3.282142	-71.324467	89.896392			
15054	8.637074	-1.110508	2.991649	0.936301	-0.126284	-0.653559	-3.339522	-71.365358	90.276100			
15055	8.727253	-0.730455	2.863351	0.560533	0.040368	-0.615870	-3.410860	-71.415107	90.664153			
15056	8.870307	-0.395014	2.691107	0.228753	0.257853	-0.541139	-3.489057	-71.464630	91.047931			
15057	8.948541	0.041492	2.636861	-0.211558	0.344359	-0.492398	-3.589676	-71.504396	91.459651			
15058	9.110500	0.208553	2.444838	-0.380687	0.574292	-0.402736	-3.719599	-71.550188	91.887629			
15059	9.169157	0.303037	2.302198	-0.481166	0.723553	-0.394071	-3.858278	-71.566408	92.317952			
15060	9.318062	0.320250	2.102537	-0.506311	0.954870	-0.316301	-4.011633	-71.578466	92.752110			
15061	9.406371	0.167659	2.015953	-0.366096	1.058619	-0.256680	-4.168759	-71.581306	93.181550			
15062	9.390546	0.003504	1.775115	-0.210038	1.277153	-0.343888	-4.297328	-71.586030	93.581748			
15063	9.287190	-0.150802	1.676444	-0.063892	1.335487	-0.469375	-4.375377	-71.589880	93.937190			
15064	9.137597	-0.360592	1.490929	0.142187	1.461585	-0.664347	-4.384840	-71.608274	94.225004			
15065	8.993135	-0.463054	1.266963	0.243644	1.626635	-0.868931	-4.308220	-71.635428	94.443586			
15066	8.809784	-0.537517	1.135041	0.320514	1.690830	-1.081828	-4.138571	-71.680758	94.586307			
15067	8.657182	-0.595554	1.011365	0.383420	1.756325	-1.263263	-3.872520	-71.739290	94.651729			
15068	8.537225	-0.740671	1.043311	0.537055	1.685135	-1.363238	-3.519941	-71.808043	94.656152			
15069	8.476692	-0.887982	1.084869	0.695360	1.626185	-1.404849	-3.072365	-71.869582	94.598497			
15070	8.399656	-1.030373	1.187661	0.854349	1.506957	-1.444558	-2.553748	-71.923115	94.483983			
15071	8.459394	-1.405873	1.392471	1.250599	1.345834	-1.321427	-1.963227	-71.974191	94.306070			
15072	8.476296	-1.670124	1.806004	1.550862	0.974303	-1.178797	-1.315660	-72.008882	94.077834			
15073	8.571297	-1.682671	2.112411	1.600463	0.721211	-0.999113	-0.651759	-72.036734	93.819419			
15074	8.791195	-1.261049	2.466578	1.222210	0.437029	-0.687202	0.023325	-72.044667	93.527489			
15075	9.054111	-0.781905	2.484240	0.769938	0.479834	-0.435235	0.661411	-72.034284	93.241376			
15076	9.328056	-0.285048	2.488297	0.297723	0.532285	-0.173524	1.227945	-72.031824	92.995957			
15077	9.709544	0.210400	2.589295	-0.171284	0.519567	0.223478	1.670163	-72.039671	92.828078			
15078	10.171276	0.611526	2.455787	-0.571492	0.756635	0.625732	1.935154	-72.033799	92.785556			
15079	10.458562	0.765040	2.592528	-0.711347	0.705253	0.942991	1.990874	-72.003065	92.885395			
15080	10.785566	0.841665	2.775780	-0.780545	0.625769	1.311204	1.895854	-72.014869	93.099568			
15081	11.630989	1.126398	3.750829	-1.008364	-0.070828	2.418238	1.612555	-72.070511	93.459242			
15082	12.808538	1.145079	4.578443	-1.005607	-0.508199	3.791075	1.089053	-72.106989	93.985171			
15083	13.602758	1.178779	4.772376	-1.089820	-0.454199	4.602783	0.285369	-72.068176	94.716006			
15084	13.803170	1.538281	5.226709	-1.487495	-0.847497	4.927762	-0.719209	-72.010454	95.613306			
15085	13.082156	1.585597	5.340328	-1.588898	-1.177023	4.267987	-1.862687	-71.992081	96.603997			
15086	12.543781	1.193718	6.031076	-1.219061	-1.980350	3.961801	-3.134538	-72.084255	97.629344			
15087	12.724764	1.434800	6.897654	-1.510728	-2.787781	4.382408	-4.517117	-72.100224	98.699360			
15088	11.811701	1.233303	6.283397	-1.417994	-2.460029	3.319524	-5.797524	-71.946860	99.691885			
15089	10.508519	-0.210640	4.751101	-0.088778	-1.280048	1.650275	-6.812994	-71.841916	100.528702			
15090	10.429832	-1.616101	4.579742	1.248505	-1.039827	1.577089	-7.583798	-71.815279	101.231076			
15091	10.554213	-2.861462	4.980309	2.462374	-1.287677	1.877536	-8.104973	-71.713896	101.826373			
15092	9.910022	-4.490535	5.170453	4.110551	-1.525461	1.407083	-8.435462	-71.608046	102.327050			
15093	8.886926	-5.405997	5.231851	5.086575	-1.792310	0.506650	-8.489364	-71.502715	102.691977			
15094	7.936812	-4.867892	5.039057	4.614111	-1.896875	-0.474968	-8.347425	-71.364938	102.954886			
15095	6.910564	-3.591329	4.685629	3.408120	-1.942812	-1.613989	-8.218185	-71.215687	103.242259			
15096	6.703867	-1.596826	4.851665	1.466535	-2.317644	-1.843493	-8.214756	-71.097077	103.653729			
15097	7.390517	0.412570	5.232575	-0.542628	-2.644739	-1.159325	-8.369815	-70.949627	104.172887			
15098	8.352368	2.077051	5.085327	-2.286951	-2.368204	-0.373504	-8.646584	-70.755444	104.779607			
15099	9.310552	3.728366	4.841435	-4.043892	-2.012564	0.366854	-9.067468	-70.544565	105.494248			
15100	10.077074	4.670723	4.593496	-5.097459	-1.645669	0.947000	-9.585468	-70.376163	106.262436			
15101	9.876203	4.805250	4.155407	-5.286325	-1.318405	0.589895	-10.032915	-70.212360	106.923485			
15102	8.640693	4.092049	3.743360	-4.524107	-1.240106	-0.679575	-10.310615	-70.072673	107.378986			
15103	7.795250	2.923947	3.436584	-3.325566	-1.074295	-1.511362	-10.438453	-70.043450	107.643420			
15104	7.563252	1.418245	3.520800	-1.802313	-1.033538	-1.609415	-10.389229	-70.110760	107.715742			
15105	7.588292	0.332883	3.777346	-0.690810	-1.127380	-1.433363	-10.132604	-70.210118	107.576939			
15106	7.574553	-0.279872	3.740640	-0.065929	-1.021880	-1.422459	-9.716802	-70.310856	107.260596			
15107	7.814988	-0.432263	3.678952	0.082356	-0.874013	-1.208920	-9.187112	-70.435819	106.824841			
15108	8.015490	-0.299184	3.575273	-0.047965	-0.741240	-1.062354	-8.619489	-70.552193	106.346108			
15109	8.030212	0.000841	3.717874	-0.296066	-0.921045	-1.016619	-8.071736	-70.657293	105.887666			
15110	8.051723	0.101737	3.604749	-0.381589	-0.832843	-1.037980	-7.618515	-70.776553	105.494197			
15111	8.227064	0.148860	3.639173	-0.413534	-0.827284	-0.863115	-7.230737	-70.883312	105.162714			
15112	8.419595	0.503690	3.794361	-0.739285	-0.973144	-0.644980	-6.897424	-70.961254	104.882785			
15113	8.600502	0.469560	3.764941	-0.706383	-0.887534	-0.481171	-6.627337	-70.987347	104.643999			
15114	8.741768	0.464293	3.609105	-0.717833	-0.695714	-0.396723	-6.368780	-70.993035	104.435662			
15115	8.771226	0.431250	3.562990	-0.680058	-0.634526	-0.381348	-6.126915	-70.979614	104.250871			
15116	8.580712	0.193468	3.502623	-0.426837	-0.598487	-0.571799	-5.943471	-70.960069	104.102687			
15117	8.499314	0.056710	3.217084	-0.313489	-0.332795	-0.736226	-5.790415	-70.961732	103.989313			
15118	8.489147	0.013961	3.030359	-0.287292	-0.155334	-0.804790	-5.671222	-70.983487	103.909925			
15119	8.603775	-0.089694	2.981842	-0.193530	-0.061346	-0.708669	-5.576855	-71.022168	103.859021			
15120	8.803610	0.029308	2.913283	-0.330580	0.042108	-0.545511	-5.529315	-71.066345	103.867114			
15121	8.938412	0.209901	3.004534	-0.504684	-0.033879	-0.394055	-5.529730	-71.099934	103.907255			
15122	8.916788	0.373711	2.895053	-0.680058	0.032512	-0.454987	-5.587233	-71.111533	103.999881			
15123	8.873242	0.453012	2.856994	-0.763511	0.040647	-0.511211	-5.674676	-71.110995	104.106693			
15124	8.888157	0.572748	2.663346	-0.913898	0.207250	-0.563762	-5.777190	-71.105616	104.221153			
15125	9.033289	0.587124	2.663378	-0.944964	0.251640	-0.427469	-5.862906	-71.083909	104.311523			
15126	9.117414	0.436456	2.640677	-0.811339	0.324720	-0.350806	-5.947372	-71.057262	104.375140			
15127	9.196185	0.185857	2.412482	-0.605387	0.606328	-0.342192	-6.007869	-71.018013	104.403262			
15128	9.159033	0.075700	2.349831	-0.506785	0.675131	-0.394477	-6.088810	-70.981271	104.439888			
15129	9.103735	-0.090920	2.217376	-0.361699	0.813561	-0.484756	-6.218930	-70.925107	104.498280			
15130	9.017627	-0.219666	1.986380	-0.267638	1.028781	-0.637639	-6.436344	-70.865733	104.621516			
15131	8.879823	-0.079221	1.751876	-0.438690	1.190913	-0.850776	-6.732280	-70.800776	104.802251			
15132	8.715660	0.144486	1.718504	-0.668028	1.143739	-1.027335	-7.135451	-70.727095	105.064088			
15133	8.579796	0.405326	1.816597	-0.924471	0.979351	-1.137241	-7.616586	-70.634018	105.380823			
15134	8.565640	0.677953	1.942149	-1.204652	0.827988	-1.125633	-8.182367	-70.535160	105.750087			
15135	8.556251	0.979971	2.079348	-1.517391	0.667122	-1.109479	-8.790952	-70.409737	106.132711			
15136	8.665137	1.181527	2.354920	-1.730387	0.431653	-0.933185	-9.427438	-70.284180	106.516907			
15137	8.725737	1.234222	2.595178	-1.798318	0.236104	-0.806750	-10.038945	-70.157012	106.847151			
15138	8.902680	1.126540	2.767274	-1.726953	0.163673	-0.583640	-10.602463	-70.034406	107.106309			
15139	9.125025	0.770390	2.762798	-1.428585	0.302793	-0.359646	-11.059177	-69.917582	107.250204			
15140	9.350084	0.395578	2.704822	-1.110896	0.490966	-0.147212	-11.420775	-69.830214	107.297902			
15141	9.527520	-0.059155	2.656456	-0.700294	0.659314	0.031538	-11.660666	-69.756661	107.231181			
15142	9.683672	-0.368740	2.498726	-0.432065	0.903820	0.144698	-11.784511	-69.685848	107.061923			
15143	9.757427	-0.663615	2.355382	-0.160858	1.106726	0.184555	-11.811146	-69.601810	106.804848			
15144	9.897812	-0.731937	2.161356	-0.119693	1.358232	0.252835	-11.794439	-69.498952	106.504360			
15145	10.085836	-0.765360	1.900002	-0.118585	1.690344	0.338594	-11.762834	-69.370541	106.180441			
15146	10.284246	-0.589913	1.607591	-0.326180	2.039918	0.406430	-11.766717	-69.227948	105.888034			
15147	10.459332	-0.165588	1.408709	-0.773880	2.278484	0.464425	-11.832446	-69.067833	105.649033			
15148	10.278854	0.195126	1.509299	-1.113687	2.121415	0.298204	-12.008998	-68.930968	105.535470			
15149	10.238715	1.118072	2.200930	-2.007184	1.412118	0.429508	-12.241056	-68.857639	105.572383			
15150	10.537603	1.344066	2.440698	-2.265827	1.281435	0.771666	-12.554102	-68.876563	105.705177			
15151	10.768576	1.064730	2.019556	-2.037287	1.764665	0.860170	-12.811221	-68.979666	105.799264			
15152	11.330153	0.258855	2.575386	-1.271147	1.464687	1.646403	-12.899043	-69.170197	105.748378			
15153	11.847710	-0.877827	3.385610	-0.146233	0.920246	2.505298	-12.692129	-69.356803	105.463806			
15154	11.888248	-1.238446	3.993631	0.266082	0.352746	2.781667	-12.186703	-69.552483	104.969787			
15155	12.232592	-1.679436	5.023892	0.771283	-0.499598	3.485857	-11.341995	-69.744124	104.242458			
15156	12.709599	-2.774700	6.279266	1.961012	-1.460851	4.423931	-10.101028	-69.841956	103.208101			
15157	12.833522	-4.348857	7.158531	3.685925	-2.113351	4.911508	-8.445181	-69.807247	101.864704			
15158	12.192681	-4.496982	7.203307	4.039330	-2.300300	4.299771	-6.550121	-69.740865	100.401710			
15159	11.020760	-3.283486	7.067426	3.062412	-2.583134	3.076573	-4.551926	-69.558691	98.924934			
15160	9.318248	-1.742191	6.437804	1.719414	-2.619330	1.209616	-2.822236	-69.229883	97.592664			
15161	7.742258	-0.171210	5.153751	0.231786	-2.039959	-0.739811	-1.432325	-68.941592	96.463012			
15162	7.030229	1.856075	5.442198	-1.665226	-2.706517	-1.304570	-0.302249	-68.840844	95.485172			
15163	6.712824	3.815057	5.667340	-3.529657	-3.191263	-1.500498	0.691832	-68.785660	94.551856			
15164	6.158555	5.567564	5.030448	-5.271213	-2.943608	-2.211354	1.487223	-68.709834	93.756108			
15165	5.808092	5.889487	4.978401	-5.560813	-3.034227	-2.527414	2.032623	-68.675617	93.146277			
15166	6.479185	4.254534	5.310776	-3.902003	-2.942162	-1.787523	2.376317	-68.670541	92.693394			
15167	7.595796	1.938139	5.375412	-1.596155	-2.388447	-0.752051	2.682083	-68.642810	92.292118			
15168	9.157166	-0.172474	5.656429	0.523886	-1.901062	0.769850	3.014891	-68.647668	91.919089			
15169	10.341696	-2.571831	5.539393	2.914254	-1.158464	1.781056	3.385233	-68.600264	91.569971			
15170	10.558341	-4.264618	5.087482	4.587641	-0.502233	1.773907	3.763328	-68.482394	91.261489			
15171	9.975707	-5.212741	4.000485	5.469424	0.399584	0.799422	4.131820	-68.362639	90.997735			
15172	9.134375	-4.954704	3.350679	5.181297	0.694630	-0.227046	4.457431	-68.330613	90.870170			
15173	8.526956	-3.801857	3.491946	4.063930	0.255210	-0.714549	4.650517	-68.372021	90.927996			
15174	8.192516	-1.937861	3.389028	2.207318	0.056940	-1.010266	4.704044	-68.503556	91.167638			
15175	8.071363	-0.225405	3.473457	0.512443	-0.251118	-1.041321	4.584560	-68.727362	91.582936			
15176	7.895949	0.752807	3.631071	-0.449556	-0.597444	-1.121415	4.304409	-68.981692	92.163407			
15177	7.821757	1.577284	3.721017	-1.270398	-0.840846	-1.141325	3.916307	-69.244308	92.867197			
15178	7.673783	1.828424	3.676210	-1.539385	-0.926801	-1.297071	3.398506	-69.473185	93.686951			
15179	7.684641	1.387243	3.690073	-1.121786	-0.924431	-1.299072	2.790432	-69.674783	94.589397			
15180	7.822346	0.751592	3.846296	-0.500792	-0.976249	-1.132595	2.140921	-69.825491	95.549463			
15181	8.061851	-0.057438	3.609296	0.236680	-0.589436	-1.002454	1.530852	-69.920177	96.510197			
15182	8.327926	-0.624036	3.478337	0.743730	-0.311790	-0.802016	0.979742	-69.993213	97.440966			
15183	8.545819	-1.136282	3.269131	1.187663	0.023811	-0.669481	0.533587	-70.063551	98.292762			
15184	8.810872	-1.267252	3.179436	1.270193	0.210383	-0.448473	0.183832	-70.143747	99.054073			
15185	8.893972	-1.337227	2.935440	1.281681	0.470003	-0.450845	-0.046823	-70.227817	99.689538			
15186	9.154222	-0.906117	2.880844	0.822810	0.524860	-0.222715	-0.161591	-70.340547	100.211637			
15187	9.221325	-0.425955	2.746577	0.318943	0.573599	-0.203983	-0.205490	-70.442376	100.649169			
15188	9.332852	0.316748	2.590495	-0.447267	0.601853	-0.150865	-0.215591	-70.549903	101.042127			
15189	9.299818	0.835411	2.487682	-0.973991	0.568194	-0.215732	-0.226230	-70.636928	101.424132			
15190	9.233723	1.304763	2.370630	-1.453975	0.543043	-0.316638	-0.267485	-70.702151	101.822651			
15191	9.207349	1.457598	2.352794	-1.609657	0.502033	-0.347359	-0.337099	-70.741179	102.240803			
15192	9.057137	1.316880	2.256441	-1.486911	0.556782	-0.520944	-0.434266	-70.756641	102.668829			
15193	9.011735	0.957365	2.290533	-1.133602	0.577513	-0.552241	-0.533766	-70.754388	103.092112			
15194	9.009570	0.666400	2.158863	-0.885211	0.756398	-0.597407	-0.606279	-70.732930	103.483781			
15195	8.877358	0.288248	2.002787	-0.547323	0.941936	-0.773057	-0.628735	-70.700546	103.825504			
15196	8.807166	0.048519	1.814970	-0.354935	1.147850	-0.900948	-0.575409	-70.686114	104.106523			
15197	8.619626	-0.174204	1.608332	-0.171297	1.330545	-1.145777	-0.424707	-70.686811	104.305097			
15198	8.387564	-0.359956	1.452552	-0.006194	1.442083	-1.415600	-0.209158	-70.727266	104.449090			
15199	8.051935	-0.544038	1.434339	0.200784	1.392973	-1.737648	0.088369	-70.797279	104.519095			
15200	7.866182	-0.648051	1.558751	0.355947	1.239494	-1.871439	0.436294	-70.905018	104.519349			
15201	7.740212	-0.784359	1.860778	0.586304	0.950625	-1.891758	0.839543	-71.026531	104.429269			
15202	7.787470	-0.751723	2.298698	0.679299	0.547759	-1.705144	1.260682	-71.158501	104.277938			
15203	8.146833	-0.436619	2.783461	0.494116	0.124319	-1.207485	1.734000	-71.278080	104.039980			
15204	8.555353	0.003148	3.237035	0.183284	-0.288732	-0.671821	2.214066	-71.357861	103.755709			
15205	9.051558	0.287564	3.255730	-0.094818	-0.234302	-0.192437	2.705044	-71.421158	103.427012			
15206	9.392448	0.691150	3.307932	-0.466019	-0.294466	0.153968	3.146942	-71.504689	103.116891			
15207	9.925269	1.133455	3.126881	-0.952876	-0.101653	0.611069	3.449129	-71.627653	102.883274			
15208	10.335899	1.576568	2.611117	-1.531344	0.352783	0.848683	3.529930	-71.721191	102.823051			
15209	10.462735	1.687698	1.779233	-1.869280	1.105726	0.711854	3.436137	-71.763263	102.908788			
15210	10.687741	1.286550	1.481953	-1.587997	1.548748	0.824927	3.203197	-71.786516	103.122874			
15211	11.130167	0.101050	1.727154	-0.430257	1.786628	1.300219	2.879253	-71.765911	103.401733			
15212	11.682443	-1.177026	2.094810	0.833426	1.978846	1.919431	2.510386	-71.693368	103.734493			
15213	12.051421	-1.829085	2.441099	1.496738	1.975024	2.369274	2.156320	-71.534440	104.062373			
15214	12.307497	-1.957864	2.642042	1.623044	1.934738	2.673724	1.826869	-71.367158	104.386779			
15215	12.590728	-1.322822	2.405020	0.897255	2.078988	2.873253	1.451823	-71.317939	104.758554			
15216	12.848067	0.044219	3.669009	-0.133010	0.611276	3.534403	0.857404	-71.444843	105.307012			
15217	13.286272	1.189247	5.560807	-0.821471	-1.342333	4.553403	-0.156642	-71.596243	106.138856			
15218	12.621345	1.959317	6.726067	-1.290543	-2.868178	4.275751	-1.580753	-71.656725	107.273458			
15219	11.850744	2.672222	7.430110	-1.849651	-3.973127	3.736437	-3.278883	-71.659184	108.628476			
15220	11.319729	2.204234	6.705884	-1.663110	-3.368346	2.987723	-5.046886	-71.590691	110.057517			
15221	10.675649	1.352499	6.175076	-1.030981	-2.862614	2.215260	-6.731993	-71.459572	111.453816			
15222	10.178808	-0.108758	6.594393	0.415359	-3.028686	1.924408	-8.342289	-71.327700	112.835689			
15223	9.734005	-1.716222	6.311314	1.851729	-2.500766	1.494189	-9.799917	-71.202053	114.193254			
15224	8.796983	-3.654265	5.627397	3.606448	-1.651272	0.515648	-10.927835	-71.009170	115.359432			
15225	7.222574	-4.777853	5.364011	4.793590	-1.556115	-0.960245	-11.609320	-70.768170	116.257430			
15226	6.498631	-4.867095	5.223328	4.922146	-1.578524	-1.658883	-12.081966	-70.611821	117.033827			
15227	6.580991	-4.433172	5.226877	4.475686	-1.637077	-1.592543	-12.464458	-70.478939	117.733861			
15228	6.888670	-3.090811	5.077802	3.092379	-1.744578	-1.435069	-12.716852	-70.331318	118.324029			
15229	7.720887	-1.140804	5.131609	1.097690	-2.065680	-0.769738	-12.880510	-70.177955	118.818759			
15230	8.949258	0.549486	4.968731	-0.765524	-2.017975	0.208349	-13.019270	-70.039146	119.251543			
15231	9.875677	2.162534	4.908718	-2.482324	-2.146724	0.935833	-13.144081	-69.894838	119.643117			
15232	9.947155	3.302527	4.657840	-3.654112	-2.231692	0.827570	-13.299465	-69.768017	120.031288			
15233	9.541778	3.833119	4.400870	-4.165186	-2.277990	0.314897	-13.417151	-69.627956	120.348962			
15234	9.047607	3.557733	3.778691	-3.987092	-1.779934	-0.340090	-13.493229	-69.547741	120.574228			
15235	8.147685	2.938779	3.659286	-3.272401	-1.755077	-1.174246	-13.451628	-69.514203	120.679324			
15236	8.110597	1.828454	3.543948	-2.236373	-1.324564	-1.156548	-13.327165	-69.558975	120.688544			
15237	8.336554	0.718700	3.519009	-1.216438	-0.894883	-0.861848	-13.066397	-69.627878	120.565149			
15238	8.083073	0.073636	3.385840	-0.575903	-0.652381	-1.092132	-12.721765	-69.702639	120.343465			
15239	7.894736	-0.558709	3.092816	-0.000869	-0.249805	-1.319039	-12.385484	-69.823262	120.083382			
15240	8.075654	-1.061684	2.990843	0.442551	0.044971	-1.147207	-12.011994	-69.993713	119.801541			
15241	7.925038	-0.945373	3.289504	0.471051	-0.315345	-1.198781	-11.575529	-70.143567	119.470139			
15242	7.849603	-0.831865	3.272962	0.402024	-0.368269	-1.284897	-11.172657	-70.304373	119.156000			
15243	7.955308	-0.499072	3.475932	0.155632	-0.632872	-1.141281	-10.751046	-70.411754	118.819513			
15244	8.167343	-0.039434	3.429739	-0.300753	-0.678384	-0.985488	-10.357058	-70.487866	118.487917			
15245	8.575827	0.376958	3.492061	-0.719291	-0.746006	-0.603591	-9.982271	-70.523399	118.168246			
15246	8.976493	0.656587	3.428267	-1.045528	-0.655791	-0.260812	-9.644526	-70.539574	117.875826			
15247	9.153821	0.975874	3.385635	-1.370598	-0.661165	-0.122920	-9.355857	-70.543257	117.617172			
15248	9.224021	0.929631	3.197428	-1.378230	-0.451655	-0.113884	-9.133840	-70.561105	117.408197			
15249	9.192706	0.688676	3.032953	-1.180410	-0.233951	-0.183003	-8.944124	-70.599817	117.219261			
15250	9.049559	0.291327	2.876141	-0.816145	-0.009877	-0.347732	-8.783029	-70.652394	117.059119			
15251	8.857689	-0.080774	2.738438	-0.463110	0.173544	-0.554199	-8.621103	-70.707858	116.885038			
15252	8.629943	-0.303913	2.494682	-0.277327	0.393753	-0.837178	-8.470121	-70.754374	116.725095			
15253	8.588160	-0.582623	2.369254	-0.033730	0.581496	-0.903702	-8.332485	-70.792735	116.565149			
15254	8.539613	-0.771961	2.200705	0.112634	0.777803	-0.995298	-8.202598	-70.819800	116.403961			
15255	8.570984	-0.644520	2.088179	-0.037261	0.847491	-1.008255	-8.090845	-70.838522	116.256794			
15256	8.569629	-0.620421	2.058004	-0.063266	0.866805	-1.020447	-8.032046	-70.841124	116.134971			
15257	8.725670	-0.431862	1.941322	-0.295623	0.960054	-0.919800	-8.034126	-70.826347	116.046865			
15258	8.725173	-0.202737	1.886590	-0.529904	0.938989	-0.948915	-8.115702	-70.803135	116.012026			
15259	8.811552	0.076548	1.862536	-0.819421	0.901362	-0.888874	-8.279948	-70.770037	116.026960			
15260	8.875608	0.288303	1.780163	-1.062143	0.931849	-0.866626	-8.514108	-70.726258	116.074504			
15261	8.832501	0.500472	1.669214	-1.300600	0.959315	-0.956167	-8.805119	-70.665025	116.142610			
15262	8.843624	0.647107	1.598036	-1.476373	0.988398	-0.979482	-9.163739	-70.606159	116.237990			
15263	8.815268	0.813469	1.607045	-1.644850	0.927806	-1.015706	-9.563443	-70.555658	116.345287			
15264	8.614253	1.024841	1.660878	-1.821051	0.762254	-1.203571	-10.009113	-70.501163	116.465190			
15265	8.506271	1.228960	1.833143	-1.975417	0.521357	-1.265567	-10.462497	-70.450445	116.573937			
15266	8.513759	1.269734	1.993463	-1.997134	0.373330	-1.213720	-10.953837	-70.401648	116.694279			
15267	8.496277	1.046386	2.182962	-1.757550	0.265534	-1.158935	-11.446038	-70.349801	116.791865			
15268	8.774944	0.584325	2.221582	-1.370672	0.444221	-0.857220	-11.947622	-70.328352	116.894409			
15269	9.108726	0.206231	2.394072	-1.039048	0.486683	-0.462474	-12.400913	-70.319275	116.957751			
15270	9.452400	-0.177792	2.618021	-0.689208	0.479683	-0.038825	-12.774134	-70.331321	116.966656			
15271	9.816299	-0.402647	2.650386	-0.532991	0.611186	0.330722	-13.019152	-70.336588	116.868645			
15272	10.092352	-0.762882	2.342387	-0.298688	1.065362	0.516888	-13.145316	-70.327432	116.664491			
15273	10.399415	-0.993469	1.863668	-0.219373	1.658609	0.666290	-13.149196	-70.297757	116.355176			
15274	10.637982	-0.996555	1.451085	-0.327445	2.119962	0.754429	-13.101418	-70.253578	115.991092			
15275	10.891486	-0.801746	1.191243	-0.593565	2.404001	0.890338	-13.036908	-70.194603	115.617054			
15276	11.185915	-0.049162	1.942809	-1.211614	1.641413	1.355990	-12.936868	-70.150795	115.295080			
15277	11.368897	0.848254	2.781310	-1.943812	0.737186	1.736561	-12.821154	-70.097181	114.999689			
15278	11.659099	0.776465	3.038560	-1.859687	0.618799	2.100707	-12.661642	-70.098009	114.718111			
15279	12.131509	0.672749	2.949923	-1.823007	0.871821	2.526059	-12.415660	-70.187189	114.337276			
15280	12.406103	-0.538703	2.772804	-0.678422	1.367909	2.818954	-12.070976	-70.391706	113.813546			
15281	12.568636	-1.063264	3.790509	0.052899	0.556062	3.346210	-11.419040	-70.645340	113.108346			
15282	12.252921	-1.605913	5.159231	0.946336	-0.716361	3.526030	-10.470880	-70.813195	112.205657			
15283	11.681101	-2.255740	5.964412	1.888809	-1.493464	3.275926	-9.192768	-70.897728	111.081920			
15284	11.634296	-3.145416	6.580999	2.984608	-1.858817	3.461182	-7.634405	-70.928246	109.737411			
15285	12.131342	-3.567393	7.183713	3.586827	-2.118104	4.121000	-5.790137	-70.890052	108.178933			
15286	12.213217	-3.792647	7.286781	3.961430	-2.056590	4.212965	-3.847264	-70.730468	106.522995			
15287	10.899740	-2.887891	6.226133	3.113891	-1.597946	2.583175	-2.067615	-70.446775	104.946028			
15288	8.977417	-1.081512	5.319163	1.422771	-1.712881	0.439052	-0.622874	-70.223965	103.581270			
15289	7.857262	1.443608	5.873674	-0.766524	-3.112073	-0.429314	0.549574	-70.126785	102.411684			
15290	7.314537	3.717656	5.940368	-2.885845	-3.830547	-0.890244	1.412911	-70.028446	101.435386			
15291	6.429426	5.399170	5.044333	-4.634409	-3.641966	-1.990155	1.975935	-69.910835	100.691100			
15292	5.979680	5.949734	5.070629	-5.136686	-3.902351	-2.379438	2.270447	-69.870163	100.138424			
15293	6.728519	4.542260	5.244291	-3.780112	-3.482116	-1.627747	2.430436	-69.880761	99.676184			
15294	7.709935	2.623547	5.294663	-1.959513	-2.779070	-0.713424	2.556312	-69.835339	99.280812			
15295	8.422030	0.474087	5.145357	0.069689	-1.946939	-0.125862	2.659369	-69.738180	98.906898			
15296	9.524142	-1.574016	4.832720	1.956839	-0.866217	0.768543	2.810219	-69.661150	98.510672			
15297	10.211365	-3.420924	4.378211	3.658411	0.151564	1.220737	3.087109	-69.566715	98.023141			
15298	9.733628	-4.388031	4.180557	4.612031	0.360947	0.678939	3.417921	-69.421149	97.524948			
15299	8.533992	-4.632763	3.629999	4.824790	0.507895	-0.651257	3.720720	-69.267298	97.075607			
15300	7.825453	-4.093370	3.058080	4.236363	0.691081	-1.510827	3.941270	-69.220395	96.755050			
15301	7.918204	-2.656873	3.419566	2.894233	0.124164	-1.265270	4.051413	-69.300513	96.576585			
15302	8.142755	-1.041047	3.749554	1.358037	-0.408905	-0.900006	4.011518	-69.423385	96.566343			
15303	8.297709	0.062162	3.839547	0.279008	-0.658482	-0.697510	3.834500	-69.583920	96.701437			
15304	8.613738	0.793777	3.836585	-0.464430	-0.706557	-0.387671	3.535290	-69.766933	96.978568			
15305	8.458658	1.160272	3.746061	-0.850131	-0.770353	-0.560021	3.148907	-69.910974	97.335874			
15306	8.258281	0.931945	3.547416	-0.670729	-0.639772	-0.824216	2.717933	-70.047775	97.750069			
15307	8.028445	0.523681	3.655503	-0.259305	-0.766261	-1.012777	2.293684	-70.158248	98.174495			
15308	7.869388	0.018664	3.566107	0.211087	-0.664135	-1.201122	1.896359	-70.239507	98.598238			
15309	7.816144	-0.548534	3.636440	0.767105	-0.656584	-1.233811	1.535919	-70.290096	99.008663			
15310	7.985985	-0.990308	3.577671	1.166700	-0.474195	-1.096592	1.203258	-70.334433	99.408179			
15311	8.237393	-1.290728	3.466779	1.414098	-0.238984	-0.897399	0.897465	-70.362377	99.791089			
15312	8.440816	-1.455396	3.293460	1.520134	0.013996	-0.762747	0.637596	-70.398140	100.140918			
15313	8.570890	-1.198548	3.287593	1.247522	0.009160	-0.639437	0.414053	-70.438981	100.465781			
15314	8.806662	-0.922837	3.212901	0.939424	0.096072	-0.440393	0.227702	-70.494909	100.748239			
15315	8.928525	-0.487969	3.076944	0.473055	0.170076	-0.369619	0.081618	-70.550058	100.991391			
15316	9.014067	-0.126209	2.995945	0.091920	0.192882	-0.315353	-0.047385	-70.611196	101.209734			
15317	9.176959	0.162211	2.890041	-0.226052	0.277951	-0.196718	-0.163707	-70.660156	101.401800			
15318	9.257882	0.329399	2.700726	-0.435542	0.438532	-0.183108	-0.271184	-70.687768	101.585478			
15319	9.246198	0.281456	2.489400	-0.432236	0.635765	-0.263997	-0.355177	-70.690992	101.751425			
15320	9.298249	0.256687	2.467628	-0.421048	0.676786	-0.222214	-0.429119	-70.676471	101.907678			
15321	9.229429	0.148557	2.375790	-0.332543	0.763516	-0.317675	-0.474470	-70.648219	102.033052			
15322	9.174402	-0.060421	2.249094	-0.152661	0.909232	-0.411532	-0.513357	-70.607625	102.154897			
15323	9.094459	-0.269056	2.149627	0.034406	1.025018	-0.520184	-0.506446	-70.552373	102.244013			
15324	9.003653	-0.514071	2.089915	0.266867	1.110260	-0.626073	-0.452052	-70.489458	102.300240			
15325	8.978574	-0.759309	2.000098	0.491147	1.247496	-0.680642	-0.336519	-70.423380	102.320974			
15326	8.943204	-0.930238	1.903131	0.643949	1.374123	-0.748183	-0.159729	-70.354625	102.304982			
15327	8.798294	-1.080826	1.747400	0.775568	1.517260	-0.939810	0.105688	-70.281049	102.234315			
15328	8.748801	-1.299117	1.832064	1.017601	1.485385	-0.961486	0.438833	-70.227147	102.116689			
15329	8.623764	-1.438701	1.938332	1.196725	1.392292	-1.047664	0.842276	-70.180927	101.936667			
15330	8.412502	-1.537580	2.103296	1.358218	1.207095	-1.195476	1.296257	-70.151915	101.712186			
15331	8.382287	-1.343637	2.350214	1.244138	0.940166	-1.143215	1.820395	-70.140751	101.412859			
15332	8.345299	-0.995430	2.488728	0.961889	0.732141	-1.131251	2.379065	-70.135250	101.065670			
15333	8.457721	-0.597594	2.724597	0.646622	0.470512	-0.942850	2.946516	-70.142869	100.695817			
15334	8.747969	-0.182439	2.988737	0.311321	0.234313	-0.574673	3.441310	-70.154303	100.357899			
15335	8.923665	0.098812	3.063424	0.068153	0.162135	-0.378963	3.826031	-70.162387	100.086187			
15336	9.102036	0.382266	2.822498	-0.255050	0.375859	-0.286232	4.104126	-70.173731	99.897996			
15337	9.252934	0.555251	2.382798	-0.521536	0.786160	-0.288363	4.277267	-70.185941	99.802003			
15338	9.442273	0.642071	2.030265	-0.692763	1.147816	-0.226585	4.357371	-70.204450	99.803810			
15339	9.826707	0.387125	1.777838	-0.525637	1.564750	0.043783	4.370452	-70.215908	99.878380			
15340	10.145479	-0.203291	1.369698	-0.072241	2.185298	0.190682	4.320856	-70.199239	100.033230			
15341	10.368563	-1.050178	1.439337	0.742980	2.407503	0.401693	4.232173	-70.160592	100.226734			
15342	10.696047	-2.173515	1.330230	1.773419	2.898370	0.644536	4.118498	-70.139207	100.449560			
15343	11.132654	-2.556911	1.640541	2.177808	2.862701	1.152130	3.979574	-70.131575	100.721237			
15344	11.571207	-2.725416	2.287801	2.451715	2.462264	1.783909	3.723187	-70.171340	101.082804			
15345	11.962484	-2.288066	2.614951	2.058737	2.171036	2.279556	3.343309	-70.278725	101.582651			
15346	12.438458	-1.251668	3.251845	1.146851	1.449763	2.971638	2.717780	-70.475753	102.322790			
15347	13.442813	0.100153	4.801567	0.096014	-0.042540	4.461848	1.662797	-70.714920	103.418053			
15348	14.297686	1.845178	6.254883	-1.391953	-1.618754	5.756272	0.147322	-70.864412	104.884610			
15349	13.999863	3.953167	7.400679	-3.263756	-3.371199	5.819777	-1.764858	-70.928237	106.626007			
15350	13.446502	5.231030	8.205446	-4.432688	-4.671819	5.485117	-4.023588	-71.001167	108.580337			
15351	12.558250	3.947031	7.914562	-3.375508	-4.389345	4.514361	-6.406459	-70.849785	110.520991			
15352	9.886176	2.333014	6.702797	-1.973245	-3.682302	1.617596	-8.373159	-70.458251	112.072336			
15353	8.206248	0.679497	5.939151	-0.465167	-3.069056	-0.146188	-9.837306	-70.141094	113.201533			
15354	8.296354	-0.707271	5.937888	0.770000	-2.692190	0.023312	-10.913260	-69.908981	114.050964			
15355	8.258165	-2.637845	5.496123	2.486301	-1.826189	-0.022597	-11.664278	-69.669764	114.685967			
15356	7.686027	-4.189038	4.894588	3.904443	-1.066934	-0.636804	-12.090581	-69.449051	115.117309			
15357	6.628438	-4.548122	4.539779	4.312403	-0.964023	-1.706831	-12.213703	-69.225401	115.306872			
15358	6.305802	-4.032950	4.345910	3.811694	-0.984110	-2.104432	-12.188619	-69.064383	115.378381			
15359	7.136401	-2.563885	4.728024	2.334417	-1.398138	-1.300835	-12.185934	-68.971050	115.455666			
15360	8.307399	-0.853089	5.057875	0.559085	-1.721867	-0.218662	-12.268036	-68.890225	115.575155			
15361	9.111499	0.785061	5.136744	-1.146535	-1.919430	0.435389	-12.414518	-68.789152	115.723531			
15362	9.600509	2.030102	5.070810	-2.460228	-1.990333	0.769846	-12.640343	-68.678046	115.898358			
15363	9.390569	2.897795	4.884326	-3.329528	-2.084829	0.434472	-12.930466	-68.558945	116.092262			
15364	8.975600	3.133710	4.682098	-3.559025	-2.078890	-0.049744	-13.207797	-68.460492	116.240986			
15365	8.370391	2.708774	4.430794	-3.122585	-1.931660	-0.672067	-13.388838	-68.374482	116.263249			
15366	8.022655	1.747784	4.183706	-2.200327	-1.579434	-1.004449	-13.480809	-68.323289	116.176692			
15367	7.872574	0.513727	3.899788	-1.043239	-1.072593	-1.140267	-13.491563	-68.320860	116.001272			
15368	7.781909	-0.707625	3.759312	0.128469	-0.692689	-1.170064	-13.436656	-68.366973	115.778665			
15369	8.002530	-1.781952	3.465128	1.090224	-0.114532	-0.979726	-13.285620	-68.480203	115.491354			
15370	7.829376	-2.141219	3.580566	1.504380	-0.210379	-1.072153	-13.035182	-68.590451	115.132846			
15371	7.787004	-2.069242	3.634069	1.472122	-0.300718	-1.102462	-12.698234	-68.700054	114.699629			
15372	7.797660	-1.792101	3.560566	1.212194	-0.300582	-1.144762	-12.308887	-68.804266	114.218598			
15373	7.798492	-0.781362	3.849355	0.306963	-0.791947	-1.122287	-11.845007	-68.886027	113.681544			
15374	8.080243	-0.103909	3.906860	-0.356482	-0.899726	-0.889233	-11.379730	-68.955578	113.103590			
15375	8.412309	0.599034	3.851610	-1.071804	-0.886585	-0.646127	-10.905244	-69.002577	112.516526			
15376	8.543307	1.185766	3.850419	-1.637791	-0.959689	-0.559772	-10.473536	-69.037755	111.949342			
15377	8.729697	1.284769	3.725814	-1.759892	-0.794783	-0.431270	-10.097823	-69.068630	111.411386			
15378	8.908432	1.016721	3.574013	-1.529100	-0.533033	-0.297166	-9.790642	-69.110756	110.915581			
15379	9.212441	0.484919	3.399595	-1.060819	-0.158924	-0.039722	-9.544402	-69.156333	110.468929			
15380	9.243588	-0.242727	3.260085	-0.361753	0.125672	-0.015529	-9.363892	-69.194433	110.061614			
15381	9.408380	-0.805751	3.176915	0.168560	0.366385	0.142058	-9.204395	-69.222714	109.679236			
15382	9.225096	-1.373396	2.978850	0.726556	0.594587	-0.066881	-9.064801	-69.231880	109.302850			
15383	9.089722	-1.372462	2.933987	0.745084	0.590137	-0.210002	-8.923274	-69.227604	108.940868			
15384	8.963692	-1.389632	2.876303	0.776482	0.605170	-0.347867	-8.811093	-69.208432	108.591576			
15385	8.847553	-1.216988	2.935937	0.635696	0.483712	-0.445623	-8.710195	-69.170294	108.258758			
15386	8.803025	-1.089928	2.775898	0.496663	0.600848	-0.550986	-8.648471	-69.109415	107.949364			
15387	8.645355	-0.928805	2.704363	0.346992	0.596458	-0.732916	-8.614273	-69.022137	107.664384			
15388	8.557406	-0.739542	2.610618	0.156072	0.633605	-0.859161	-8.639835	-68.932266	107.422007			
15389	8.466731	-0.670027	2.484657	0.076912	0.719953	-0.993178	-8.715785	-68.841653	107.224170			
15390	8.424115	-0.534049	2.437353	-0.064353	0.738761	-1.058164	-8.832646	-68.754730	107.053563			
15391	8.448319	-0.383499	2.262281	-0.244377	0.898430	-1.107967	-8.993514	-68.655788	106.907284			
15392	8.358725	-0.297793	2.039519	-0.354137	1.073226	-1.278089	-9.184696	-68.561309	106.782230			
15393	8.368028	-0.064019	2.081440	-0.590232	1.015837	-1.269850	-9.406970	-68.486116	106.684569			
15394	8.393142	0.066161	2.006096	-0.739727	1.086302	-1.283539	-9.670901	-68.418849	106.610718			
15395	8.271022	0.277215	2.135009	-0.933806	0.906042	-1.365677	-9.935160	-68.352274	106.553211			
15396	8.258773	0.530980	2.487254	-1.162731	0.551976	-1.267568	-10.207187	-68.307805	106.516968			
15397	8.449362	0.613730	2.761452	-1.253777	0.362163	-0.998445	-10.478112	-68.281124	106.493797			
15398	8.681524	0.503905	2.753498	-1.184012	0.468160	-0.780332	-10.760613	-68.278124	106.477445			
15399	8.956493	0.251877	2.720588	-0.978320	0.624544	-0.520937	-11.029213	-68.292568	106.448778			
15400	9.250638	0.122119	2.917367	-0.876229	0.555038	-0.167772	-11.262799	-68.339563	106.399351			
15401	9.510187	-0.083610	3.009474	-0.698927	0.572980	0.121635	-11.419719	-68.412622	106.283379			
15402	9.781106	-0.308456	2.902471	-0.511434	0.777993	0.352089	-11.502688	-68.490095	106.100857			
15403	9.897430	-0.561177	2.650984	-0.282535	1.066616	0.389481	-11.496008	-68.547380	105.833202			
15404	10.103109	-0.780167	2.324227	-0.094391	1.456601	0.480655	-11.447351	-68.577431	105.507483			
15405	10.294391	-0.815543	2.011676	-0.081689	1.817908	0.549502	-11.378299	-68.571056	105.143376			
15406	10.475686	-0.489963	1.850338	-0.417231	2.012979	0.636123	-11.325853	-68.530631	104.766954			
15407	10.479361	0.048500	2.307453	-0.922549	1.563090	0.763196	-11.261898	-68.461975	104.410330			
15408	10.548568	0.894679	2.716353	-1.748606	1.166391	0.912665	-11.243496	-68.414549	104.118465			
15409	10.840660	0.884416	2.606483	-1.763361	1.383645	1.145046	-11.283890	-68.442642	103.889009			
15410	11.425555	0.754995	3.179213	-1.660910	1.057907	1.906651	-11.256789	-68.568312	103.637382			
15411	12.233940	-0.363768	3.059047	-0.599985	1.502451	2.698986	-11.063729	-68.663996	103.210115			
15412	12.275522	-1.420116	3.546476	0.494535	1.102309	2.986642	-10.610622	-68.745281	102.601702			
15413	11.879432	-2.223200	4.289553	1.391190	0.294480	2.932562	-9.960279	-68.837193	101.871088			
15414	11.469277	-2.844310	5.020109	2.119332	-0.513507	2.839593	-9.076997	-68.916534	101.021965			
15415	11.618965	-3.044283	6.256758	2.418968	-1.604851	3.415588	-7.952019	-68.965056	100.042129			
15416	11.733619	-3.150006	7.281680	2.646282	-2.500222	3.875562	-6.684180	-68.953871	98.960275			
15417	12.027331	-2.847024	7.095544	2.438180	-2.203193	4.054858	-5.305167	-68.877650	97.798168			
15418	11.774876	-2.326156	6.463443	2.024759	-1.686738	3.562246	-3.951457	-68.752834	96.590597			
15419	10.730154	-1.157350	6.120330	0.993474	-1.762600	2.428204	-2.627236	-68.640989	95.342923			
15420	9.233323	1.200189	6.299836	-1.216539	-2.562465	1.065544	-1.478625	-68.558816	94.161998			
15421	7.739323	3.088407	6.127502	-3.014653	-3.009629	-0.387434	-0.618962	-68.454910	93.114498			
15422	6.580337	4.392712	5.550613	-4.293292	-2.917811	-1.660395	-0.055476	-68.338502	92.242104			
15423	5.820251	4.943941	5.241190	-4.840920	-2.887677	-2.463226	0.301747	-68.278251	91.485462			
15424	6.081605	4.841792	5.277019	-4.747312	-2.780131	-2.196286	0.548094	-68.267654	90.817690			
15425	6.799182	3.675644	5.097829	-3.599697	-2.283334	-1.593469	0.685933	-68.218045	90.214598			
15426	7.213369	1.638036	4.837136	-1.577044	-1.826067	-1.310212	0.804139	-68.131889	89.638127			
15427	7.832163	-0.178350	5.029151	0.238104	-1.744062	-0.671107	1.002742	-68.064849	89.049659			
15428	8.739372	-2.137647	4.876944	2.207710	-1.261130	0.100248	1.283997	-67.992125	88.435465			
15429	9.137817	-3.713266	4.752837	3.803395	-1.008375	0.404691	1.657202	-67.889658	87.799861			
15430	9.197901	-4.798909	4.419108	4.913290	-0.694146	0.313373	2.029693	-67.804092	87.201752			
15431	8.772456	-5.136966	3.785277	5.270799	-0.279780	-0.335711	2.351130	-67.738308	86.732308			
15432	8.122106	-4.448825	3.594389	4.586374	-0.344406	-1.007756	2.551918	-67.761662	86.471835			
15433	7.962324	-3.387269	3.518537	3.528489	-0.328309	-1.170104	2.593817	-67.892294	86.416116			
15434	8.115208	-1.817784	3.529868	1.960239	-0.276415	-0.997821	2.515176	-68.117559	86.518368			
15435	8.401211	-0.745273	3.635914	0.881431	-0.284124	-0.674973	2.263884	-68.386025	86.781311			
15436	8.454950	-0.036862	3.541568	0.155641	-0.205795	-0.649530	1.915002	-68.668940	87.175399			
15437	8.400013	0.447238	3.670754	-0.355854	-0.379394	-0.649505	1.467943	-68.928898	87.643581			
15438	8.305832	0.505646	3.599693	-0.442861	-0.382223	-0.765149	0.974041	-69.132963	88.145304			
15439	8.136452	0.482873	3.512207	-0.448167	-0.387971	-0.957229	0.508855	-69.281126	88.630024			
15440	8.053143	0.278293	3.493065	-0.268889	-0.422735	-1.044507	0.068892	-69.394240	89.086414			
15441	8.238692	-0.173115	3.506603	0.161002	-0.391514	-0.867129	-0.318355	-69.479370	89.513000			
15442	8.414504	-0.628801	3.491936	0.598338	-0.331481	-0.706373	-0.631618	-69.515893	89.882951			
15443	8.524736	-1.045425	3.377842	1.001382	-0.193933	-0.640258	-0.873466	-69.532266	90.199145			
15444	8.765040	-1.321384	3.393475	1.265822	-0.129718	-0.406917	-1.030685	-69.564214	90.456317			
15445	8.922020	-1.563651	3.435818	1.500105	-0.116806	-0.242508	-1.129218	-69.568599	90.664246			
15446	8.995381	-1.633888	3.189488	1.568220	0.140986	-0.258625	-1.165329	-69.579995	90.838543			
15447	9.067856	-1.424789	3.150059	1.357148	0.205227	-0.205662	-1.180258	-69.602660	91.004208			
15448	9.025162	-1.269195	3.175899	1.200922	0.165907	-0.237668	-1.176723	-69.624419	91.160524			
15449	8.982821	-1.072969	2.961090	1.004944	0.354198	-0.353564	-1.167586	-69.622119	91.331667			
15450	9.185672	-0.785925	2.775623	0.714299	0.600759	-0.230036	-1.177991	-69.616657	91.547883			
15451	9.126310	-0.622269	2.715862	0.547836	0.640383	-0.307823	-1.191346	-69.586039	91.781385			
15452	9.176392	-0.447158	2.546685	0.367006	0.821437	-0.321520	-1.200648	-69.550195	92.028560			
15453	9.152702	-0.354411	2.356338	0.267863	0.999504	-0.411670	-1.197845	-69.489982	92.276811			
15454	9.084133	-0.299498	2.238450	0.207832	1.096349	-0.518784	-1.164366	-69.419399	92.514936			
15455	9.040003	-0.332085	2.175979	0.236989	1.154025	-0.583448	-1.084527	-69.335584	92.726890			
15456	8.949686	-0.402247	2.006311	0.303289	1.297963	-0.729337	-0.951924	-69.250246	92.906936			
15457	8.716585	-0.371802	2.014972	0.278929	1.221650	-0.946631	-0.751819	-69.168377	93.046067			
15458	8.510477	-0.423822	2.003037	0.339000	1.174457	-1.145178	-0.507393	-69.113110	93.148782			
15459	8.364789	-0.596010	2.174825	0.529279	0.980394	-1.221212	-0.200984	-69.080980	93.198502			
15460	8.170542	-0.707154	2.482339	0.672086	0.637034	-1.294337	0.161033	-69.077423	93.179148			
15461	7.961625	-0.856541	3.038315	0.874296	0.056323	-1.293011	0.568045	-69.105641	93.086584			
15462	8.104794	-0.693672	3.465523	0.759473	-0.302201	-1.008682	1.046596	-69.156226	92.901184			
15463	8.142755	-0.232611	3.511124	0.331432	-0.364776	-0.955850	1.587342	-69.187656	92.621583			
15464	8.136433	0.198487	3.551329	-0.062283	-0.439373	-0.943874	2.197752	-69.231341	92.242952			
15465	8.283139	0.613298	3.566544	-0.441635	-0.439496	-0.795013	2.801585	-69.285670	91.822382			
15466	8.589040	0.723837	3.408095	-0.534647	-0.201446	-0.561518	3.336358	-69.345699	91.412608			
15467	8.931828	0.929194	2.881793	-0.756840	0.384697	-0.419880	3.779960	-69.399618	91.062603			
15468	9.196038	0.930769	2.136686	-0.800168	1.162702	-0.431499	4.121820	-69.457374	90.800752			
15469	9.568043	0.856496	1.687253	-0.750605	1.707143	-0.239283	4.363334	-69.532732	90.634324			
15470	10.153517	0.353508	1.446929	-0.262905	2.164320	0.215227	4.510858	-69.605463	90.559674			
15471	10.656296	-0.385546	1.631765	0.491737	2.221427	0.732046	4.571553	-69.619487	90.575105			
15472	11.142288	-1.491453	1.543873	1.581781	2.568883	1.126113	4.555240	-69.594289	90.676249			
15473	11.748001	-2.251542	1.955153	2.366094	2.471401	1.814924	4.491345	-69.560491	90.855085			
15474	12.195419	-2.600293	2.662870	2.762102	2.008519	2.472151	4.300904	-69.544246	91.159643			
15475	12.420344	-2.334127	2.604881	2.466467	2.118771	2.674337	3.992553	-69.599057	91.590858			
15476	12.892035	-1.070175	3.048734	1.211544	1.726969	3.309586	3.534387	-69.798797	92.224161			
15477	13.465934	0.763446	4.766043	-0.507044	0.092803	4.482871	2.711458	-70.026763	93.143844			
15478	13.063234	1.851449	5.782973	-1.566782	-1.150431	4.461045	1.471574	-70.126335	94.353799			
15479	11.993343	2.487623	6.311556	-2.233869	-2.105965	3.620019	-0.090161	-70.248674	95.759551			
15480	12.330077	3.119781	6.915255	-2.955618	-2.658798	4.107714	-1.911317	-70.369455	97.332024			
15481	12.284503	3.453299	6.973852	-3.438296	-2.773645	4.041971	-3.801194	-70.265599	98.940752			
15482	11.139081	3.099630	6.256423	-3.237247	-2.431238	2.694797	-5.567974	-70.098348	100.427626			
15483	10.321908	1.784061	5.868968	-2.039343	-2.206786	1.812256	-7.211978	-69.990855	101.761660			
15484	9.622371	-0.304571	5.404806	-0.055586	-1.819419	1.076780	-8.647001	-69.866043	102.958346			
15485	8.410946	-2.213080	5.539410	1.858361	-2.187081	0.091328	-9.774594	-69.732515	103.964927			
15486	7.184215	-3.793614	5.297417	3.462522	-2.226344	-1.030820	-10.443752	-69.531191	104.642923			
15487	6.068161	-4.639509	5.013108	4.359352	-2.233866	-2.100063	-10.672974	-69.288707	105.006588			
15488	5.940305	-4.745347	5.000330	4.468166	-2.219215	-2.202214	-10.751396	-69.129336	105.272448			
15489	6.315950	-4.149588	4.916327	3.836292	-2.031368	-1.910987	-10.762388	-68.992880	105.516668			
15490	6.807582	-2.898521	4.950998	2.551329	-1.980726	-1.516644	-10.779292	-68.852042	105.780459			
15491	7.726681	-1.534249	4.954260	1.107417	-1.775397	-0.745065	-10.857110	-68.751121	106.091329			
15492	8.730205	-0.159791	5.054134	-0.355446	-1.646262	0.134661	-11.043592	-68.652405	106.485464			
15493	9.396035	1.035342	4.970360	-1.630847	-1.451555	0.641745	-11.326222	-68.511514	106.957589			
15494	9.424649	2.012063	4.738283	-2.642867	-1.321551	0.511673	-11.659094	-68.346795	107.463939			
15495	9.160585	2.574807	4.755431	-3.194338	-1.482022	0.225232	-11.972099	-68.170964	107.940429			
15496	8.996850	2.622394	4.320125	-3.280259	-1.132129	-0.094566	-12.234585	-68.044812	108.331708			
15497	8.613129	2.260001	4.191294	-2.903815	-1.099694	-0.473573	-12.427029	-67.959528	108.624084			
15498	8.553192	1.492844	4.195087	-2.145925	-1.030923	-0.468350	-12.514137	-67.953709	108.806480			
15499	8.581879	0.558190	4.049154	-1.237243	-0.773156	-0.419747	-12.472970	-67.972011	108.860669			
15500	8.255255	-0.220176	4.016113	-0.422615	-0.763649	-0.671292	-12.308914	-68.004212	108.799890			
15501	7.986056	-0.599983	3.613356	-0.036143	-0.441997	-1.037910	-12.070245	-68.082469	108.667368			
15502	7.919972	-0.974861	3.572635	0.358250	-0.389814	-1.085736	-11.791169	-68.215717	108.471069			
15503	7.842691	-0.940578	3.646033	0.365106	-0.501030	-1.135035	-11.389149	-68.334718	108.158565			
15504	7.546398	-0.439211	3.598022	-0.072703	-0.635029	-1.465342	-10.919587	-68.445167	107.752072			
15505	7.888872	0.074205	3.700328	-0.578525	-0.686535	-1.145155	-10.440134	-68.574691	107.296361			
15506	8.093533	0.654241	3.918696	-1.121799	-0.900221	-0.912093	-9.920289	-68.647255	106.777914			
15507	8.340025	1.221932	3.916952	-1.679930	-0.884942	-0.713991	-9.417808	-68.682343	106.239499			
15508	8.750796	1.454566	3.718280	-1.945013	-0.581861	-0.410767	-8.980249	-68.709147	105.731488			
15509	9.142285	1.514033	3.764357	-2.014153	-0.488162	-0.027551	-8.606059	-68.726008	105.262202			
15510	9.476834	1.227112	3.619373	-1.755656	-0.193907	0.251908	-8.306446	-68.746189	104.845345			
15511	9.750061	0.835073	3.574028	-1.380103	-0.001341	0.513493	-8.078893	-68.752635	104.474933			
15512	9.764595	0.165858	3.278276	-0.732586	0.365575	0.456274	-7.897195	-68.742820	104.129688			
15513	9.663743	-0.276443	3.134033	-0.287327	0.524464	0.332700	-7.743891	-68.707630	103.806008			
15514	9.352986	-0.662203	2.900345	0.109920	0.685997	-0.022581	-7.622423	-68.650248	103.500369			
15515	9.058686	-0.764976	2.741534	0.230271	0.753482	-0.350119	-7.496108	-68.568520	103.193920			
15516	8.694337	-0.693380	2.707426	0.192887	0.662489	-0.706300	-7.376425	-68.472804	102.883265			
15517	8.541803	-0.545177	2.632284	0.057332	0.679040	-0.883850	-7.268756	-68.364042	102.572836			
15518	8.512623	-0.232240	2.561489	-0.252794	0.721460	-0.952921	-7.191012	-68.241144	102.261565			
15519	8.659354	0.032134	2.552335	-0.525683	0.779819	-0.834082	-7.159932	-68.104583	101.957307			
15520	8.805510	0.168793	2.402125	-0.683224	0.984013	-0.762794	-7.187976	-67.962722	101.676289			
15521	8.959879	0.198614	2.247203	-0.736342	1.207191	-0.682011	-7.277589	-67.819356	101.427482			
15522	8.959957	0.130029	2.035147	-0.683938	1.433017	-0.761820	-7.425599	-67.687462	101.225342			
15523	8.718505	0.106384	2.206950	-0.640802	1.207893	-0.923109	-7.658704	-67.559073	101.096367			
15524	8.601495	0.159166	2.424520	-0.688803	0.978127	-0.955029	-8.010854	-67.445988	101.063385			
15525	8.428709	0.090003	2.480393	-0.625258	0.883064	-1.093011	-8.444968	-67.327962	101.108659			
15526	8.229331	-0.045707	2.572662	-0.496773	0.746482	-1.237230	-8.916222	-67.201198	101.209218			
15527	8.053139	-0.159818	2.509177	-0.396851	0.759041	-1.419781	-9.377037	-67.086676	101.334886			
15528	7.913991	-0.387488	2.640713	-0.180928	0.603628	-1.484565	-9.817089	-67.030852	101.474718			
15529	8.094734	-0.670513	2.927605	0.069901	0.419778	-1.189228	-10.177551	-67.030292	101.582174			
15530	8.333420	-0.937714	3.089312	0.302711	0.365709	-0.888358	-10.435606	-67.053827	101.628178			
15531	8.514110	-1.111552	3.093364	0.451554	0.429127	-0.707389	-10.592696	-67.086902	101.609420			
15532	8.891454	-1.252995	2.955388	0.558327	0.696430	-0.401762	-10.664793	-67.124577	101.523631			
15533	9.383179	-1.180145	2.756407	0.447895	1.059670	-0.029484	-10.685514	-67.136690	101.387052			
15534	9.898473	-0.959595	2.385386	0.192367	1.592774	0.287645	-10.695501	-67.112407	101.207743			
15535	10.413047	-0.474588	2.054582	-0.324656	2.090619	0.598941	-10.735778	-67.057285	101.028732			
15536	10.703722	0.327439	2.104449	-1.144963	2.151719	0.825204	-10.827298	-67.002934	100.885121			
15537	10.869132	1.310105	2.351961	-2.142574	1.985119	0.997253	-10.980677	-66.961636	100.791911			
15538	11.114143	1.611333	2.428409	-2.466991	2.018066	1.226293	-11.156434	-66.943339	100.704689			
15539	11.324852	1.838196	2.570491	-2.714235	1.970269	1.456280	-11.294032	-67.009819	100.607134			
15540	11.686931	1.604909	3.063094	-2.517223	1.635496	1.999648	-11.389487	-67.224960	100.465498			
15541	12.170577	0.574806	3.402771	-1.519666	1.460518	2.660861	-11.331891	-67.508483	100.170078			
15542	12.213988	-0.496745	3.788712	-0.435461	1.061468	2.933524	-10.998781	-67.766110	99.667411			
15543	11.700686	-1.368716	4.676132	0.485312	-0.004336	2.852608	-10.374418	-67.966647	98.992680			
15544	11.162841	-2.266850	4.950544	1.466574	-0.501684	2.510158	-9.580292	-68.146896	98.208506			
15545	11.034689	-3.586433	5.344047	2.852444	-0.961844	2.601958	-8.622188	-68.349810	97.326472			
15546	11.820836	-4.317417	6.444086	3.607581	-1.736111	3.747127	-7.431657	-68.542761	96.334866			
15547	12.236771	-3.835360	6.605093	3.222221	-1.736455	4.139963	-6.102470	-68.572478	95.232808			
15548	11.032127	-2.925925	5.656306	2.485598	-1.264761	2.616468	-4.833339	-68.505165	94.131445			
15549	9.923963	-0.801956	5.717513	0.485221	-1.693277	1.532569	-3.648003	-68.468682	93.103922			
15550	8.981091	1.923930	6.318454	-2.154539	-2.577154	0.817471	-2.717269	-68.486445	92.197157			
15551	8.381739	3.602816	6.257388	-3.775324	-2.726735	0.222274	-2.058204	-68.514926	91.441745			
15552	7.707463	4.679146	6.252114	-4.820761	-2.947724	-0.407399	-1.662003	-68.506572	90.871496			
15553	6.896021	4.755634	6.029505	-4.886917	-3.012972	-1.235622	-1.532105	-68.482645	90.453644			
15554	6.557464	3.720590	5.640186	-3.855838	-2.766687	-1.680485	-1.524246	-68.480838	90.109130			
15555	6.762190	2.236576	5.470662	-2.383008	-2.549021	-1.537340	-1.512378	-68.475872	89.771723			
15556	7.190411	0.617104	5.373731	-0.771592	-2.336592	-1.157933	-1.429613	-68.445143	89.393239			
15557	7.787486	-0.958906	5.217590	0.809153	-2.019339	-0.644524	-1.224610	-68.403824	88.952599			
15558	8.334182	-2.255372	5.027804	2.125247	-1.689961	-0.197521	-0.874103	-68.358228	88.434293			
15559	8.656869	-3.189170	4.730068	3.095166	-1.332420	-0.008084	-0.397385	-68.296559	87.835463			
15560	8.509462	-3.701002	4.347917	3.648997	-1.053113	-0.294892	0.132333	-68.214162	87.192895			
15561	8.056140	-3.652270	3.721717	3.648795	-0.635883	-0.959806	0.647603	-68.152952	86.610410			
15562	7.855366	-2.735802	3.741110	2.754845	-0.685457	-1.145035	1.094579	-68.155996	86.156553			
15563	8.065556	-1.496658	3.509674	1.552706	-0.340022	-1.032913	1.388506	-68.229882	85.863229			
15564	8.328272	-0.381754	3.495101	0.458167	-0.191923	-0.786349	1.534519	-68.369468	85.735030			
15565	8.658728	0.597233	3.575550	-0.511826	-0.122176	-0.440503	1.522593	-68.545335	85.767541			
15566	8.894835	0.933106	3.573662	-0.848551	-0.048766	-0.219079	1.354803	-68.743063	85.951694			
15567	8.878719	0.896184	3.712235	-0.833890	-0.217144	-0.186013	1.066470	-68.932439	86.263107			
15568	8.882888	0.481440	3.923872	-0.450278	-0.461377	-0.111216	0.690421	-69.090661	86.654938			
15569	8.758789	-0.196674	3.891765	0.201435	-0.527624	-0.242846	0.279542	-69.189003	87.086872			
15570	8.635321	-0.860736	3.827365	0.841035	-0.554471	-0.381700	-0.124526	-69.259400	87.520844			
15571	8.526040	-1.390504	3.757147	1.349772	-0.558067	-0.506257	-0.482895	-69.298727	87.927515			
15572	8.440488	-1.672844	3.675360	1.616355	-0.526934	-0.611697	-0.767612	-69.324227	88.284429			
15573	8.433000	-1.757134	3.617735	1.689866	-0.479072	-0.636313	-0.969833	-69.338320	88.574587			
15574	8.424659	-1.608468	3.533582	1.535825	-0.397706	-0.673140	-1.105531	-69.369075	88.824436			
15575	8.622995	-1.290611	3.435165	1.217443	-0.226797	-0.523528	-1.201564	-69.419382	89.036856			
15576	8.714006	-0.924398	3.466146	0.846627	-0.216662	-0.429785	-1.265802	-69.471846	89.231840			
15577	8.733473	-0.534521	3.323981	0.458478	-0.070310	-0.464268	-1.332947	-69.524356	89.426392			
15578	8.793747	-0.378692	3.274966	0.300459	-0.006232	-0.426076	-1.407851	-69.576342	89.621900			
15579	8.790055	-0.193537	3.194783	0.113483	0.066470	-0.458979	-1.482378	-69.613356	89.823462			
15580	8.790133	-0.159954	3.021778	0.079671	0.224636	-0.519338	-1.578553	-69.636698	90.046933			
15581	8.784568	-0.297818	2.869738	0.215203	0.360020	-0.575978	-1.684230	-69.641285	90.281976			
15582	8.825550	-0.395155	2.757682	0.308363	0.477771	-0.575376	-1.784673	-69.633770	90.524947			
15583	8.873372	-0.446534	2.619615	0.356555	0.626606	-0.578039	-1.848943	-69.607018	90.745713			
15584	8.943373	-0.555406	2.440029	0.464110	0.823952	-0.574082	-1.870926	-69.564573	90.931319			
15585	9.102053	-0.559209	2.387783	0.465912	0.938159	-0.444423	-1.824278	-69.504467	91.060740			
15586	9.165395	-0.610130	2.275933	0.519392	1.077227	-0.425122	-1.708209	-69.426522	91.130088			
15587	9.123403	-0.628999	2.142137	0.545363	1.203684	-0.513518	-1.503785	-69.331954	91.123376			
15588	9.048219	-0.599916	1.987273	0.527764	1.339311	-0.641696	-1.207494	-69.237038	91.037893			
15589	8.827834	-0.507503	1.822412	0.451060	1.431955	-0.910137	-0.832409	-69.151394	90.897528			
15590	8.625871	-0.289881	1.783417	0.251516	1.409121	-1.116635	-0.383747	-69.086595	90.698911			
15591	8.468180	-0.256972	2.065661	0.241249	1.098710	-1.165281	0.114374	-69.041653	90.456308			
15592	8.208432	-0.698992	2.946958	0.716914	0.193465	-1.094887	0.614592	-69.024806	90.157695			
15593	8.204274	-0.768433	3.605671	0.824117	-0.419431	-0.865828	1.153995	-69.037404	89.811236			
15594	8.344998	-0.192607	3.517748	0.278522	-0.295240	-0.763609	1.703629	-69.030717	89.418899			
15595	8.224210	0.100169	3.361720	0.013853	-0.195313	-0.929535	2.265297	-69.005168	89.003562			
15596	8.310588	0.245480	3.661355	-0.092436	-0.446263	-0.739437	2.805905	-69.012752	88.584275			
15597	8.510570	0.270603	3.736246	-0.084139	-0.449110	-0.525399	3.286011	-69.046772	88.186332			
15598	8.801968	0.491302	3.270232	-0.289193	0.077413	-0.414775	3.673123	-69.096894	87.845368			
15599	9.122626	0.612666	2.353576	-0.413760	1.037071	-0.437708	3.952401	-69.137865	87.602552			
15600	9.457600	0.592668	1.669266	-0.396723	1.787101	-0.366377	4.141995	-69.194498	87.468084			
15601	9.971760	0.241161	1.460262	-0.037562	2.162079	0.033658	4.241258	-69.264457	87.437176			
15602	10.523962	-0.322658	1.087824	0.522449	2.711068	0.405844	4.265906	-69.292753	87.517474			
15603	10.844513	-1.101590	0.836955	1.290712	3.080326	0.597072	4.242338	-69.280733	87.689587			
15604	11.096333	-2.082874	1.005416	2.269397	3.048273	0.866062	4.173830	-69.261209	87.928086			
15605	11.481949	-2.909575	1.188404	3.091626	3.054121	1.270057	4.082335	-69.237237	88.237598			
15606	11.431847	-2.941823	1.886994	3.133571	2.401208	1.470799	3.942329	-69.229287	88.633159			
15607	11.512955	-2.828958	2.619077	3.030855	1.746400	1.813775	3.659951	-69.332213	89.155982			
15608	12.064818	-1.465214	3.173708	1.664132	1.341521	2.565109	3.197235	-69.523557	89.878156			
15609	12.584913	0.529735	4.175339	-0.326902	0.446140	3.445807	2.424718	-69.722723	90.896265			
15610	12.616954	2.280260	5.612406	-2.070827	-1.034313	3.990471	1.258568	-69.884035	92.213421			
15611	12.264288	2.950009	6.091068	-2.813774	-1.692379	3.804708	-0.300813	-70.036989	93.778885			
15612	12.492899	3.766366	7.304641	-3.704291	-2.850515	4.391755	-2.209319	-70.169522	95.591656			
15613	13.013333	4.114658	8.056865	-4.202887	-3.424923	5.080020	-4.336444	-70.084748	97.565870			
15614	11.522723	3.045975	7.270397	-3.287704	-3.101664	3.396320	-6.342431	-69.801672	99.405006			
15615	9.624105	1.438425	5.985357	-1.777141	-2.408841	1.212509	-8.017599	-69.538364	100.970106			
15616	9.042295	-0.212104	6.029379	-0.195104	-2.528687	0.757484	-9.374298	-69.363360	102.331980			
15617	8.247183	-2.428160	5.967520	1.998389	-2.587904	0.128748	-10.353498	-69.179887	103.466368			
15618	7.226089	-4.019147	5.325443	3.602312	-2.199965	-0.929360	-10.879890	-68.969615	104.291968			
15619	6.545863	-4.515661	4.946253	4.126410	-1.996051	-1.646098	-11.090090	-68.758299	104.882322			
15620	6.541880	-4.484492	4.866616	4.090270	-1.876699	-1.667852	-11.229757	-68.632342	105.401986			
15621	7.126892	-3.834532	4.988403	3.396364	-1.803226	-1.118241	-11.345947	-68.561967	105.887521			
15622	7.818977	-1.726611	5.366519	1.259659	-2.083891	-0.485966	-11.462128	-68.501789	106.343475			
15623	9.057420	0.427411	5.534002	-0.996295	-2.008071	0.570942	-11.668469	-68.446555	106.816495			
15624	10.338510	2.427941	5.572621	-3.125316	-1.805642	1.624350	-11.972807	-68.407265	107.326275			
15625	10.637237	4.161273	5.607310	-4.894276	-1.929890	1.773099	-12.345523	-68.343285	107.848999			
15626	10.058601	5.138394	5.193937	-5.853199	-1.863930	0.995701	-12.716614	-68.256424	108.298198			
15627	8.961602	5.075370	4.576426	-5.732640	-1.668083	-0.254044	-12.991059	-68.191986	108.558740			
15628	7.732805	4.386898	4.174517	-4.949741	-1.646862	-1.490690	-13.127532	-68.188647	108.634366			
15629	7.632822	2.891024	3.890316	-3.480792	-1.253485	-1.562512	-13.129087	-68.281217	108.545751			
15630	7.721440	1.246152	3.955070	-1.850656	-1.113197	-1.318457	-13.001622	-68.421585	108.336983			
15631	7.619775	-0.446762	3.974028	-0.145646	-1.000807	-1.266894	-12.774787	-68.594079	108.016062			
15632	7.839620	-1.586839	3.837392	0.971641	-0.699468	-1.022362	-12.445527	-68.795712	107.619162			
15633	7.854620	-2.214349	3.623548	1.604837	-0.455234	-1.040822	-12.055751	-69.005173	107.170553			
15634	7.674209	-2.265142	3.736720	1.711846	-0.641927	-1.172964	-11.618446	-69.190923	106.695687			
15635	7.742897	-1.920531	3.703178	1.390102	-0.643639	-1.151991	-11.190513	-69.375074	106.235844			
15636	8.051454	-1.254727	3.855955	0.737822	-0.768716	-0.860970	-10.785929	-69.530801	105.811104			
15637	8.263462	-0.630896	3.839334	0.122009	-0.759197	-0.711479	-10.446535	-69.653155	105.428294			
15638	8.460687	0.003662	3.768579	-0.510886	-0.700686	-0.591330	-10.158633	-69.744615	105.107557			
15639	8.346380	0.717103	3.720140	-1.196843	-0.769635	-0.757802	-9.946757	-69.803425	104.861955			
15640	8.337295	0.993544	3.635698	-1.468067	-0.725194	-0.810755	-9.885747	-69.855651	104.722248			
15641	8.441928	0.807624	3.389069	-1.306907	-0.448546	-0.785230	-9.913367	-69.929753	104.661801			
15642	8.734669	0.616917	3.449361	-1.139430	-0.402584	-0.479268	-10.015281	-70.024887	104.666570			
15643	8.845940	0.090347	3.257474	-0.641323	-0.152420	-0.408677	-10.154204	-70.118600	104.686716			
15644	8.825939	-0.380218	3.109387	-0.185225	0.004824	-0.449157	-10.309994	-70.225283	104.735884			
15645	8.905743	-0.860828	3.031864	0.276995	0.126316	-0.370614	-10.478239	-70.337681	104.785537			
15646	8.873116	-1.061307	2.876161	0.466161	0.258946	-0.440042	-10.626922	-70.444569	104.829683			
15647	8.919770	-1.067985	2.850393	0.464365	0.280354	-0.403470	-10.766372	-70.538722	104.861919			
15648	9.072561	-1.133314	2.802263	0.511061	0.363223	-0.270397	-10.881343	-70.622634	104.871779			
15649	9.191450	-0.897968	2.787768	0.264396	0.382434	-0.177099	-10.968992	-70.685706	104.858117			
15650	9.339892	-0.764900	2.744248	0.115458	0.449593	-0.059017	-11.057830	-70.734944	104.829616			
15651	9.367390	-0.418882	2.687536	-0.236451	0.477832	-0.072971	-11.156458	-70.767510	104.804893			
15652	9.407627	-0.228715	2.673657	-0.433962	0.483178	-0.051416	-11.303006	-70.799608	104.799429			
15653	9.363825	-0.150964	2.563605	-0.519677	0.562604	-0.133355	-11.503884	-70.817871	104.825132			
15654	9.302265	-0.069434	2.439099	-0.610613	0.651020	-0.237226	-11.752272	-70.831083	104.870547			
15655	9.270879	-0.091288	2.282317	-0.603629	0.788133	-0.316321	-12.031831	-70.833532	104.927644			
15656	9.256279	-0.120103	2.143412	-0.591544	0.915491	-0.373446	-12.351144	-70.819898	105.004948			
15657	9.179075	-0.116990	1.974664	-0.608064	1.051537	-0.501785	-12.720218	-70.794169	105.099137			
15658	9.077206	-0.056980	1.670641	-0.683482	1.306026	-0.701316	-13.143427	-70.757328	105.219555			
15659	8.828640	0.116671	1.608622	-0.852964	1.281558	-0.970957	-13.586283	-70.713413	105.338347			
15660	8.713082	0.460311	1.661171	-1.201937	1.186324	-1.092761	-14.062767	-70.664086	105.461351			
15661	8.618036	0.770877	1.760318	-1.520675	1.061908	-1.179995	-14.531869	-70.582922	105.547382			
15662	8.591151	1.046036	2.078685	-1.811602	0.761468	-1.131605	-14.978214	-70.474199	105.587386			
15663	8.672960	1.296994	2.313713	-2.090648	0.583294	-1.006748	-15.375063	-70.356712	105.568263			
15664	8.757422	1.266428	2.577020	-2.091108	0.389119	-0.845354	-15.721157	-70.238096	105.482623			
15665	8.966111	0.819780	2.556217	-1.682415	0.506303	-0.619728	-16.022703	-70.155882	105.347196			
15666	9.112799	0.184940	2.467805	-1.073798	0.656022	-0.454058	-16.254495	-70.114382	105.157299			
15667	9.282192	-0.482193	2.475224	-0.431269	0.707302	-0.229783	-16.410991	-70.129165	104.915128			
15668	9.517954	-1.007376	2.538500	0.069121	0.714182	0.063314	-16.439992	-70.179216	104.584952			
15669	9.846159	-1.417583	2.737509	0.449669	0.618610	0.476406	-16.295260	-70.226894	104.137876			
15670	10.126214	-1.715769	2.662607	0.745663	0.769347	0.743145	-15.986351	-70.243461	103.567014			
15671	10.443318	-2.180620	2.508981	1.219120	1.006400	1.032302	-15.549854	-70.238592	102.899712			
15672	10.786561	-2.166553	2.629056	1.206058	1.008319	1.389294	-15.043864	-70.244304	102.218168			
15673	10.869234	-1.909932	3.524318	0.926094	0.199000	1.733375	-14.540005	-70.291230	101.617367			
15674	11.179788	-1.415928	4.008898	0.418318	-0.143844	2.140052	-14.069744	-70.361314	101.107587			
15675	11.435321	-1.619654	3.089141	0.697674	0.795363	2.095847	-13.581199	-70.399088	100.589175			
15676	11.444485	-1.665205	2.819739	0.798971	1.049315	2.017803	-12.959352	-70.439904	100.012624			
15677	11.388195	-1.773432	3.463054	0.918361	0.413266	2.179576	-12.262092	-70.546059	99.408383			
15678	11.298133	-1.582658	3.968969	0.758256	-0.099485	2.242194	-11.468107	-70.655799	98.764087			
15679	10.885448	-1.068889	4.591115	0.295116	-0.812999	2.018010	-10.541974	-70.737408	98.037639			
15680	10.761904	-0.403048	5.328869	-0.328763	-1.532416	2.100371	-9.479118	-70.789429	97.205214			
15681	10.781641	0.094130	5.446709	-0.751584	-1.619799	2.134283	-8.347169	-70.794358	96.271372			
15682	10.981763	0.255217	5.184692	-0.828328	-1.295290	2.236414	-7.214394	-70.788223	95.277157			
15683	10.933736	0.578850	5.224423	-1.075971	-1.329711	2.197722	-6.151161	-70.764636	94.227718			
15684	10.393695	1.354843	5.528829	-1.783050	-1.764319	1.769196	-5.163273	-70.776992	93.154081			
15685	9.619163	2.724822	5.786040	-3.091382	-2.210707	1.095433	-4.230576	-70.776693	92.076022			
15686	8.389313	3.989302	5.491496	-4.286154	-2.270936	-0.173023	-3.415972	-70.695065	91.035076			
15687	6.967802	4.359996	5.310255	-4.615990	-2.517186	-1.559515	-2.764936	-70.618122	90.045434			
15688	6.506090	3.548239	5.364322	-3.796559	-2.721134	-1.946517	-2.159342	-70.588274	89.055902			
15689	6.657047	2.242349	5.573681	-2.492077	-2.908954	-1.704803	-1.517507	-70.528011	88.073182			
15690	7.274122	0.495346	5.366732	-0.716711	-2.587918	-1.166939	-0.845955	-70.419680	87.032567			
15691	8.324766	-0.967849	5.311589	0.788029	-2.264438	-0.184463	-0.142448	-70.311610	86.043299			
15692	9.500944	-2.441105	5.267736	2.317631	-1.927989	0.905863	0.558458	-70.219537	85.033261			
15693	10.422089	-3.583139	4.957448	3.544655	-1.412744	1.653547	1.263848	-70.107302	84.101878			
15694	10.184146	-4.031910	4.541262	4.054840	-1.139058	1.271394	1.887889	-69.966016	83.247406			
15695	9.174601	-3.798291	4.253182	3.837413	-1.185952	0.215153	2.367152	-69.834761	82.606199			
15696	8.515413	-2.993226	3.999459	3.047053	-1.100743	-0.486856	2.663205	-69.775486	82.151497			
15697	8.449470	-1.794496	3.932702	1.864752	-0.953483	-0.555610	2.745164	-69.799914	81.968558			
15698	8.641938	-0.905873	4.029641	0.976927	-0.905219	-0.327548	2.624121	-69.873482	81.959413			
15699	8.623782	-0.375250	3.860304	0.448889	-0.714926	-0.394635	2.364458	-69.970501	82.143830			
15700	8.873315	-0.177191	3.876829	0.240520	-0.642302	-0.152126	1.988380	-70.089085	82.425383			
15701	8.828316	-0.247924	3.788098	0.291348	-0.595608	-0.225685	1.551625	-70.178045	82.835757			
15702	8.670208	-0.374759	3.693464	0.392569	-0.584048	-0.407404	1.102719	-70.259866	83.238578			
15703	8.566342	-0.623977	3.679643	0.612828	-0.641702	-0.510863	0.690942	-70.353320	83.663715			
15704	8.488174	-0.769186	3.788754	0.722377	-0.795053	-0.547623	0.342273	-70.419030	84.006536			
15705	8.386147	-0.952197	3.683042	0.893935	-0.752559	-0.678495	0.063259	-70.445177	84.337085			
15706	8.305200	-1.045976	3.511755	0.988135	-0.629440	-0.811009	-0.122329	-70.458663	84.557526			
15707	8.363154	-0.980949	3.472623	0.921677	-0.566001	-0.768692	-0.242059	-70.460749	84.766041			
15708	8.461549	-0.877603	3.441312	0.820022	-0.491407	-0.685984	-0.320356	-70.441691	84.902556			
15709	8.482941	-0.785453	3.303902	0.739219	-0.340286	-0.711547	-0.360641	-70.402928	85.054311			
15710	8.492114	-0.723164	3.245331	0.681847	-0.269756	-0.722393	-0.381322	-70.368943	85.164450			
15711	8.631725	-0.644625	3.197439	0.611834	-0.164140	-0.607007	-0.391816	-70.338014	85.312050			
15712	8.755802	-0.688853	3.081586	0.668627	-0.013165	-0.528964	-0.409484	-70.325528	85.441301			
15713	8.956480	-0.752171	3.061746	0.738109	0.071947	-0.346505	-0.418985	-70.307721	85.612355			
15714	8.997961	-0.868127	2.937076	0.864246	0.198930	-0.349239	-0.419192	-70.277932	85.762772			
15715	9.096253	-0.867493	2.945284	0.865621	0.232675	-0.254151	-0.402568	-70.243425	85.944419			
15716	9.200734	-0.883361	2.903511	0.888076	0.314711	-0.170256	-0.365939	-70.201099	86.094882			
15717	9.203673	-0.760916	2.839481	0.772370	0.396700	-0.190043	-0.310075	-70.140637	86.279710			
15718	9.136348	-0.646823	2.700805	0.669179	0.524460	-0.301499	-0.223121	-70.078528	86.425561			
15719	8.969994	-0.556246	2.475604	0.592931	0.698124	-0.535842	-0.099422	-70.015077	86.589813			
15720	8.828135	-0.562507	2.262922	0.613287	0.860275	-0.743123	0.061786	-69.962072	86.708515			
15721	8.602766	-0.549489	2.147651	0.607639	0.902311	-0.995742	0.280082	-69.920881	86.833272			
15722	8.449421	-0.550115	2.021387	0.618975	0.975481	-1.184440	0.543360	-69.898583	86.908462			
15723	8.432697	-0.594140	1.915274	0.674937	1.072936	-1.238020	0.835689	-69.892405	87.006965			
15724	8.436062	-0.655865	2.075866	0.740969	0.923952	-1.181129	1.162493	-69.904070	87.057618			
15725	8.514735	-0.766711	2.394914	0.856548	0.649311	-0.999692	1.512876	-69.934519	87.115044			
15726	8.558102	-0.768765	2.784842	0.867229	0.295714	-0.826704	1.886081	-69.985791	87.106188			
15727	8.497913	-0.498596	3.074343	0.611541	0.002785	-0.782700	2.294111	-70.052930	87.072499			
15728	8.548469	-0.097984	3.130933	0.233943	-0.038503	-0.711457	2.741227	-70.133767	86.950063			
15729	8.628537	0.250221	3.243024	-0.088123	-0.128738	-0.592761	3.220597	-70.227808	86.796929			
15730	8.839187	0.409544	3.446217	-0.216865	-0.267287	-0.322861	3.683512	-70.338431	86.585968			
15731	9.105474	0.602576	3.412002	-0.379778	-0.166666	-0.079115	4.115439	-70.445972	86.392946			
15732	9.265503	0.655152	3.232385	-0.408766	0.036319	0.013736	4.501033	-70.535246	86.180738			
15733	9.418300	0.662699	3.013136	-0.396900	0.277945	0.086187	4.842858	-70.602988	86.011652			
15734	9.553198	0.541883	2.669464	-0.262363	0.635210	0.097455	5.159735	-70.659936	85.827792			
15735	9.748277	0.179058	2.417388	0.114867	0.931806	0.188475	5.467034	-70.705990	85.680764			
15736	9.974311	-0.414594	2.480683	0.729972	0.949454	0.403879	5.740814	-70.719317	85.528450			
15737	10.069934	-1.052431	2.316224	1.378046	1.150175	0.417374	5.976362	-70.686611	85.446450			
15738	10.090058	-1.344886	2.260234	1.679959	1.224848	0.405146	6.173042	-70.634396	85.387937			
15739	10.019693	-1.529645	2.590409	1.882599	0.903931	0.438312	6.363190	-70.614374	85.354572			
15740	10.197580	-1.600508	2.968191	1.979671	0.612681	0.726190	6.517661	-70.626639	85.358217			
15741	10.377874	-1.252893	2.968627	1.642728	0.663950	0.908478	6.605937	-70.648877	85.432241			
15742	10.553141	-0.379286	3.175880	0.781730	0.496301	1.175553	6.545898	-70.706740	85.641579			
15743	10.725045	0.665655	3.904962	-0.239858	-0.181193	1.616573	6.250828	-70.799480	86.028125			
15744	10.790778	1.158968	4.766708	-0.722954	-1.009594	1.975590	5.696717	-70.916144	86.563614			
15745	10.886118	1.642025	5.460854	-1.221643	-1.668856	2.301229	4.914644	-71.008249	87.239106			
15746	11.367347	2.426571	5.348323	-2.067306	-1.441880	2.731481	3.934339	-71.059582	88.053820			
15747	12.000245	3.602302	5.052076	-3.326406	-0.995754	3.242915	2.771147	-71.100234	89.061750			
15748	12.244723	3.675215	4.900656	-3.496595	-0.778221	3.401858	1.459049	-71.146830	90.190116			
15749	12.019827	2.412785	4.540586	-2.341737	-0.478796	3.040365	0.164444	-71.174881	91.318596			
15750	11.126717	0.262647	4.318094	-0.276500	-0.502609	2.111625	-0.959849	-71.160940	92.321678			
15751	10.055105	-2.037021	4.164472	1.970541	-0.642850	1.063936	-1.756680	-71.121505	93.085271			
15752	9.320187	-3.700196	4.111641	3.608746	-0.781976	0.376932	-2.172520	-71.093447	93.562837			
15753	9.141776	-4.488905	4.355077	4.393298	-1.036320	0.302350	-2.257956	-71.073333	93.815256			
15754	8.934162	-4.680023	4.792572	4.605059	-1.490719	0.250201	-2.112994	-71.035591	93.911379			
15755	8.320364	-4.261379	4.763111	4.218313	-1.644308	-0.348176	-1.807218	-70.949681	93.914762			
15756	7.374055	-3.047261	4.712507	3.051388	-1.916412	-1.275333	-1.417771	-70.858157	93.898872			
15757	6.865071	-1.546638	5.138350	1.611470	-2.523386	-1.629810	-1.076499	-70.779555	93.962029			
15758	6.575646	-0.178445	5.192655	0.283159	-2.720252	-1.890908	-0.891697	-70.676573	94.172193			
15759	6.337515	0.910574	4.952795	-0.790074	-2.623036	-2.195677	-0.896905	-70.566837	94.562217			
15760	6.436530	1.709817	5.067259	-1.571201	-2.745535	-2.065245	-1.096486	-70.488157	95.126349			
15761	6.822584	2.264978	5.209991	-2.125442	-2.792177	-1.657442	-1.521300	-70.401541	95.867653			
15762	7.219599	2.530546	5.160918	-2.418570	-2.635840	-1.305973	-2.127036	-70.298579	96.737248			
15763	7.666614	2.758138	5.131122	-2.688414	-2.477815	-0.905078	-2.861562	-70.190664	97.706853			
15764	8.270945	2.863158	5.162481	-2.850163	-2.316342	-0.338067	-3.655380	-70.098152	98.712837			
15765	8.857671	2.747434	5.118509	-2.805784	-2.069412	0.189855	-4.404111	-69.995869	99.652105			
15766	9.248839	2.540162	5.144233	-2.656107	-1.939660	0.562249	-5.009058	-69.877055	100.417388			
15767	9.445204	2.208495	4.937220	-2.384528	-1.640564	0.679596	-5.412663	-69.779962	100.961273			
15768	9.620894	1.839725	4.875055	-2.051704	-1.481488	0.831938	-5.597000	-69.735896	101.246139			
15769	9.488318	1.441431	4.790693	-1.657281	-1.402674	0.691719	-5.544088	-69.701289	101.276070			
15770	9.337598	1.207619	4.660628	-1.417334	-1.303078	0.515123	-5.326523	-69.681171	101.114137			
15771	9.486649	0.960304	4.609076	-1.168672	-1.172751	0.647766	-4.987408	-69.678384	100.806230			
15772	9.703505	0.850059	4.668314	-1.044839	-1.137292	0.877897	-4.586886	-69.672097	100.414520			
15773	9.844023	0.938371	4.755329	-1.107653	-1.170168	1.040985	-4.147027	-69.633385	99.981500			
15774	9.997979	1.040850	4.692531	-1.198707	-1.054806	1.165164	-3.727619	-69.569584	99.553891			
15775	9.920293	1.138968	4.547929	-1.281878	-0.937308	1.044167	-3.353395	-69.481940	99.163702			
15776	9.730861	1.237017	4.589645	-1.346437	-1.031488	0.883471	-3.053777	-69.393520	98.841159			
15777	9.544945	1.287386	4.404693	-1.390051	-0.908595	0.647085	-2.839162	-69.300297	98.594727			
15778	9.285625	1.230742	4.303103	-1.321800	-0.879269	0.372299	-2.710151	-69.203600	98.416877			
15779	9.042031	1.130731	4.211500	-1.215265	-0.849471	0.115812	-2.642994	-69.100064	98.292631			
15780	8.844382	0.912000	4.149101	-0.994349	-0.820379	-0.086018	-2.634604	-69.000484	98.208355			
15781	8.720720	0.773831	4.175095	-0.852041	-0.855866	-0.188619	-2.648907	-68.894203	98.141095			
15782	8.589549	0.771258	4.140124	-0.851182	-0.850538	-0.322279	-2.681944	-68.775751	98.083635			
15783	8.450905	0.828801	4.234446	-0.900251	-0.972155	-0.416962	-2.736011	-68.650005	98.033894			
15784	8.365460	1.050350	4.285390	-1.120543	-1.050270	-0.480485	-2.803381	-68.528696	97.982185			
15785	8.385979	1.252923	4.471920	-1.318109	-1.212994	-0.395484	-2.895659	-68.409647	97.929378			
15786	8.433433	1.386004	4.475366	-1.464677	-1.188993	-0.351521	-3.001905	-68.290803	97.861657			
15787	8.525963	1.515704	4.400682	-1.616934	-1.074163	-0.294965	-3.115706	-68.178357	97.770018			
15788	8.717946	1.515430	4.332720	-1.643625	-0.918920	-0.141823	-3.211323	-68.089176	97.633477			
15789	8.853975	1.488383	4.172092	-1.644391	-0.696719	-0.074873	-3.272242	-68.005302	97.434759			
15790	8.925096	1.404113	4.057404	-1.578454	-0.537531	-0.049957	-3.295775	-67.933502	97.165865			
15791	8.983397	1.305131	3.948877	-1.492362	-0.388462	-0.034122	-3.264409	-67.870859	96.817367			
