// General information: 
//  MT Manager version: 2022.0.0 
//  XDA version: 2022.0.0 build 7085 rev 119802 built on 2022-11-08
// Device information: 
//  DeviceId: 00B492A5
//  ProductCode: MTW2-3A7G6
//  Firmware Version: 4.6.0
//  Hardware Version: 2.0.0
// Device settings: 
//  Filter Profile: human(46.1)
//  Option Flags: Orientation Smoother Disabled, Position/Velocity Smoother Disabled, Continuous Zero Rotation Update Disabled, AHS Disabled, ICC Disabled
// Coordinate system: ENU
PacketCounter	Acc_X	Acc_Y	Acc_Z	FreeAcc_E	FreeAcc_N	FreeAcc_U	Roll	Pitch	Yaw	Vel_E	Vel_N	Vel_U
14665	9.222172	-2.163635	-1.690652	0.069169	0.080534	-0.191004	-127.182479	-72.806927	69.334323			
14666	9.220485	-2.164009	-1.648974	0.054205	0.118802	-0.200074	-127.063978	-72.761730	69.235442			
14667	9.204870	-2.181635	-1.617995	0.029518	0.135320	-0.216445	-126.931557	-72.721005	69.117246			
14668	9.183403	-2.183721	-1.604676	0.026803	0.144227	-0.238922	-126.806041	-72.673184	69.007362			
14669	9.228062	-2.167358	-1.596291	0.049619	0.176463	-0.201803	-126.670578	-72.626157	68.890440			
14670	9.239519	-2.160827	-1.585693	0.059590	0.197351	-0.194486	-126.542061	-72.573636	68.781849			
14671	9.231749	-2.146963	-1.562020	0.066949	0.226719	-0.209632	-126.397886	-72.524125	68.656903			
14672	9.243254	-2.140733	-1.551151	0.076921	0.247606	-0.202312	-126.264552	-72.472989	68.540440			
14673	9.274474	-2.133472	-1.511670	0.074791	0.297239	-0.181552	-126.110156	-72.423782	68.406002			
14674	9.264240	-2.168506	-1.462054	0.027791	0.322702	-0.191812	-125.951724	-72.373694	68.278372			
14675	9.372758	-2.184036	-1.431461	0.021782	0.374325	-0.090184	-125.751242	-72.328201	68.119162			
14676	9.490246	-2.158682	-1.365311	0.032651	0.477860	0.003591	-125.534129	-72.281704	67.952674			
14677	9.556118	-2.125912	-1.240810	0.013207	0.616364	0.036090	-125.274846	-72.245319	67.753359			
14678	9.635386	-2.093964	-1.186277	0.033534	0.699647	0.093974	-124.998233	-72.215493	67.537711			
14679	9.714556	-2.070694	-1.170960	0.069051	0.743788	0.160953	-124.690202	-72.197740	67.285000			
14680	9.697934	-2.016334	-1.130318	0.105486	0.795711	0.124558	-124.367831	-72.188590	67.015193			
14681	9.667557	-1.978215	-1.098877	0.132140	0.825857	0.080897	-124.028233	-72.185840	66.728007			
14682	9.662026	-1.963117	-1.061697	0.139329	0.855856	0.065766	-123.691507	-72.186174	66.446269			
14683	9.573872	-1.918207	-1.072974	0.187683	0.836408	-0.027240	-123.333917	-72.194222	66.151325			
14684	9.584839	-1.948852	-0.980575	0.128449	0.891232	-0.024027	-122.979160	-72.200867	65.862793			
14685	9.585125	-1.938490	-0.882820	0.098588	0.967277	-0.041999	-122.618557	-72.209217	65.578386			
14686	9.680167	-1.866786	-0.727681	0.098764	1.148572	0.005207	-122.265596	-72.211491	65.319808			
14687	9.798021	-1.735630	-0.528573	0.126002	1.401486	0.052045	-121.898692	-72.217912	65.046812			
14688	10.041783	-1.664600	-0.285919	0.095521	1.693860	0.227818	-121.545646	-72.229098	64.746055			
14689	10.269577	-1.517422	0.028780	0.086510	2.076035	0.358359	-121.173864	-72.260016	64.347350			
14690	10.443699	-1.370792	0.364629	0.061869	2.456199	0.436510	-120.760865	-72.319176	63.806942			
14691	10.524980	-1.227430	0.667545	0.046317	2.773936	0.435748	-120.289235	-72.427927	63.097855			
14692	10.703626	-1.058089	0.977635	0.068766	3.128409	0.524191	-119.747713	-72.582691	62.208822			
14693	10.748769	-0.876158	1.285270	0.094681	3.438656	0.488860	-119.069743	-72.803390	61.079107			
14694	10.711414	-0.588610	1.760091	0.118406	3.906447	0.331463	-118.235204	-73.082395	59.703009			
14695	10.626889	-0.241205	2.154472	0.243041	4.310769	0.136582	-117.209318	-73.430095	58.067696			
14696	10.501317	0.152242	2.688781	0.341802	4.832489	-0.114272	-115.985787	-73.844796	56.165288			
14697	10.433484	0.269495	2.940800	0.377454	4.982196	-0.189176	-114.477396	-74.335107	53.905674			
14698	10.465356	0.503079	3.229889	0.522384	5.224676	-0.187909	-112.658699	-74.883793	51.242681			
14699	10.655863	0.444967	3.085132	0.667628	4.973140	0.090987	-110.709617	-75.462029	48.271321			
14700	11.205599	0.426352	2.854147	0.955708	4.704632	0.715483	-108.334977	-76.072495	44.615154			
14701	11.353298	-0.592986	2.791734	0.223715	4.071514	1.160559	-105.801845	-76.634607	40.650707			
14702	11.353193	-4.093458	1.797483	-2.393576	1.598293	2.044637	-102.520619	-77.133095	37.021774			
14703	12.335908	-0.011830	2.114271	1.297060	3.477783	2.139922	-99.026619	-77.566058	33.911892			
14704	12.645843	0.228014	1.706548	1.744041	3.074060	2.450579	-96.205271	-77.983368	30.830348			
14705	13.465818	-1.898555	1.259535	0.191973	1.711829	3.735332	-92.851422	-78.432250	26.906361			
14706	12.952895	-2.633472	0.498695	-0.237953	0.444737	3.404753	-87.217588	-78.878308	20.946887			
14707	9.679504	-2.640590	-1.425203	-0.058585	-1.790457	0.161463	-81.043489	-79.261974	14.692028			
14708	9.188528	-2.472537	-3.497962	0.814419	-3.823621	-0.458922	-76.644931	-79.523134	10.206127			
14709	10.271677	-3.510038	-3.267004	-0.041315	-4.127250	0.744934	-72.623650	-79.624553	5.920107			
14710	10.589239	-2.730879	-1.479716	0.003562	-2.306103	0.978954	-68.638093	-79.610397	1.438177			
14711	10.448431	-3.055873	-0.262877	-0.785982	-1.445882	0.951482	-64.409546	-79.492732	-3.467719			
14712	10.428644	-2.793322	0.250665	-0.738377	-1.002673	0.914386	-60.375456	-79.325636	-8.252326			
14713	10.307726	-2.828861	1.079465	-1.081038	-0.374585	0.869377	-56.234027	-79.083990	-13.212193			
14714	10.120348	-3.606336	1.252122	-1.880108	-0.604906	0.821835	-52.387238	-78.760369	-17.970266			
14715	10.232535	-4.354799	0.541800	-2.319165	-1.661786	0.949325	-48.286996	-78.360300	-22.721786			
14716	10.008179	-3.792152	-0.027330	-1.667308	-2.136891	0.540893	-44.316865	-77.921903	-27.208882			
14717	9.436237	-3.072143	-0.312508	-1.030720	-2.262911	-0.200539	-40.657424	-77.504773	-31.218892			
14718	9.078205	-1.394585	-0.103830	0.392534	-1.625276	-0.780944	-37.415944	-77.125789	-34.766092			
14719	9.049608	-0.728465	0.144658	0.918352	-1.303554	-0.873833	-34.570056	-76.768946	-37.943743			
14720	8.856661	0.159582	0.833940	1.503002	-0.467583	-1.055822	-32.102094	-76.438612	-40.730782			
14721	8.843903	0.505506	1.108191	1.734241	-0.208833	-1.057908	-30.026262	-76.112340	-43.173222			
14722	8.754474	0.676898	0.734329	1.969553	-0.593837	-1.244977	-28.382545	-75.764049	-45.313498			
14723	8.430157	0.647327	0.514762	1.935726	-0.847320	-1.609890	-27.126091	-75.386818	-47.160505			
14724	8.188018	0.201637	0.389173	1.499401	-1.130762	-1.830933	-26.336602	-74.997223	-48.668297			
14725	7.910474	-0.535406	0.312872	0.767243	-1.420261	-2.043904	-25.768438	-74.586450	-49.961232			
14726	7.553473	-0.729849	0.603191	0.459600	-1.183283	-2.306702	-25.409394	-74.184807	-51.052118			
14727	7.359500	-0.945018	0.517818	0.245260	-1.327525	-2.498265	-25.135486	-73.797630	-52.006922			
14728	7.409821	-1.157691	0.551174	0.049179	-1.402753	-2.424915	-24.929805	-73.414963	-52.903666			
14729	7.359884	-1.272779	1.037451	-0.153006	-0.998636	-2.339847	-24.773434	-73.056278	-53.741113			
14730	7.350890	-1.791335	0.997658	-0.640302	-1.179785	-2.300176	-24.648313	-72.725629	-54.493037			
14731	7.215349	-1.681082	1.476903	-0.627047	-0.699619	-2.316968	-24.457428	-72.457766	-55.141494			
14732	7.426506	-1.793049	1.327546	-0.668390	-0.939247	-2.144478	-24.403766	-72.233170	-55.680621			
14733	7.384197	-2.114607	1.432741	-0.998564	-0.907764	-2.116618	-24.310493	-72.044117	-56.190827			
14734	7.410910	-2.446325	1.701743	-1.352241	-0.734702	-1.974724	-24.124827	-71.885147	-56.670960			
14735	7.339816	-2.471999	2.002568	-1.429144	-0.451493	-1.954721	-23.879237	-71.739225	-57.141097			
14736	7.267434	-2.561378	2.339195	-1.572504	-0.142821	-1.916176	-23.665990	-71.619958	-57.560966			
14737	7.261121	-2.562881	2.779040	-1.628566	0.264727	-1.794397	-23.535199	-71.510503	-57.935861			
14738	7.279085	-2.955125	3.234718	-2.058378	0.622773	-1.593414	-23.541199	-71.426132	-58.192018			
14739	7.445737	-3.107616	4.006330	-2.264072	1.284405	-1.188811	-23.512496	-71.389780	-58.346062			
14740	7.540069	-3.119740	4.674463	-2.333271	1.895591	-0.902099	-23.596834	-71.410914	-58.360523			
14741	7.636380	-3.383798	4.998376	-2.609404	2.146267	-0.684013	-23.722040	-71.473154	-58.286598			
14742	7.560200	-3.457488	5.151094	-2.713756	2.316684	-0.707024	-23.860160	-71.592987	-58.115846			
14743	7.484901	-3.550709	5.062778	-2.815683	2.254615	-0.798720	-23.963166	-71.727799	-57.913947			
14744	7.265573	-3.545358	4.943491	-2.846187	2.215808	-1.049948	-24.039866	-71.881121	-57.696020			
14745	7.504925	-3.375858	4.860131	-2.645807	2.115934	-0.876040	-24.108704	-72.042488	-57.489027			
14746	7.996489	-3.354183	4.906854	-2.565074	2.053733	-0.406619	-24.132354	-72.197660	-57.370039			
14747	8.455219	-3.097342	4.963763	-2.260199	2.051656	0.005935	-24.019622	-72.341405	-57.513792			
14748	8.881050	-2.954021	5.009282	-2.079524	2.025952	0.398249	-23.740799	-72.497400	-57.805033			
14749	9.112102	-2.732894	5.414967	-1.907617	2.406191	0.694076	-23.270737	-72.679974	-58.333590			
14750	9.293964	-2.782243	5.911767	-2.037146	2.842326	0.996499	-22.498511	-72.905912	-59.069916			
14751	9.530539	-2.199316	6.526115	-1.576675	3.477238	1.308493	-21.499212	-73.186589	-59.951060			
14752	10.003808	-1.871889	6.744378	-1.306477	3.640580	1.767690	-20.355980	-73.525090	-60.888669			
14753	10.245662	-1.206717	6.596877	-0.701708	3.574074	1.878378	-19.091721	-73.871633	-61.947961			
14754	9.864571	-0.298069	6.220038	0.079632	3.485699	1.319694	-17.733412	-74.223419	-62.975218			
14755	9.270574	0.742070	5.286617	1.058779	2.943140	0.417583	-16.273089	-74.566295	-64.176511			
14756	8.783573	1.540371	3.735165	1.916835	1.751307	-0.499629	-14.634023	-74.938483	-65.386812			
14757	8.074139	3.340813	2.526029	3.705610	1.135481	-1.583983	-12.962458	-75.380300	-66.614085			
14758	8.749057	5.580038	0.990771	6.141733	0.014294	-1.389995	-11.543349	-75.941887	-67.604725			
14759	9.506290	5.678917	-2.526322	6.861118	-3.399587	-1.424134	-10.325479	-76.574020	-68.497028			
14760	9.220892	4.922503	-6.178643	6.750296	-6.820285	-2.373417	-9.030207	-77.571741	-68.935847			
14761	9.563881	3.830820	-6.735378	5.870346	-7.395726	-1.917345	-8.375311	-79.006939	-68.201238			
14762	13.000966	4.408719	-1.119939	5.461137	-2.133994	2.650216	-10.121138	-80.254401	-65.102344			
14763	18.165966	8.675694	9.307420	7.516990	8.365269	9.302869	-14.527981	-80.666918	-61.826265			
14764	20.066297	3.047191	11.766877	2.280843	9.109633	11.684552	-20.460275	-80.209158	-59.611661			
14765	17.023261	-6.063234	8.816761	-5.536351	5.114720	8.826407	-24.839596	-78.906650	-59.683313			
14766	9.575302	-13.847446	-1.991350	-12.637153	-4.754630	0.438324	-27.951461	-78.334485	-58.628725			
14767	7.931338	-8.569327	-5.362618	-7.428772	-7.153593	-2.148826	-30.179367	-78.472892	-57.055047			
14768	5.596039	-8.607986	-7.152013	-7.698915	-8.409573	-4.658260	-31.831800	-78.910368	-55.912531			
14769	3.257295	-8.974617	-7.478662	-8.336505	-8.318048	-6.914970	-31.621901	-79.776794	-55.843346			
14770	2.338321	-7.503385	-5.927197	-6.944886	-6.655602	-7.722613	-29.471160	-80.912823	-56.530292			
14771	3.208849	-6.048735	-3.524163	-5.460025	-4.419226	-6.656769	-29.005360	-82.115060	-55.127541			
14772	7.126548	-4.910671	-2.118475	-4.067592	-3.390517	-2.646914	-34.627193	-83.406586	-47.708271			
14773	11.604008	-2.042552	-0.063866	-1.087994	-1.146542	1.862917	-49.293677	-84.557848	-31.565402			
14774	13.615904	2.066184	-0.282842	3.163996	-0.448354	3.585814	-59.939947	-85.212725	-19.459544			
14775	10.365883	3.335478	-3.416615	4.701654	-2.928809	0.165429	-68.715029	-85.693892	-9.937123			
14776	9.780172	3.344592	-2.858037	4.558726	-2.160924	-0.349558	-82.602384	-85.811111	4.483210			
14777	10.787458	3.167295	-1.657592	4.222483	-0.805768	0.707111	-94.706198	-85.625895	17.111994			
14778	10.544552	4.323910	-0.583015	5.114116	0.676860	0.366160	-102.664809	-85.237709	25.478133			
14779	10.617976	4.205514	-0.470234	5.006009	0.906219	0.422842	-108.898189	-84.732031	31.603644			
14780	10.726084	2.855099	-0.713569	3.789286	0.487975	0.632983	-113.309216	-84.241069	35.644423			
14781	10.225878	1.615521	-0.607559	2.551537	0.382375	0.231739	-116.718183	-83.789192	38.527200			
14782	9.732765	0.604419	-0.444858	1.514342	0.383300	-0.176858	-120.081055	-83.354874	41.307674			
14783	9.541717	-0.410465	-0.388561	0.510831	0.312830	-0.273066	-123.277177	-82.950556	43.720569			
14784	9.482674	-1.311611	-0.472405	-0.354576	0.155947	-0.235954	-126.242433	-82.577558	45.807291			
14785	9.555686	-1.986030	-0.446308	-1.012863	0.175462	-0.096866	-128.842680	-82.238501	47.480781			
14786	9.557063	-2.342355	-0.185218	-1.404574	0.479476	-0.083616	-131.398165	-81.913046	49.247323			
14787	9.574103	-2.505360	0.228657	-1.622274	0.965223	-0.095260	-133.745665	-81.603807	50.970475			
14788	9.671665	-2.263837	0.699856	-1.438742	1.556638	-0.083237	-135.897717	-81.301764	52.831115			
14789	9.612400	-2.203028	0.559668	-1.372765	1.490203	-0.145254	-137.645159	-81.036371	54.572157			
14790	9.363242	-2.050110	0.588308	-1.259654	1.561192	-0.421465	-138.946958	-80.700138	56.417268			
14791	9.709762	-1.122438	0.464617	-0.307551	1.657329	-0.173521	-139.835717	-80.322765	58.172087			
14792	9.953596	-0.447213	0.217504	0.404781	1.606420	0.014651	-140.295624	-79.972108	59.648525			
14793	9.953685	-0.110712	-0.263287	0.813863	1.251896	0.032488	-140.445822	-79.659225	60.685021			
14794	9.770764	-0.283210	-1.019418	0.775782	0.518771	-0.029233	-140.555787	-79.359864	61.682420			
14795	9.660168	-0.201304	-1.587062	0.977763	0.029781	-0.069960	-140.676096	-79.016912	62.846068			
14796	10.093897	0.957470	-1.838040	2.216912	0.182935	0.248761	-140.903841	-78.654017	64.261736			
14797	10.167755	3.021753	-1.529282	4.154517	1.042996	0.010975	-141.431340	-78.358214	65.285963			
14798	10.028895	2.320444	-0.902860	3.299372	1.526650	-0.139961	-142.948236	-78.072287	66.431175			
14799	9.946563	0.561077	-0.937096	1.579392	1.133206	0.003026	-144.341546	-77.839969	67.350236			
14800	9.523201	0.190643	-0.532351	1.073033	1.402665	-0.437611	-145.328560	-77.638091	68.166878			
14801	9.281878	-0.220740	-1.042500	0.758127	0.821072	-0.536928	-146.146433	-77.418483	68.874995			
14802	9.233645	-0.917852	-1.390963	0.144798	0.376926	-0.438563	-146.907960	-77.188063	69.492740			
14803	9.049281	-1.777628	-1.650255	-0.657256	-0.041005	-0.467157	-147.587198	-76.967436	69.954495			
14804	8.950804	-2.205641	-1.675092	-1.084301	-0.127067	-0.507009	-148.146789	-76.732728	70.392074			
14805	8.893876	-2.297737	-1.647567	-1.190012	-0.084147	-0.556787	-148.675862	-76.470100	70.786605			
14806	9.007535	-2.237880	-1.404206	-1.181171	0.236834	-0.503333	-149.268448	-76.173824	71.279736			
14807	9.254073	-2.241141	-1.143633	-1.227939	0.597728	-0.320424	-149.924480	-75.875213	71.747511			
14808	9.138733	-2.194700	-0.855186	-1.262176	0.911241	-0.504584	-150.621567	-75.603914	72.259832			
14809	9.034111	-2.054919	-0.609571	-1.194652	1.201226	-0.683665	-151.325556	-75.333320	72.719172			
14810	9.199804	-1.945284	-0.411052	-1.125908	1.506404	-0.590309	-152.021068	-75.028358	73.247645			
14811	9.431609	-1.842333	-0.414931	-1.014141	1.636874	-0.388597	-152.571518	-74.709628	73.715255			
14812	9.264324	-1.633169	-0.512428	-0.808238	1.594597	-0.562753	-152.891095	-74.369545	74.234278			
14813	9.211407	-1.190343	-0.409672	-0.403000	1.813543	-0.703179	-152.996116	-73.985625	74.762650			
14814	9.447930	-0.680726	-0.314628	0.086337	2.122379	-0.576160	-152.966317	-73.576376	75.363084			
14815	9.442810	0.064321	-0.142134	0.767834	2.494542	-0.736438	-152.902151	-73.188050	75.825722			
14816	9.425118	0.590994	-0.041022	1.247190	2.757173	-0.866964	-153.042532	-72.824051	76.245577			
14817	9.667721	0.463970	0.056948	1.113180	2.952552	-0.662481	-153.292910	-72.470760	76.581386			
14818	9.569692	0.642578	0.076050	1.271398	3.037863	-0.804229	-153.460883	-72.130713	76.883385			
14819	9.601858	1.171166	-0.193402	1.847238	2.968081	-0.791461	-153.512943	-71.774983	77.194461			
14820	9.976914	1.708873	-0.406269	2.442351	3.066375	-0.471597	-153.555895	-71.420801	77.479928			
14821	10.155730	1.713961	-0.794751	2.555637	2.826679	-0.211312	-153.629716	-71.103532	77.709126			
14822	10.316280	1.395309	-1.060689	2.326668	2.619613	0.047412	-153.706835	-70.817608	77.906558			
14823	10.468948	1.106576	-0.919194	2.022721	2.783957	0.178624	-153.803406	-70.575488	78.071474			
14824	10.874112	0.514274	-0.691040	1.419301	3.038444	0.567178	-153.964705	-70.352724	78.255915			
14825	10.670155	0.007600	-0.197973	0.784983	3.346520	0.290578	-154.180735	-70.198629	78.459560			
14826	10.678072	-0.143629	0.512474	0.447913	3.993149	0.094813	-154.562000	-70.093114	78.711149			
14827	11.048732	-0.349172	1.165370	0.098262	4.684814	0.266863	-155.137504	-70.077573	78.947481			
14828	11.326266	-0.871402	1.044889	-0.365999	4.557027	0.638866	-155.770791	-70.173007	79.106319			
14829	11.671814	-1.853604	0.383359	-1.145958	3.847294	1.309324	-156.233147	-70.330937	79.212416			
14830	11.466711	-2.618969	0.141688	-1.858031	3.379269	1.300040	-156.309428	-70.486327	79.331485			
14831	10.938799	-2.427597	0.507036	-1.803459	3.547900	0.673850	-155.940526	-70.575835	79.483805			
14832	11.790304	-1.874462	1.260128	-1.416693	4.606446	1.182145	-155.334384	-70.582922	79.651535			
14833	12.375907	-1.686611	1.591934	-1.303597	5.107890	1.621992	-154.601359	-70.691827	79.613307			
14834	12.864986	-2.137133	0.874759	-1.518169	4.451584	2.382336	-153.692387	-70.855239	79.364064			
14835	13.708755	-2.268006	0.378299	-1.434342	4.162602	3.371834	-152.390276	-71.065304	78.917423			
14836	13.988051	-1.800932	0.519015	-0.979995	4.409790	3.557826	-150.711177	-71.317847	78.319014			
14837	14.031461	-0.928884	1.059242	-0.285451	5.049292	3.351229	-148.744802	-71.654105	77.512290			
14838	13.531280	-0.036863	1.483159	0.410947	5.433016	2.661639	-147.121554	-72.083688	76.541488			
14839	12.682203	-0.586837	1.784326	-0.212846	5.153656	1.924370	-146.217668	-72.748660	75.045953			
14840	13.110838	-1.688409	3.297309	-1.597370	6.153088	2.237125	-145.298456	-73.910553	72.498921			
14841	11.456610	-5.958690	1.670810	-5.167451	2.866450	1.790325	-143.562362	-75.222210	69.262916			
14842	10.591831	-8.104997	-0.654822	-6.560424	-0.292600	1.813678	-139.733700	-76.336423	65.902379			
14843	11.585488	-3.408512	-0.436792	-1.961834	1.033291	2.066140	-135.067351	-77.316260	62.601614			
14844	11.980589	-2.042067	-2.464800	0.095027	-0.695001	2.567974	-130.438510	-78.201187	59.313760			
14845	12.344704	-2.701545	-2.467804	-0.380976	-1.105083	3.009453	-125.975795	-78.989501	56.298613			
14846	13.032264	-2.188257	-2.567803	0.302225	-1.178537	3.593845	-121.153456	-79.784189	53.237798			
14847	12.873013	-0.922252	-2.145248	1.376819	-0.602381	3.183597	-115.334685	-80.572415	49.221656			
14848	12.112293	-0.816418	-3.491606	2.037073	-2.096929	2.476099	-109.102217	-81.301302	44.759016			
14849	11.709079	0.013907	-3.540242	2.859648	-2.025724	1.906995	-101.527969	-81.981959	38.664813			
14850	11.291150	0.128536	-3.702337	3.073986	-2.362186	1.420275	-92.266443	-82.563291	30.196242			
14851	10.699834	-0.555747	-3.672917	2.436493	-2.927265	0.853856	-83.001093	-82.975937	20.727439			
14852	10.652110	-1.694826	-3.967913	1.557455	-3.952368	0.865901	-73.772771	-83.126011	10.693796			
14853	10.747945	-1.704864	-2.381224	0.811946	-2.765136	0.947688	-64.885524	-83.059294	0.486809			
14854	10.371583	-2.155302	-1.878598	0.107335	-2.708728	0.598468	-56.711463	-82.830297	-9.176081			
14855	10.369434	-2.803108	-1.580582	-0.637647	-2.889589	0.633432	-48.785854	-82.417390	-18.175880			
14856	10.168281	-2.155535	-1.316356	-0.186448	-2.581105	0.339763	-40.975350	-81.858364	-26.317043			
14857	9.751499	0.014491	-0.902399	1.591883	-1.540154	-0.273478	-34.307399	-81.229476	-33.385079			
14858	9.854780	-0.860937	-1.305402	0.944282	-2.451802	-0.186897	-29.471181	-80.496597	-38.881897			
14859	9.530843	-1.686339	-0.978189	0.017750	-2.606570	-0.440368	-25.187010	-79.723090	-43.473894			
14860	9.253226	-0.810570	-0.997444	0.796578	-2.431826	-0.828055	-21.481676	-79.017180	-47.285926			
14861	9.194086	-0.396933	-1.358742	1.289578	-2.759736	-1.023280	-18.487011	-78.280757	-50.630419			
14862	8.634448	-0.584105	-1.234444	0.986574	-2.774681	-1.581980	-16.092822	-77.471210	-53.569311			
14863	7.757155	-0.978443	-0.881231	0.375232	-2.571260	-2.386127	-14.103002	-76.656462	-56.029070			
14864	7.418567	-0.300668	-1.244544	1.073568	-2.721649	-2.876307	-12.473764	-75.918701	-58.072696			
14865	7.279878	0.327158	-1.611713	1.748478	-2.931191	-3.175603	-11.193767	-75.115262	-59.916757			
14866	6.242744	-0.117871	-1.382825	1.111930	-2.740097	-4.142360	-10.339837	-74.343443	-61.356474			
14867	6.021224	0.172142	-1.548568	1.395367	-2.830478	-4.453250	-9.827351	-73.663488	-62.451177			
14868	5.830511	-0.110353	-1.783143	1.156664	-3.156737	-4.725126	-9.572616	-73.029000	-63.314591			
14869	5.249215	-0.244824	-1.507664	0.864042	-2.851010	-5.228788	-9.562589	-72.461324	-63.943475			
14870	5.141726	-0.741732	-1.615527	0.392711	-3.107615	-5.364565	-9.826309	-71.982491	-64.293791			
14871	4.837174	-1.047896	-1.617256	0.048831	-3.140685	-5.659919	-10.172270	-71.551366	-64.510041			
14872	4.707055	-1.403749	-1.812387	-0.272792	-3.399975	-5.840618	-10.665705	-71.186531	-64.553022			
14873	4.359686	-1.712085	-1.997632	-0.584927	-3.562202	-6.221421	-11.222376	-70.888576	-64.495109			
14874	3.989102	-2.137436	-2.070976	-1.041774	-3.631410	-6.572616	-11.889289	-70.681070	-64.291055			
14875	3.404013	-2.433274	-1.828329	-1.473471	-3.301659	-7.023633	-12.526742	-70.571555	-64.042984			
14876	3.025558	-2.778150	-1.374003	-1.963337	-2.840951	-7.198443	-13.236527	-70.602473	-63.651191			
14877	3.202532	-2.840807	-0.913665	-2.094660	-2.463998	-6.862735	-14.003231	-70.787516	-63.156570			
14878	3.962527	-2.638709	-0.471304	-1.875429	-2.200661	-6.001355	-14.855029	-71.135008	-62.546420			
14879	4.905685	-1.849344	0.100185	-1.081770	-1.715460	-4.977132	-15.780183	-71.615698	-61.808299			
14880	6.171572	-1.031410	1.398322	-0.349846	-0.607191	-3.439630	-16.802571	-72.203357	-60.944961			
14881	7.587619	-0.414329	3.480018	0.061104	1.197286	-1.541301	-17.955492	-72.904225	-59.968560			
14882	9.756930	-0.537059	5.985987	-0.213685	3.127675	1.209426	-19.432650	-73.779689	-58.797491			
14883	13.529965	-0.989333	9.696074	-0.771790	5.895560	5.765800	-21.497871	-74.788859	-57.381214			
14884	19.176642	-0.672528	15.485804	-0.577889	10.619537	12.433098	-23.811880	-75.752367	-56.089428			
14885	23.506235	-1.719869	17.988435	-1.224191	12.344195	17.116687	-25.006671	-76.393121	-56.132910			
14886	18.873612	-4.048905	12.686621	-3.283651	7.977307	11.614771	-24.117764	-76.754806	-57.851783			
14887	11.283145	-2.064572	10.033168	-1.984508	7.222970	3.458546	-22.160455	-76.938840	-59.746168			
14888	8.173391	-0.723797	9.658849	-1.073593	7.655955	0.229950	-20.889419	-77.093492	-60.693188			
14889	8.144194	-2.038521	8.314910	-2.267166	6.151409	0.017930	-20.285069	-77.215832	-61.023438			
14890	8.769394	-1.767096	5.439837	-1.584270	3.292138	-0.001039	-19.771695	-77.378007	-61.212558			
14891	10.675819	-0.834871	0.389586	0.226718	-1.764992	0.753987	-19.786442	-77.867737	-61.016554			
14892	13.045162	-0.858097	-4.205211	1.088637	-6.511666	2.229096	-20.384654	-78.898037	-60.135694			
14893	12.343220	0.025371	-7.209268	2.349624	-8.917562	1.108601	-20.580665	-80.335015	-58.879542			
14894	12.769494	2.791989	-6.069460	4.957644	-7.005789	1.763832	-19.284645	-81.745104	-57.971595			
14895	19.565423	8.828396	3.820993	9.165669	3.455827	9.665020	-18.774446	-82.289120	-57.249374			
14896	21.106206	2.043868	7.034808	2.053784	4.848055	11.899085	-22.699504	-81.833912	-55.124341			
14897	16.937350	-7.538713	3.881227	-6.535964	0.232480	7.962981	-26.458695	-80.067784	-55.390110			
14898	7.328019	-11.439012	-3.002093	-10.247258	-5.450291	-2.142404	-27.566245	-78.332495	-57.693517			
14899	2.079151	-8.052409	-6.083663	-7.369512	-7.002353	-8.130277	-27.206782	-77.789420	-58.974328			
14900	0.929451	-2.467769	-8.242144	-1.843427	-8.445875	-10.206454	-26.175379	-78.163257	-59.445867			
14901	-0.142276	-2.123178	-17.576086	-0.538691	-17.414633	-12.947918	-21.492774	-79.106244	-61.555362			
14902	-2.511764	-2.474065	-13.768458	-0.594207	-13.423307	-14.435082	-15.449930	-80.668863	-63.606394			
14903	3.376761	-1.325922	-7.501305	0.557058	-7.977200	-7.475897	-12.056260	-82.744184	-63.248690			
14904	21.295873	6.604992	8.992679	5.344577	8.432518	12.055927	-27.488629	-84.537407	-46.892867			
14905	16.595262	1.356624	-0.023674	2.493656	-0.727636	6.633896	-40.470378	-84.529894	-36.314339			
14906	11.285418	-2.857494	-3.331365	-1.268241	-4.472043	1.368139	-43.139576	-84.667243	-36.620117			
14907	8.277301	-3.233268	-4.316047	-1.868425	-5.219184	-1.635758	-48.222042	-84.730130	-33.390805			
14908	8.581688	-1.742959	-1.159555	-0.884986	-1.779141	-1.205823	-56.352806	-84.876893	-25.769699			
14909	10.709993	0.480241	1.203982	1.176909	0.928038	0.870724	-66.056434	-85.114883	-15.675281			
14910	9.939989	1.040793	0.166120	1.817971	0.162513	0.014869	-73.835443	-85.227529	-6.710961			
14911	9.337822	1.793782	-0.447366	2.616923	-0.143866	-0.661687	-82.316712	-85.169686	3.338691			
14912	9.458370	2.012432	-1.104563	2.987839	-0.572764	-0.567514	-88.320579	-85.028733	10.787130			
14913	8.550607	1.238483	-1.576728	2.289600	-1.088835	-1.404111	-91.888888	-84.858799	15.364167			
14914	8.334155	1.080461	-1.144043	2.038946	-0.625367	-1.603821	-96.794040	-84.647683	20.436364			
14915	8.968796	0.053229	-0.702385	1.003877	-0.332042	-0.878666	-102.876083	-84.338508	25.873665			
14916	9.630560	-0.694671	-0.237171	0.236511	0.085309	-0.157522	-108.835647	-83.993798	30.689222			
14917	9.993609	-1.345724	-0.169314	-0.376039	0.157488	0.264234	-114.035440	-83.648921	34.489262			
14918	9.911462	-2.131046	-0.606020	-1.075739	-0.298233	0.281791	-117.691338	-83.370250	36.848260			
14919	9.190788	-2.704565	-0.802774	-1.683120	-0.527572	-0.361883	-120.685453	-83.109619	39.012842			
14920	8.814996	-2.745509	-0.796988	-1.763792	-0.466324	-0.727085	-123.825423	-82.773663	42.067617			
14921	9.052612	-2.217834	-0.672008	-1.235834	-0.167822	-0.551793	-126.845793	-82.340410	45.669101			
14922	9.513640	-1.594481	-0.622027	-0.577092	0.100304	-0.164116	-129.135125	-81.867452	48.998177			
14923	9.598143	-1.160593	-0.692302	-0.116824	0.194062	-0.122552	-130.638715	-81.411571	51.773378			
14924	9.447049	-0.933261	-0.804684	0.131856	0.184951	-0.288341	-131.457568	-80.993591	53.928471			
14925	9.285816	-0.616588	-0.949349	0.478641	0.160448	-0.471781	-131.927276	-80.601924	55.638859			
14926	9.224775	-0.147046	-0.867080	0.925944	0.411627	-0.601682	-132.466662	-80.214860	57.129204			
14927	9.275404	0.272694	-0.747079	1.314961	0.710539	-0.624044	-133.188537	-79.845641	58.383209			
14928	9.388908	0.318031	-0.587000	1.331443	0.961601	-0.544488	-134.167985	-79.496295	59.452772			
14929	9.408381	-0.042176	-0.579080	0.986537	0.943720	-0.485814	-135.347191	-79.174183	60.444732			
14930	9.329080	-0.489983	-0.753170	0.592033	0.713365	-0.486414	-136.582842	-78.863980	61.431572			
14931	9.313041	-0.805042	-0.944546	0.332544	0.510178	-0.437090	-137.629769	-78.562351	62.353354			
14932	9.116134	-1.169350	-1.219033	0.032018	0.183746	-0.543261	-138.492763	-78.251838	63.338236			
14933	8.660970	-1.410697	-1.905833	-0.057418	-0.553474	-0.850281	-139.203241	-77.892007	64.500982			
14934	9.264017	-1.408808	-2.151040	0.080072	-0.599489	-0.217517	-139.853248	-77.412671	65.930690			
14935	10.188192	-0.592135	-1.388130	0.737997	0.609086	0.442086	-140.389512	-76.941271	67.252413			
14936	9.354737	0.046579	-0.660552	1.052982	1.382480	-0.596993	-141.193055	-76.520349	68.397378			
14937	8.836120	-0.112482	-0.066389	0.665503	1.864266	-1.200195	-142.582668	-76.018855	69.539053			
14938	8.745648	-0.884723	-0.136587	-0.068497	1.656476	-1.179128	-144.267940	-75.504404	70.560601			
14939	8.005435	-1.985481	-0.982518	-0.957264	0.497576	-1.576813	-145.957081	-75.007944	71.517286			
14940	7.754770	-2.902094	-1.529249	-1.733936	-0.201683	-1.575641	-147.464358	-74.447448	72.516619			
14941	8.156247	-2.984433	-1.551418	-1.793425	-0.031365	-1.174415	-148.365902	-73.795465	73.259333			
14942	8.708101	-2.157100	-1.132701	-1.061521	0.808163	-0.869182	-148.601116	-73.103205	73.813410			
14943	9.126500	-0.941411	-0.719836	0.043934	1.704407	-0.768934	-148.282447	-72.383477	74.330936			
14944	9.786763	0.330414	-0.286838	1.203446	2.735538	-0.483208	-147.485446	-71.656512	74.809876			
14945	10.458852	1.438677	-0.343494	2.332038	3.326771	-0.062429	-146.339536	-71.037293	75.233649			
14946	10.810872	2.485200	-1.316396	3.675975	3.020696	0.293961	-145.008905	-70.580664	75.530737			
14947	10.858101	4.021342	-2.443660	5.528459	2.666872	0.304786	-144.114926	-70.301115	75.719150			
14948	10.567439	4.200003	-2.557175	5.721888	2.623565	-0.003171	-144.170461	-70.045536	75.833601			
14949	10.659799	2.077571	-2.182681	3.633570	2.308831	0.394081	-144.788586	-69.770112	75.869611			
14950	10.564511	0.927295	-1.060207	2.136736	2.917824	0.212950	-145.804663	-69.564198	76.076375			
14951	10.283478	0.267546	0.007456	1.106037	3.587541	-0.235228	-147.145584	-69.406076	76.337045			
14952	10.291468	-0.469312	0.531505	0.233601	3.871297	-0.253638	-148.862709	-69.296659	76.568780			
14953	10.510615	-1.406128	0.788172	-0.711416	3.963941	0.028667	-150.825926	-69.314779	76.599181			
14954	10.724807	-2.810353	1.056927	-2.098716	4.005014	0.365295	-152.740145	-69.455579	76.392673			
14955	10.809383	-4.662020	1.201344	-3.897007	3.863948	0.670771	-153.934694	-69.619337	76.047658			
14956	10.744689	-6.003887	0.691231	-5.075709	3.176792	0.963116	-153.761374	-69.512846	75.923438			
14957	11.977060	-3.567628	0.729167	-2.601799	4.069697	1.736242	-152.316164	-69.185454	76.038959			
14958	12.902234	-1.344033	0.455515	-0.302630	4.603275	2.319903	-150.502907	-68.819872	76.204675			
14959	13.389941	-0.551140	0.470818	0.494795	5.005126	2.617911	-148.598675	-68.604791	76.194464			
14960	14.236546	-0.288051	0.492821	0.815667	5.407630	3.343957	-146.821115	-68.543145	76.016246			
14961	15.584865	0.389873	0.593918	1.548364	6.152596	4.440057	-145.224034	-68.679089	75.577413			
14962	15.795462	1.320932	0.750294	2.403137	6.585527	4.423153	-143.870058	-69.042925	74.809031			
14963	14.925653	1.651873	1.288650	2.480378	6.737861	3.439127	-142.665474	-69.613266	73.599623			
14964	13.880185	0.310021	0.919049	1.343734	5.466329	2.911726	-141.795696	-70.280835	72.288141			
14965	13.496804	-2.024579	1.283074	-0.915309	4.739697	3.017033	-140.614240	-71.192658	70.407102			
14966	12.515143	-4.755720	3.514184	-4.231544	5.429198	2.195953	-138.989714	-72.425452	67.355459			
14967	10.695372	-9.290391	-0.500540	-7.290348	-0.228585	2.342520	-136.436116	-73.789828	63.664986			
14968	11.084162	-8.312534	-2.213532	-5.726661	-1.730381	2.878052	-132.224311	-74.943597	59.941424			
14969	12.662816	-4.132032	-1.318258	-1.767861	0.263079	3.451980	-127.538492	-75.949008	56.469904			
14970	12.821566	-2.058648	-1.504673	0.335868	0.409354	3.248918	-122.916325	-76.912886	52.996376			
14971	12.303417	-1.933594	-2.590120	0.839635	-0.947733	2.844781	-118.054833	-77.748179	49.318135			
14972	12.499151	-1.535985	-3.454760	1.646393	-1.833278	3.010965	-113.022019	-78.514739	45.920166			
14973	12.568995	-0.503520	-3.169673	2.584509	-1.409549	2.820924	-106.827481	-79.280380	41.540862			
14974	11.652513	0.088503	-2.378329	2.738612	-0.792075	1.733448	-99.760936	-79.980589	35.893221			
14975	10.677121	-0.678411	-3.077286	2.296795	-2.071212	0.881293	-92.555132	-80.545335	29.564111			
14976	10.257140	-1.376010	-3.565118	1.896938	-3.062998	0.523075	-85.445621	-80.981646	22.922751			
14977	10.019334	-1.568723	-3.696097	1.782881	-3.481900	0.247299	-78.522224	-81.283232	16.147810			
14978	10.157592	-1.156725	-3.434021	2.047205	-3.248842	0.264889	-71.463963	-81.468601	8.878284			
14979	9.783414	-0.692592	-3.027763	2.193634	-2.887228	-0.210071	-64.328872	-81.519878	1.037341			
14980	9.450098	-1.086284	-2.897689	1.693984	-3.145128	-0.532809	-57.892836	-81.456164	-6.425485			
14981	9.706124	-1.618050	-2.250582	0.924532	-2.983909	-0.214234	-51.303388	-81.288762	-13.967713			
14982	9.504745	-1.505936	-1.995355	0.842353	-2.880363	-0.454253	-44.561178	-81.044637	-21.197069			
14983	9.049920	-0.654066	-2.209703	1.597263	-2.867411	-1.069916	-38.286297	-80.765207	-27.493141			
14984	9.002736	1.230680	-2.317277	3.311723	-2.342706	-1.358376	-32.164802	-80.343452	-33.643625			
14985	8.005760	1.692642	-2.171690	3.499790	-2.082180	-2.390585	-27.373788	-79.957226	-38.835134			
14986	8.323519	1.533843	-2.781042	3.591869	-2.874571	-2.183710	-23.380921	-79.588867	-43.315317			
14987	7.881347	1.631332	-2.377845	3.417545	-2.547962	-2.583737	-19.972494	-79.185231	-47.272098			
14988	8.159204	1.651990	-2.694025	3.534887	-2.999862	-2.392256	-17.060109	-78.771521	-50.988001			
14989	7.833348	1.485005	-2.718789	3.281480	-3.175765	-2.734357	-14.787326	-78.342202	-54.291633			
14990	7.742914	0.915096	-3.136834	2.807245	-3.880080	-2.906727	-12.902143	-77.915850	-57.223231			
14991	7.429689	1.356003	-3.087240	3.086531	-3.749132	-3.256348	-11.250609	-77.498675	-59.932881			
14992	7.238102	1.044028	-3.258165	2.741097	-4.088000	-3.498520	-10.221086	-77.090427	-62.136322			
14993	7.039412	0.502790	-3.338802	2.142620	-4.390188	-3.722717	-9.621325	-76.682215	-63.946875			
14994	6.750949	-0.225090	-3.270305	1.313585	-4.554350	-3.994421	-9.573073	-76.264069	-65.243960			
14995	6.349966	-1.140100	-3.168304	0.286855	-4.669624	-4.356345	-9.921244	-75.835772	-66.153655			
14996	6.177398	-2.117903	-2.809321	-0.833530	-4.557831	-4.421121	-10.516047	-75.433465	-66.821708			
14997	5.799828	-3.018283	-2.381373	-1.901928	-4.265051	-4.654136	-11.233074	-75.079971	-67.314155			
14998	5.475731	-3.716478	-2.112110	-2.722916	-4.049068	-4.868267	-11.933847	-74.817414	-67.700880			
14999	5.099356	-4.394201	-2.160185	-3.465397	-4.089478	-5.203383	-12.574125	-74.661233	-67.947559			
15000	4.642821	-4.530517	-1.689441	-3.753116	-3.507425	-5.506014	-12.942360	-74.686414	-68.177781			
15001	4.583636	-4.533886	-1.353463	-3.834551	-3.132273	-5.467273	-13.167983	-74.866384	-68.303243			
15002	4.931354	-4.276728	-0.378082	-3.696892	-2.203437	-4.890362	-13.344858	-75.204713	-68.324966			
15003	5.858369	-3.809066	0.432090	-3.270305	-1.526238	-3.813389	-13.655843	-75.673137	-68.166981			
15004	6.734946	-3.363749	1.158055	-2.858757	-0.900144	-2.810385	-14.110728	-76.208781	-67.787046			
15005	7.795514	-2.438719	2.466390	-2.036056	0.337356	-1.533763	-14.512603	-76.763957	-67.380879			
15006	9.189116	-1.324981	5.019651	-1.166391	2.758508	0.307674	-14.922750	-77.274991	-67.021143			
15007	11.333566	-1.018512	7.794484	-1.035014	5.146559	2.941991	-15.588168	-77.631270	-66.758948			
15008	13.358778	-1.932852	9.312955	-1.874332	6.185668	5.258684	-16.583747	-77.786929	-66.676851			
15009	15.513224	-2.262676	10.590291	-1.975569	7.052599	7.631132	-17.672295	-77.791134	-67.018984			
15010	15.805276	-2.547954	12.119620	-2.101818	8.506690	8.253738	-18.089524	-77.605700	-68.210719			
15011	13.227218	-2.196228	12.275571	-1.726404	9.188185	5.777880	-17.427329	-77.375394	-70.151189			
15012	9.919892	-1.018710	10.926333	-0.637367	8.573271	2.225557	-15.926494	-77.279921	-72.247804			
15013	7.914574	0.310099	8.781064	0.568021	6.942242	-0.256262	-14.076867	-77.523266	-73.756360			
15014	8.379586	1.483603	6.652936	1.698240	4.873548	-0.323652	-12.266310	-78.034931	-74.645634			
15015	9.543268	1.822847	4.843972	2.048110	2.988475	0.421222	-10.770646	-78.549345	-75.265910			
15016	9.801650	1.506943	2.825887	1.783912	1.027871	0.291236	-9.641368	-78.907087	-75.819448			
15017	9.569158	1.334979	1.243159	1.667376	-0.429283	-0.224594	-8.653084	-79.246615	-76.414843			
15018	10.402890	1.611500	0.061910	2.036512	-1.634778	0.385354	-7.690148	-79.752454	-76.896859			
15019	11.895801	1.482172	-1.748474	2.099162	-3.542254	1.580596	-6.767911	-80.597896	-77.161864			
15020	12.452664	1.121254	-4.218325	2.009237	-5.881084	1.827327	-5.434229	-81.690703	-77.439919			
15021	11.298105	0.665097	-5.988613	1.788821	-7.267530	0.576157	-3.510826	-82.906812	-77.918740			
15022	12.879946	-0.339390	-6.826645	1.084151	-8.163056	2.220133	-2.353112	-84.171406	-77.365368			
15023	18.078970	0.472123	-4.545260	1.743463	-5.965033	7.768408	-4.998713	-85.252489	-73.261216			
15024	23.262713	5.207742	4.551004	4.891447	3.687452	13.670353	-13.721940	-85.326850	-65.445161			
15025	21.245506	6.390636	11.824455	5.499090	10.764984	12.225209	-19.629153	-83.898802	-64.811800			
15026	11.553247	0.894541	10.261013	1.250303	8.802436	2.846436	-22.607518	-81.121781	-70.240249			
15027	0.136711	-15.353936	-2.501587	-15.493490	-1.064489	-9.003769	-25.752551	-79.563609	-72.620629			
15028	-1.473536	-11.624587	-11.910448	-13.267777	-9.840259	-12.320949	-24.235613	-79.693145	-73.312049			
15029	-0.316005	-6.942179	-17.280356	-8.662343	-16.272639	-12.445394	-18.259430	-80.589292	-75.392148			
15030	-5.894249	-9.936448	-21.479383	-10.490630	-20.287276	-18.337367	-4.217213	-82.958355	-84.062571			
15031	-3.151763	-2.298204	-14.141794	-1.571589	-13.855024	-14.362289	13.526204	-85.522192	-99.372140			
15032	6.603595	1.026496	-6.507490	1.523930	-6.798014	-3.610881	23.371367	-86.915279	-107.074683			
15033	28.337798	8.161314	16.015068	6.524497	15.823218	19.047540	-51.411847	-88.047767	-32.180147			
15034	17.561496	-3.671351	-2.189684	-2.807489	-2.711230	7.834723	-78.820519	-87.321535	-7.690281			
15035	14.204455	-0.608696	-0.142129	0.027367	-0.268838	4.402934	-78.042400	-87.522878	-11.410042			
15036	8.534744	-1.512711	-1.252928	-1.147549	-1.324264	-1.231935	-77.936980	-87.345226	-13.455644			
15037	7.293463	-1.069582	-1.005047	-0.761060	-1.021445	-2.482905	-89.369136	-87.312357	-2.437530			
15038	7.769596	-0.913434	-2.124206	-0.576286	-2.057762	-1.993145	-106.279626	-87.002987	15.809764			
15039	8.985490	0.161570	-2.748493	0.677351	-2.527374	-0.786758	-119.793370	-86.308703	32.027956			
15040	10.310080	1.905701	-4.059746	2.765465	-3.493069	0.509564	-123.819265	-85.523193	39.186859			
15041	10.379793	4.042596	-1.962387	4.882864	-0.931282	0.346881	-124.932512	-84.965102	42.605125			
15042	10.620426	5.391692	-1.691258	6.223442	-0.283899	0.478631	-132.133527	-84.631421	49.558236			
15043	9.177715	1.069753	-1.518808	1.837921	-0.712028	-0.658646	-130.869391	-84.202357	47.192244			
15044	8.390774	-3.014698	-0.002047	-2.396514	0.367167	-1.232848	-132.857981	-83.769250	47.437043			
15045	9.144374	-2.140789	-0.697039	-1.420255	-0.039029	-0.503171	-138.809804	-83.373994	51.155780			
15046	9.255854	-3.594816	-1.366646	-2.871727	-0.580816	-0.227558	-141.500641	-83.151979	51.777851			
15047	9.074320	-3.619533	-0.812608	-2.937972	0.093236	-0.460512	-143.065276	-83.024270	51.797452			
15048	8.976145	-4.084627	-0.661573	-3.407794	0.338247	-0.540949	-144.135080	-82.834948	52.303312			
15049	8.712577	-3.925994	-0.496417	-3.256329	0.514148	-0.829325	-145.084742	-82.477684	53.947771			
15050	8.922156	-2.611369	-0.216259	-1.913242	0.802152	-0.748091	-145.757413	-81.970378	56.201311			
15051	9.195242	-1.631705	-0.152312	-0.903962	0.933955	-0.563442	-145.973176	-81.437545	58.263379			
15052	9.204312	-0.946886	-0.353563	-0.197669	0.809840	-0.590661	-145.754080	-80.971404	59.900488			
15053	9.021996	-0.533127	-0.797604	0.256645	0.432798	-0.753812	-145.353884	-80.535038	61.332498			
15054	9.137940	0.029790	-1.247950	0.908033	0.136873	-0.635752	-144.880884	-80.074469	62.734699			
15055	9.620916	0.609225	-1.477861	1.594966	0.163540	-0.192644	-144.258176	-79.595211	64.057931			
15056	9.785901	1.484474	-1.565385	2.523532	0.380449	-0.122332	-143.779250	-79.115127	65.473405			
15057	9.839131	3.724113	-2.427358	4.899368	0.161252	-0.193092	-145.677699	-78.495588	68.199057			
15058	10.607881	3.160680	-2.965726	4.527884	-0.193226	0.712185	-145.871642	-78.151201	68.617910			
15059	9.985279	1.462486	-1.707306	2.563681	0.602223	0.077925	-145.956312	-77.847000	68.644209			
15060	9.828764	0.588349	-1.281017	1.616975	0.852749	-0.053094	-146.398352	-77.511630	69.162363			
15061	9.579806	0.203543	-1.291958	1.228863	0.782045	-0.254391	-147.003541	-77.092179	70.030235			
15062	9.460783	-0.173854	-1.462689	0.893966	0.594973	-0.298364	-147.593524	-76.641120	70.910504			
15063	9.202321	-0.734437	-1.659223	0.378902	0.308482	-0.445941	-148.179384	-76.215210	71.609436			
15064	8.843541	-1.655659	-1.709353	-0.528785	0.051671	-0.670007	-148.816301	-75.798897	72.186112			
15065	8.729433	-2.449196	-1.699674	-1.314846	-0.058367	-0.682650	-149.703641	-75.326298	72.853089			
15066	8.809079	-2.856767	-1.674871	-1.723366	-0.008933	-0.560916	-150.694429	-74.829355	73.465574			
15067	8.806888	-2.871462	-1.153416	-1.874395	0.581448	-0.686648	-151.770457	-74.356973	73.980602			
15068	8.971139	-2.708475	-0.509171	-1.862009	1.370165	-0.717031	-153.023331	-73.904605	74.449923			
15069	9.198809	-2.387951	0.367152	-1.723180	2.424599	-0.779073	-154.400773	-73.508635	74.835139			
15070	9.322500	-2.289063	1.019070	-1.737140	3.191776	-0.869455	-155.755979	-73.196789	75.103071			
15071	9.254502	-2.542470	1.441302	-2.049440	3.624016	-1.046105	-156.809513	-72.931146	75.284423			
15072	8.830421	-2.913681	1.231133	-2.405020	3.325019	-1.378154	-157.242340	-72.580549	75.615849			
15073	8.817384	-2.046680	0.701665	-1.475426	2.982649	-1.365547	-156.744989	-72.034969	76.160366			
15074	9.519061	-0.391636	0.209687	0.275874	3.043611	-0.786659	-155.421278	-71.320343	76.811483			
15075	10.510422	0.739258	-0.529331	1.605915	3.004541	0.171619	-153.294748	-70.521886	77.426220			
15076	11.423442	1.699699	-1.016242	2.740666	3.274485	0.965900	-150.408159	-69.844701	77.912140			
15077	10.908426	3.094816	-0.853153	3.970392	3.891748	0.106067	-147.600887	-69.240815	78.524427			
15078	11.492239	7.038848	-3.439393	8.555027	3.377290	0.620172	-148.367217	-68.660165	80.345903			
15079	10.506450	5.003552	-1.704103	5.934970	3.958292	-0.462150	-147.734294	-68.697943	79.417833			
15080	10.849537	-0.177412	-0.691315	0.871253	3.216226	0.537088	-146.978782	-68.534461	77.963720			
15081	12.072887	0.212292	-0.102872	1.159745	4.301107	1.410757	-147.868840	-68.482813	77.882707			
15082	11.794440	-0.396845	-1.300831	1.007007	2.956650	1.641682	-148.193332	-68.487499	77.443006			
15083	12.231982	-0.535713	-0.463555	0.639679	3.805987	1.816092	-148.298731	-68.514372	77.188331			
15084	12.657529	-0.558043	0.149945	0.460224	4.485990	2.028385	-148.148261	-68.571271	76.997960			
15085	12.974805	-0.417674	1.015301	0.338614	5.386965	2.037069	-147.824509	-68.686679	76.773633			
15086	13.688284	-0.639605	1.196500	0.142540	5.698404	2.705997	-147.437049	-68.881684	76.447097			
15087	15.128233	-1.195094	0.945608	-0.146215	5.747541	4.263156	-146.848104	-69.212814	75.865388			
15088	16.622116	-1.936606	0.913583	-0.655466	5.896363	5.861515	-146.048759	-69.718344	74.957561			
15089	15.349251	-2.387306	1.072220	-1.185972	5.305449	4.778062	-145.120322	-70.478716	73.664971			
15090	13.597839	-3.327346	1.385081	-2.272697	4.576868	3.293614	-144.326540	-71.277611	72.155909			
15091	14.113515	-5.251311	3.004178	-4.469800	5.523597	3.799813	-143.542261	-72.274543	70.137496			
15092	12.575351	-8.800012	5.020559	-8.452046	5.927256	2.605485	-141.696217	-73.706455	66.474707			
15093	10.964138	-14.435505	2.150743	-13.126878	1.428758	2.791419	-138.464465	-75.050897	62.327271			
15094	12.505557	-11.487227	0.108518	-9.468879	0.150502	4.281397	-132.302487	-76.145505	57.261039			
15095	12.950096	-5.766613	-0.645571	-3.562351	0.356127	3.918077	-125.205404	-77.057552	52.004002			
15096	12.898850	-3.327542	-2.349090	-0.573678	-1.040855	3.661138	-118.510424	-77.809841	47.483570			
15097	13.106769	-2.970972	-3.599503	0.405208	-2.419885	3.881753	-112.214850	-78.544009	44.155923			
15098	13.581635	-2.120092	-4.218501	1.739341	-2.901080	4.162188	-105.156820	-79.258156	41.047709			
15099	13.489167	0.138479	-4.720086	4.240243	-2.588652	3.587531	-95.738187	-79.986452	35.679438			
15100	11.453785	1.845902	-2.614614	4.539713	-0.254282	1.176282	-85.604569	-80.676278	28.613100			
15101	11.035249	3.005534	-4.700667	6.587977	-1.541194	0.537562	-80.117193	-81.472773	23.706600			
15102	10.652918	-0.394900	-5.049762	3.935353	-3.930360	0.589140	-70.330689	-81.468109	13.630780			
15103	9.949362	-1.851087	-2.924554	1.506566	-3.236662	0.097805	-61.265746	-81.331241	3.805443			
15104	9.445734	-0.835856	-2.554242	2.061437	-2.601563	-0.570185	-55.628458	-81.246842	-3.099635			
15105	11.235893	-1.127833	-3.055076	2.291082	-3.406054	1.141556	-50.171441	-80.938840	-10.152409			
15106	10.198950	-1.863962	-2.296587	1.093596	-3.328640	0.211556	-43.019205	-80.232622	-18.566111			
15107	9.424608	-1.401101	-1.659264	1.066927	-2.743717	-0.600257	-36.905865	-79.539997	-25.499099			
15108	9.790227	0.170351	-2.506452	2.869654	-3.012516	-0.601583	-31.790797	-78.851765	-31.556086			
15109	9.275587	-0.039893	-1.952039	2.333614	-2.791685	-1.060247	-28.317325	-78.015859	-36.269669			
15110	10.012560	-0.976997	-1.268674	1.320938	-2.891217	-0.184217	-25.532544	-77.086115	-40.421927			
15111	9.272511	-1.871571	-0.747198	0.168760	-2.881082	-0.773414	-22.833864	-76.112880	-44.258516			
15112	8.472956	-2.091827	-0.595102	-0.243397	-2.863306	-1.550672	-20.247843	-75.224404	-47.632840			
15113	7.797934	-1.531162	-0.978407	0.268244	-3.009188	-2.397796	-17.630232	-74.484630	-50.582446			
15114	7.288884	-0.424316	-1.150927	1.237385	-2.762064	-3.069460	-15.225046	-73.821226	-53.109944			
15115	7.028990	0.083416	-1.281567	1.686030	-2.740550	-3.432904	-13.157952	-73.139329	-55.341946			
15116	6.528334	0.163196	-1.358840	1.681187	-2.761656	-3.978464	-11.441980	-72.483101	-57.366080			
15117	6.516797	-0.004507	-1.708949	1.614336	-3.224666	-4.122012	-10.016491	-71.880302	-59.165413			
15118	6.840890	0.671128	-2.088564	2.384866	-3.495329	-4.007141	-8.925304	-71.303511	-60.841528			
15119	6.784618	0.518995	-1.812639	2.104744	-3.380011	-4.004875	-8.236555	-70.741073	-62.315513			
15120	6.734574	0.176737	-1.816772	1.734736	-3.568459	-4.073135	-7.794767	-70.258094	-63.565219			
15121	6.680009	-0.050516	-1.744978	1.447882	-3.633108	-4.122909	-7.545262	-69.794646	-64.672655			
15122	6.157320	-0.795361	-1.270099	0.492297	-3.332285	-4.445048	-7.485141	-69.374664	-65.589565			
15123	5.934018	-1.414078	-1.220613	-0.178133	-3.436216	-4.629775	-7.472698	-69.027559	-66.384886			
15124	5.634259	-2.062658	-0.879290	-0.958816	-3.236153	-4.774784	-7.309669	-68.762343	-67.103733			
15125	5.604135	-2.195975	-0.606207	-1.183080	-3.027958	-4.710938	-7.057916	-68.596623	-67.756720			
15126	5.563362	-2.279245	-0.541116	-1.307854	-2.984451	-4.731224	-6.708075	-68.502132	-68.391629			
15127	5.263757	-2.236534	-0.400511	-1.363467	-2.748103	-4.969293	-6.169988	-68.488326	-69.075022			
15128	4.821714	-1.973412	-0.337603	-1.205740	-2.471238	-5.374627	-5.530797	-68.582944	-69.762666			
15129	4.645151	-1.890990	-0.192103	-1.205579	-2.251883	-5.492303	-4.853662	-68.805881	-70.403624			
15130	4.672042	-1.778060	0.058598	-1.175481	-1.990894	-5.380147	-4.201714	-69.158118	-70.968657			
15131	4.918932	-1.653293	0.267897	-1.100978	-1.827277	-5.074564	-3.639216	-69.630842	-71.437125			
15132	5.296933	-1.470936	0.527991	-0.971141	-1.630859	-4.626467	-3.243329	-70.207740	-71.741700			
15133	5.700495	-1.234795	0.721722	-0.773412	-1.470919	-4.175390	-2.970466	-70.878792	-71.889597			
15134	6.233450	-0.803586	1.355622	-0.485579	-0.877188	-3.461817	-2.789758	-71.635173	-71.850232			
15135	7.269458	-0.242183	2.304516	-0.112711	-0.079073	-2.184154	-2.690410	-72.458375	-71.638019			
15136	9.039237	0.589713	3.459102	0.520249	0.822366	-0.165292	-2.810191	-73.301028	-71.260290			
15137	11.138341	0.974249	4.470271	0.785322	1.436169	2.116846	-3.261358	-74.041415	-70.823538			
15138	12.972273	0.505273	5.539827	0.209815	1.967494	4.162580	-3.883170	-74.597857	-70.516000			
15139	14.004879	-0.119676	6.877531	-0.626004	2.904401	5.504720	-4.408824	-74.933108	-70.548558			
15140	13.908074	-0.450931	8.606975	-1.334645	4.535361	5.851490	-4.783082	-75.061320	-70.830635			
15141	12.901733	-0.127199	10.425012	-1.463674	6.603886	5.333186	-4.977176	-75.064609	-71.272149			
15142	11.076521	0.371051	11.439473	-1.283383	8.138389	3.818440	-5.002858	-75.063210	-71.736309			
15143	9.755968	0.866249	10.964377	-0.766075	8.152846	2.397593	-4.817298	-75.244579	-72.109826			
15144	9.336541	1.100527	8.944265	-0.153458	6.456212	1.442316	-4.488751	-75.640075	-72.381656			
15145	9.392395	0.945224	6.814795	0.119123	4.473019	0.935755	-4.198528	-76.131078	-72.618318			
15146	9.464003	0.417028	5.050713	-0.036873	2.748273	0.564980	-4.081081	-76.597978	-72.843541			
15147	9.158195	-0.165071	3.903302	-0.397279	1.671416	-0.005365	-3.944961	-77.046621	-73.172819			
15148	8.736808	-0.212466	2.740004	-0.246998	0.720373	-0.685582	-3.608204	-77.562401	-73.694608			
15149	9.143066	-0.008389	1.542752	0.193377	-0.375848	-0.550059	-3.116019	-78.184048	-74.303035			
15150	10.035390	-0.162259	0.453187	0.278273	-1.519203	0.114742	-2.743592	-78.939766	-74.635456			
15151	10.791537	-0.751381	-1.435935	0.106257	-3.454394	0.538014	-2.559404	-79.892125	-74.489011			
15152	10.797215	-1.117429	-2.911600	0.057480	-4.784398	0.356338	-2.006945	-80.928301	-74.281349			
15153	9.925550	-0.556927	-2.935608	0.568677	-4.370356	-0.430889	-0.737604	-81.997674	-74.542309			
15154	10.750912	-0.155390	-2.998822	0.995037	-4.239270	0.465078	0.677848	-83.274690	-74.928301			
15155	15.821869	2.194075	-1.084706	2.852095	-2.000352	5.813179	-0.704648	-84.901321	-73.079931			
15156	23.956935	4.434128	1.425809	4.488990	0.886576	14.159330	-8.887301	-86.529413	-65.990737			
15157	28.355192	3.182540	6.350939	2.398064	5.481586	18.799397	-21.167508	-86.936105	-57.395789			
15158	24.675112	-3.552617	9.520942	-4.061103	7.442695	15.487949	-21.906403	-85.366751	-62.930761			
15159	12.310676	-20.205061	12.437225	-20.143390	10.308699	4.404179	-21.083007	-82.634717	-69.339525			
15160	-0.080053	-21.251200	-0.281337	-21.231621	-0.264167	-8.894105	-21.143432	-81.853794	-68.813251			
15161	0.066748	-5.692706	-4.031389	-5.651816	-4.084908	-9.992486	-20.780599	-81.783109	-68.027366			
15162	-2.707068	-4.639132	-18.303132	-4.207582	-17.963403	-14.654456	-16.522292	-82.533888	-70.842622			
15163	-9.539290	-6.267692	-24.008512	-4.549752	-23.228254	-21.896491	3.022176	-84.235321	-86.268524			
15164	-5.885604	-1.949237	-21.089078	0.939004	-20.629104	-17.336324	22.643111	-86.638555	-103.881229			
15165	5.890182	0.800441	-14.922355	3.517234	-14.734390	-4.482426	22.857424	-88.623685	-100.134498			
15166	29.593358	11.921917	10.252765	9.357116	12.856360	19.680027	-112.149532	-87.973775	38.162666			
15167	22.448202	7.369610	2.351089	7.073740	4.770203	12.345105	-124.741192	-87.847738	49.263324			
15168	11.499952	2.619889	0.892771	2.630173	1.775602	1.581918	-119.525100	-87.985779	41.924824			
15169	8.231359	1.904790	2.245418	1.643875	2.794798	-1.694113	-126.205070	-87.670437	46.625372			
15170	8.684281	0.667385	0.785659	0.783026	1.184682	-1.183544	-132.625443	-87.116472	51.457662			
15171	8.949077	-1.371551	-1.673215	-0.801744	-1.469377	-0.759274	-134.186895	-86.589829	52.559508			
15172	9.079990	-1.356443	-2.250178	-0.641440	-1.940631	-0.583903	-136.859429	-85.848256	56.317164			
15173	10.393681	-0.016339	-1.838732	0.757560	-1.082698	0.659138	-139.646004	-84.835835	61.346726			
15174	11.094601	0.934651	-1.894118	1.828376	-0.670367	1.311783	-140.134637	-84.028195	64.580934			
15175	9.544015	2.173346	-1.123906	2.815701	0.427303	-0.380723	-140.056722	-83.663095	66.618673			
15176	9.547181	3.990683	-1.718225	4.696269	0.461175	-0.444743	-145.162963	-83.409728	71.058628			
15177	8.694674	-1.265272	-1.514230	-0.465715	-0.844406	-0.949210	-142.901184	-83.370065	67.237254			
15178	8.613545	-2.396298	0.725270	-2.118850	1.088728	-1.164829	-146.273635	-83.312071	68.330062			
15179	9.988254	-1.771686	-0.344445	-1.254731	0.442824	0.249659	-150.652851	-83.086455	70.303074			
15180	10.235456	-2.994199	-0.417829	-2.480904	0.291422	0.563442	-152.569249	-83.195182	70.585862			
15181	8.813159	-3.602264	0.424972	-3.284381	0.930420	-0.914615	-153.979540	-83.179433	71.531718			
15182	8.741586	-3.839572	0.033697	-3.485736	0.521004	-0.939303	-155.139597	-82.861527	73.683753			
15183	9.143687	-2.238695	0.200517	-1.933479	0.967619	-0.648392	-155.593973	-82.382965	76.068846			
15184	9.273756	-1.331197	0.108871	-1.042360	1.081734	-0.564463	-155.537809	-81.885846	78.146440			
15185	9.202494	-0.839544	-0.500634	-0.440261	0.632732	-0.590596	-155.045844	-81.451731	79.709026			
15186	8.724738	-0.722065	-1.259374	-0.131873	-0.080409	-0.969370	-154.496100	-81.028602	81.106566			
15187	8.678364	-0.724879	-2.046228	0.128458	-0.766074	-0.900762	-154.002960	-80.541573	82.573149			
15188	8.932796	-0.472859	-2.818911	0.680434	-1.277784	-0.546209	-153.367488	-80.025181	83.971913			
15189	9.085944	0.057431	-3.420264	1.468938	-1.508031	-0.335236	-152.625106	-79.567308	85.262431			
15190	9.014447	1.357056	-3.431918	2.729567	-0.906363	-0.506450	-152.442526	-79.139852	86.664816			
15191	8.988094	2.263881	-3.226662	3.485081	-0.229944	-0.640859	-152.910870	-78.659291	87.842186			
15192	9.074787	0.948912	-3.022802	2.206657	-0.473676	-0.469493	-152.835963	-78.195511	87.888041			
15193	8.983963	-0.397037	-2.270099	0.663477	-0.301154	-0.566546	-153.350487	-77.694365	88.297786			
15194	9.241761	-0.772235	-2.118143	0.242462	-0.182803	-0.304787	-153.996217	-77.175322	88.811978			
15195	9.095789	-1.209750	-1.713168	-0.345188	0.047438	-0.484780	-154.530514	-76.692645	89.227134			
15196	9.223563	-1.204630	-1.276738	-0.542996	0.546295	-0.455263	-155.176780	-76.192284	89.687271			
15197	9.395055	-1.178217	-0.766075	-0.754785	1.134456	-0.411371	-155.985727	-75.687724	90.159662			
15198	9.374678	-1.252406	-0.455346	-0.977624	1.462491	-0.508653	-157.020489	-75.191757	90.649563			
15199	9.260902	-1.487304	-0.315072	-1.280238	1.557214	-0.646942	-158.247484	-74.706555	91.143321			
15200	9.083174	-1.646773	0.032675	-1.593427	1.850920	-0.910370	-159.590318	-74.259746	91.606953			
15201	8.864704	-1.747489	0.582126	-1.914356	2.334045	-1.276744	-160.864336	-73.873279	91.927507			
15202	8.838570	-1.770502	1.148969	-2.148086	2.911120	-1.476886	-161.938942	-73.516497	92.095086			
15203	8.869193	-1.859360	1.451092	-2.335720	3.240993	-1.550405	-162.530368	-73.128633	92.172733			
15204	9.378740	-1.388796	1.308427	-1.855905	3.483956	-1.093818	-162.286996	-72.610756	92.275521			
15205	10.184104	0.084499	0.734245	-0.307631	3.779915	-0.332253	-161.138347	-71.945200	92.499252			
15206	10.897019	1.608041	0.155930	1.268399	4.167127	0.305499	-159.163174	-71.174727	92.801688			
15207	11.900657	2.827926	-0.333878	2.505035	4.756613	1.179442	-156.387890	-70.521769	93.045769			
15208	11.936024	3.091597	-0.666672	2.819314	4.851843	1.186231	-153.221164	-70.128202	93.241156			
15209	11.526801	4.007162	-1.829076	4.134384	4.438038	0.933266	-150.818855	-70.007887	93.730430			
15210	10.630281	6.646896	-0.983909	5.851582	6.301009	-0.636214	-150.817940	-70.030484	94.387769			
15211	9.805220	2.675213	-0.214439	2.119199	4.568089	-0.981692	-151.373376	-69.842459	93.947574			
15212	11.142394	-0.359282	-0.296616	-0.416896	3.432011	0.790018	-153.120503	-69.667455	93.937169			
15213	11.599506	-0.254358	0.039292	-0.511491	3.915292	1.097105	-155.158095	-69.862858	93.807228			
15214	11.686914	-1.384615	-0.047322	-1.455843	3.338850	1.378198	-156.905824	-70.193185	93.307177			
15215	12.274940	-2.081845	0.677356	-2.384568	3.830223	1.810996	-158.126549	-70.688728	92.643774			
15216	11.719831	-3.071872	2.097790	-3.819338	4.458058	0.991466	-158.737871	-71.072661	92.189917			
15217	12.199190	-3.614543	1.886560	-4.212006	4.197427	1.592777	-158.372255	-71.249103	92.045865			
15218	13.382613	-2.150398	1.565421	-2.749642	4.797509	2.660962	-157.148118	-71.378713	91.896982			
15219	14.694396	-1.526235	1.164637	-2.014896	5.040710	3.976503	-155.617014	-71.589569	91.491266			
15220	14.817997	-1.561992	0.842954	-1.863974	4.688310	4.232491	-154.106672	-72.003345	90.732941			
15221	14.793008	-1.770737	1.949549	-2.468944	5.385616	3.995468	-152.735833	-72.694668	89.528690			
15222	13.847261	-3.388632	3.695020	-4.578515	5.721101	2.961602	-151.229346	-73.736262	87.420449			
15223	11.861174	-7.351662	1.973377	-7.249587	1.846070	2.131359	-149.163967	-75.010125	84.389968			
15224	12.502718	-10.448927	0.049955	-9.053765	-1.160264	3.684459	-145.349390	-76.364936	80.416152			
15225	13.046849	-8.362186	-1.041122	-6.471508	-1.523391	4.223229	-139.995508	-77.616415	76.003940			
15226	14.005760	-6.120841	-2.294220	-3.616406	-1.922350	5.090157	-134.411118	-78.752684	71.678731			
15227	14.125753	-5.096120	-3.490450	-1.908683	-2.917233	5.204583	-128.595568	-79.828975	67.386288			
15228	13.802458	-3.349554	-3.990309	0.072064	-2.947940	4.642093	-122.549627	-80.779869	63.438261			
15229	13.669411	-0.719512	-3.443144	2.237500	-1.433860	4.049391	-115.842518	-81.599026	59.391108			
15230	13.587909	0.998994	-3.354839	3.764918	-0.579326	3.691818	-108.728204	-82.337839	55.015025			
15231	13.040118	1.156470	-3.608766	4.130956	-0.860784	3.094548	-99.897318	-83.062901	48.524040			
15232	11.988263	0.873158	-3.577506	3.931478	-1.247864	2.030543	-89.357758	-83.676933	39.595534			
15233	11.643408	0.835290	-3.884349	4.171262	-1.715361	1.633212	-78.096685	-84.101924	28.932858			
15234	11.438078	0.783153	-3.809028	4.115075	-1.937356	1.379201	-67.467974	-84.301695	17.566365			
15235	12.086445	-0.670924	-3.878062	3.145625	-3.215581	2.075343	-53.396445	-83.987326	2.233903			
15236	9.766909	0.384590	-1.608341	2.353972	-1.113877	-0.255592	-41.794639	-83.348100	-10.845788			
15237	11.188825	0.615282	-2.508682	3.262849	-2.020964	1.009639	-33.493095	-82.779191	-20.957545			
15238	11.164578	0.297288	-1.927855	2.693554	-2.069301	0.999538	-25.550328	-81.557109	-30.316308			
15239	9.183603	-0.198110	-0.619919	1.374045	-1.432243	-0.822877	-19.463715	-80.272472	-37.252949			
15240	9.187513	0.983138	-1.584818	2.916374	-1.814506	-1.089901	-14.836910	-79.309034	-42.220197			
15241	9.129518	2.094159	-1.760475	3.950970	-1.554008	-1.280160	-11.522658	-78.349349	-46.027145			
15242	8.594935	1.383195	-1.976002	3.414136	-2.237762	-1.873964	-9.273195	-77.282087	-48.879199			
15243	8.672024	2.754959	-1.678946	4.466332	-1.487911	-1.847403	-7.886726	-76.175963	-51.323746			
15244	8.083654	1.033088	-1.797079	2.992628	-2.577088	-2.461410	-7.462783	-74.989154	-53.013216			
15245	7.960539	0.320534	-1.562508	2.262455	-2.882830	-2.568200	-7.185005	-73.968739	-54.429543			
15246	7.940333	0.060048	-1.791584	2.140880	-3.347639	-2.708460	-7.113655	-72.971533	-55.645698			
15247	7.656635	-0.881555	-1.749636	1.236688	-3.811015	-3.000370	-7.324977	-71.993635	-56.682789			
15248	7.069134	-1.738006	-1.525308	0.262782	-3.947556	-3.514527	-7.723751	-71.071795	-57.539529			
15249	6.596629	-2.543107	-1.501276	-0.578355	-4.207598	-3.964787	-8.230015	-70.215819	-58.222587			
15250	5.846189	-3.203358	-1.526290	-1.330710	-4.322520	-4.682988	-8.664253	-69.456952	-58.789389			
15251	5.623544	-3.443550	-1.775883	-1.532891	-4.591195	-4.995319	-9.011887	-68.783549	-59.321427			
15252	5.274813	-3.718348	-1.700159	-1.904539	-4.538821	-5.305804	-9.098791	-68.214998	-59.873609			
15253	5.001128	-3.383862	-1.422196	-1.757888	-4.101976	-5.503632	-8.907694	-67.782388	-60.493681			
15254	4.757404	-3.008795	-0.989984	-1.609914	-3.525601	-5.612206	-8.476480	-67.501760	-61.178547			
15255	4.594233	-2.588425	-0.925434	-1.286432	-3.279653	-5.781279	-7.863562	-67.328906	-61.911258			
15256	4.148469	-2.247594	-0.888531	-1.077344	-2.988615	-6.212907	-7.164403	-67.225801	-62.614891			
15257	3.685269	-1.880856	-0.613477	-0.915979	-2.470624	-6.564279	-6.440424	-67.223856	-63.226996			
15258	3.530350	-1.526339	-0.477386	-0.666473	-2.178598	-6.677326	-5.806540	-67.292097	-63.773265			
15259	3.370363	-1.709834	-0.511135	-0.865567	-2.217871	-6.833431	-5.320258	-67.468610	-64.151337			
15260	3.339409	-2.065049	-0.606982	-1.179012	-2.412852	-6.884791	-4.886774	-67.787043	-64.304504			
15261	3.888190	-1.467577	-0.348525	-0.621237	-2.147784	-6.292130	-4.513340	-68.248215	-64.299418			
15262	4.332040	-1.402618	-0.364938	-0.489023	-2.262466	-5.874529	-4.313265	-68.836089	-64.001587			
15263	4.979871	-0.502896	0.179742	0.255366	-1.619633	-5.080289	-4.242402	-69.572435	-63.440540			
15264	5.921563	0.158177	0.990227	0.711059	-0.882636	-3.914798	-4.445733	-70.413764	-62.521661			
15265	7.183083	1.318796	2.203905	1.497516	0.368418	-2.341869	-4.958851	-71.337386	-61.306347			
15266	9.391496	2.016466	3.107484	2.091962	0.978463	0.015134	-5.986548	-72.268913	-59.789654			
15267	12.250012	1.826735	4.414300	1.828224	1.484035	3.123205	-7.500313	-73.061628	-58.214133			
15268	14.721521	1.003909	6.103838	0.838889	2.203763	5.980482	-9.380764	-73.541501	-57.060061			
15269	16.066811	-0.358374	8.511245	-0.967077	3.624853	7.981470	-11.301500	-73.689513	-56.550980			
15270	16.298591	-0.154827	11.853446	-1.678313	6.768996	9.095705	-12.736078	-73.674284	-56.792798			
15271	14.370341	0.205907	14.074971	-2.083484	9.457459	7.818624	-13.508408	-73.667290	-57.301844			
15272	11.439869	0.979039	14.333057	-1.725941	10.711731	5.004367	-13.473713	-73.854200	-57.742365			
15273	9.925544	2.075207	11.668940	-0.154682	9.060123	2.712290	-13.089915	-74.366396	-57.803963			
15274	9.625793	2.261027	8.422755	0.857118	6.319727	1.502566	-13.073037	-75.012366	-57.427848			
15275	9.249702	0.991208	6.205332	0.239399	4.046492	0.609077	-13.628868	-75.560069	-56.837701			
15276	8.835917	-1.013047	3.771724	-0.949159	1.316503	-0.289521	-14.568843	-76.082258	-56.102485			
15277	9.317513	-2.261563	2.158083	-1.564486	-0.581073	-0.127561	-15.736336	-76.666463	-55.131131			
15278	9.914437	-3.596816	0.201469	-2.155075	-2.816657	0.121790	-17.296966	-77.445778	-53.666618			
15279	11.089649	-5.180527	-1.987015	-2.847338	-5.409113	0.976050	-19.137893	-78.466211	-51.697136			
15280	10.426253	-5.516442	-3.675168	-2.747407	-6.818265	0.117325	-20.130424	-79.625607	-50.118605			
15281	8.879099	-3.477658	-3.680564	-1.033395	-5.770478	-1.439487	-20.225803	-81.018275	-48.850588			
15282	12.099125	-1.931834	-4.807300	1.116653	-6.375103	1.647061	-23.482318	-83.012647	-43.901375			
15283	22.944078	1.932750	-1.923085	4.445137	-2.481879	12.723227	-35.327864	-84.733022	-30.284030			
15284	30.594222	6.565488	6.798227	5.688775	7.646803	20.756574	-43.332546	-84.901000	-22.892071			
15285	25.370576	3.874508	12.579468	1.331158	11.859978	16.153816	-37.346131	-83.430642	-33.911821			
15286	14.152809	-7.140880	10.949224	-8.123569	7.332434	6.036443	-32.358587	-80.360425	-46.452861			
15287	-1.765330	-22.608106	-3.135845	-21.847127	-6.831721	-9.905003	-31.565270	-79.240910	-49.930561			
15288	-1.492282	-6.057308	-7.256822	-5.025408	-7.882921	-11.856952	-29.890897	-79.571948	-50.154352			
15289	-2.485939	-2.284473	-15.078021	0.178911	-14.772027	-14.338121	-28.525432	-80.566530	-49.911085			
15290	-4.016846	-4.077626	-17.249950	-0.308811	-17.124779	-15.876602	-19.901423	-82.203848	-54.020569			
15291	-3.157057	-1.939420	-14.332087	2.435917	-13.832204	-14.472873	-10.892026	-84.541258	-58.316902			
15292	6.906369	1.209898	-15.558207	7.340597	-14.321758	-4.145051	-26.436008	-86.198082	-39.760400			
15293	25.557870	13.231980	11.391610	8.781150	15.387305	15.563585	-62.910997	-85.474288	-0.490088			
15294	19.282531	4.739254	-0.087589	5.775757	2.023168	9.077298	-69.269919	-85.700659	4.121330			
15295	11.891569	0.161044	-1.878202	1.793432	-1.616222	1.982799	-68.965481	-85.622362	1.157182			
15296	7.536862	-0.960173	-2.111046	0.441561	-2.284232	-2.278150	-74.835631	-85.637503	5.023496			
15297	8.135955	0.086596	-0.725155	0.935070	-0.545759	-1.716145	-85.871067	-85.590308	14.976077			
15298	8.785717	-0.594091	-1.511537	0.582059	-1.394437	-1.006878	-94.519549	-85.408498	23.498574			
15299	8.531321	-0.781478	-1.889968	0.522924	-1.715631	-1.225007	-101.032203	-85.059460	30.878005			
15300	9.158083	-0.367747	-1.679759	0.928289	-1.229369	-0.622888	-106.880436	-84.550928	38.104212			
15301	9.595799	0.072772	-1.691385	1.422974	-0.917148	-0.216979	-110.643493	-84.022825	43.207187			
15302	9.180575	0.648883	-1.098704	1.730744	-0.071997	-0.707200	-112.031745	-83.639876	45.258232			
15303	8.478415	-0.090337	-0.285324	0.690444	0.408717	-1.367047	-115.778604	-83.251899	48.299724			
15304	9.089164	-2.456022	-0.768804	-1.276933	-0.769375	-0.484685	-120.426898	-82.858497	51.389499			
15305	9.531540	-3.092425	-0.678683	-1.924249	-0.713161	0.018894	-124.728394	-82.543408	53.711116			
15306	9.396421	-3.341495	-0.804784	-2.194438	-0.766139	-0.081239	-128.176536	-82.315845	55.093101			
15307	9.234082	-3.801411	-1.066920	-2.629246	-1.026353	-0.174768	-130.339987	-82.173297	55.620501			
15308	8.725607	-3.860285	-0.800236	-2.834632	-0.745109	-0.697449	-131.717934	-82.025305	56.230963			
15309	8.549761	-3.324685	-0.715040	-2.363965	-0.491300	-0.933874	-133.297382	-81.707028	58.092046			
15310	9.235180	-2.050111	-0.228603	-1.210454	0.431246	-0.437599	-134.770618	-81.229268	60.729610			
15311	9.825478	-0.752873	-0.113991	0.040045	1.039944	-0.012885	-135.596339	-80.735654	63.078137			
15312	9.729828	-0.191665	-0.435518	0.657230	0.970726	-0.142056	-135.919143	-80.333161	65.009812			
15313	9.376265	-0.061167	-1.018671	0.949342	0.497505	-0.442180	-136.070744	-79.949899	66.771622			
15314	9.239768	-0.037251	-1.363770	1.094863	0.255350	-0.540694	-136.363078	-79.531165	68.657767			
15315	9.297999	-0.215276	-1.892399	1.152422	-0.181312	-0.393645	-136.813691	-79.066794	70.661625			
15316	9.289975	0.120981	-2.240408	1.616621	-0.248571	-0.396684	-137.406312	-78.565593	72.687016			
15317	9.636275	1.554748	-2.559044	3.059317	0.260630	-0.200473	-138.932687	-77.992588	74.829486			
15318	9.883032	0.339372	-2.493505	1.936669	-0.035757	0.200033	-139.747898	-77.570647	75.634618			
15319	9.373955	-0.617733	-1.705383	0.692218	0.224792	-0.292664	-140.619470	-77.171105	76.362607			
15320	9.309096	-0.862962	-1.551287	0.385868	0.319564	-0.349132	-141.549939	-76.715030	77.231754			
15321	9.378444	-1.100928	-1.562150	0.165509	0.308550	-0.247941	-142.349471	-76.246706	78.034006			
15322	9.274056	-1.467410	-1.553447	-0.186351	0.221456	-0.300051	-143.092892	-75.781377	78.810941			
15323	9.224047	-1.630560	-1.541701	-0.354157	0.233501	-0.329117	-143.788370	-75.310906	79.561854			
15324	9.267248	-1.786536	-1.492516	-0.528406	0.304376	-0.277031	-144.470867	-74.831156	80.312176			
15325	9.330440	-1.891652	-1.438975	-0.659301	0.407665	-0.215572	-145.128688	-74.337965	81.077688			
15326	9.396383	-1.884985	-1.344190	-0.709033	0.594474	-0.179656	-145.714369	-73.842720	81.848194			
15327	9.366479	-1.722449	-1.148074	-0.668337	0.906422	-0.286566	-146.205985	-73.352325	82.593587			
15328	9.375041	-1.568542	-0.868327	-0.674295	1.295488	-0.380183	-146.705770	-72.852467	83.346297			
15329	9.335270	-1.394692	-0.546876	-0.687776	1.714738	-0.540281	-147.248130	-72.347254	84.069532			
15330	9.182924	-1.174941	-0.307148	-0.629754	2.047754	-0.801006	-147.821430	-71.842995	84.722994			
15331	9.085599	-0.978872	-0.153825	-0.550230	2.311951	-0.987639	-148.345487	-71.330231	85.272943			
15332	9.021166	-0.725788	-0.137638	-0.351685	2.491658	-1.118175	-148.681294	-70.821762	85.675237			
15333	9.194468	-0.597945	-0.374647	-0.135911	2.481524	-0.932421	-148.725333	-70.304545	85.968359			
15334	9.493573	-0.511194	-0.869369	0.173626	2.285315	-0.544913	-148.383452	-69.790620	86.210560			
15335	9.746998	-0.278013	-1.285943	0.589467	2.214592	-0.248051	-147.580753	-69.287224	86.431653			
15336	9.735583	0.870176	-1.341830	1.625808	2.784990	-0.488603	-146.687179	-68.735109	86.817963			
15337	10.773734	2.659462	-1.908333	3.464342	3.660065	0.256498	-146.443596	-68.223387	87.263196			
15338	10.710944	1.880454	-1.428829	2.542437	3.734794	0.181769	-146.360189	-67.997826	87.136105			
15339	10.292769	0.139742	-0.659489	0.655238	3.403986	-0.097800	-146.477785	-67.827640	87.030980			
15340	10.171299	-0.531093	-0.269339	-0.122319	3.386156	-0.203899	-146.701196	-67.638993	87.114366			
15341	10.024706	-1.015846	-0.132827	-0.617375	3.242325	-0.291635	-146.932702	-67.509078	87.197095			
15342	9.862783	-1.361292	0.115918	-1.049994	3.241638	-0.456924	-147.257489	-67.419768	87.244735			
15343	10.601316	-1.479680	0.236974	-1.202816	3.590255	0.202139	-147.696117	-67.336896	87.211709			
15344	11.157968	-1.421405	0.395665	-1.213066	3.976798	0.646314	-147.985673	-67.342071	86.951354			
15345	11.499388	-1.323037	0.515178	-1.158858	4.257291	0.901053	-148.078998	-67.352513	86.637307			
15346	12.174890	-0.922412	0.966869	-0.985647	5.062102	1.296641	-147.917979	-67.370459	86.320509			
15347	12.306593	-0.398263	1.411236	-0.709785	5.694214	1.172507	-147.559994	-67.439604	85.989467			
15348	12.841462	0.260202	1.395686	-0.082171	6.152042	1.547958	-147.089920	-67.561868	85.571937			
15349	13.989947	-0.051093	1.477986	-0.322498	6.483675	2.667828	-146.524146	-67.757806	85.041584			
15350	15.378878	0.145628	1.179779	0.099675	6.777138	4.043067	-145.557754	-68.137019	84.156076			
15351	14.944975	0.139420	0.664877	0.413222	6.073632	3.853018	-144.372085	-68.661860	83.011921			
15352	14.339881	-0.418617	0.251758	0.193471	5.125827	3.587176	-143.179423	-69.262524	81.761759			
15353	14.117990	-1.443879	1.780889	-1.348839	5.689549	3.240234	-141.874498	-70.083016	80.062691			
15354	13.759905	-2.781888	4.333312	-3.596907	6.929695	2.632541	-140.339854	-71.259590	77.270038			
15355	12.674117	-5.591354	1.880068	-4.842177	3.124046	2.923827	-138.337161	-72.687216	73.723839			
15356	12.246417	-6.390324	-2.283308	-3.637137	-1.231744	3.650808	-134.912509	-74.046209	70.420742			
15357	12.992125	-1.806127	-2.904520	0.922915	-0.072706	3.589812	-131.104257	-75.216074	68.178639			
15358	13.622481	0.640087	-3.842219	3.687402	0.060297	3.867208	-127.331858	-76.285806	66.417893			
15359	13.410772	0.766914	-4.730863	4.334913	-0.867072	3.725077	-123.168656	-77.316873	64.475759			
15360	13.497652	0.776350	-3.894405	4.027105	-0.303288	3.664806	-118.568169	-78.450469	62.366690			
15361	13.259676	0.849317	-2.947993	3.613272	0.285592	3.305624	-113.453981	-79.560875	59.407423			
15362	11.998086	-0.326153	-2.987425	2.645990	-0.833818	2.240676	-107.762862	-80.597274	55.137088			
15363	11.298996	-0.563105	-3.186496	2.569394	-1.463897	1.562214	-102.100858	-81.544917	49.857096			
15364	11.254081	-0.736921	-3.524694	2.650619	-2.098552	1.509178	-95.505875	-82.319331	42.491769			
15365	10.953060	-1.694771	-3.363996	1.732522	-2.841705	1.281214	-87.989059	-82.935444	33.369906			
15366	11.168789	-1.859100	-3.840489	1.806949	-3.587679	1.447978	-79.501224	-83.392567	22.799755			
15367	11.588381	-0.406868	-2.693575	2.348766	-2.146638	1.657908	-67.335535	-83.498734	8.211141			
15368	9.893025	-1.371894	-2.144252	0.984330	-2.493386	0.044340	-58.448517	-83.469396	-3.242986			
15369	11.418553	-1.327333	-3.505916	1.721481	-3.913413	1.419031	-50.415724	-83.282074	-13.280542			
15370	10.475808	-0.182005	-1.641966	1.733654	-1.971567	0.462155	-40.872023	-82.757801	-24.431093			
15371	10.167358	-0.592104	-1.870469	1.380089	-2.586331	0.118378	-33.382046	-82.181442	-33.015228			
15372	10.292528	0.776893	-2.746028	2.939914	-3.088699	-0.020313	-26.629184	-81.390307	-40.784040			
15373	9.329249	0.647808	-2.608675	2.608624	-3.169425	-1.014708	-21.945886	-80.523622	-46.706298			
15374	9.341578	-0.161968	-2.530224	1.774454	-3.609363	-1.008519	-18.701324	-79.674480	-51.170013			
15375	9.272532	0.247667	-2.709041	2.150795	-3.820018	-1.201208	-16.236822	-78.760475	-54.885637			
15376	8.839401	0.058561	-2.431300	1.776874	-3.745907	-1.636073	-14.755994	-77.816664	-57.869104			
15377	8.163799	-1.491308	-2.601563	0.207903	-4.407136	-2.317914	-13.869723	-76.904019	-60.202654			
15378	7.797932	-1.920751	-2.536266	-0.328663	-4.500833	-2.701934	-13.246989	-76.062172	-62.013153			
15379	7.128062	-1.951263	-2.130040	-0.583140	-4.070618	-3.313237	-12.847386	-75.206207	-63.486085			
15380	6.841772	-2.247843	-2.522621	-0.863374	-4.520847	-3.726480	-12.646374	-74.361077	-64.776946			
15381	6.168807	-2.739001	-2.307885	-1.513131	-4.319213	-4.341222	-12.542178	-73.568284	-65.926123			
15382	6.193734	-3.399950	-2.510796	-2.168190	-4.690185	-4.378833	-12.412802	-72.857858	-66.950462			
15383	5.779729	-3.436129	-2.166244	-2.351388	-4.287931	-4.714726	-12.035074	-72.279961	-67.909222			
15384	5.716787	-3.093482	-1.976251	-2.083083	-4.055082	-4.775454	-11.482555	-71.847444	-68.820801			
15385	5.568836	-2.803059	-1.803800	-1.865779	-3.824184	-4.911964	-10.927995	-71.477227	-69.654966			
15386	5.112656	-2.577606	-1.258431	-1.794951	-3.160301	-5.212960	-10.341912	-71.170969	-70.440275			
15387	4.539968	-2.201929	-1.051684	-1.534520	-2.745198	-5.729193	-9.772778	-70.981411	-71.170185			
15388	4.109026	-1.982285	-0.832484	-1.410764	-2.377707	-6.089409	-9.328689	-70.909789	-71.791093			
15389	3.891256	-2.080985	-0.853029	-1.542163	-2.342796	-6.300843	-9.107301	-70.968327	-72.203445			
15390	4.022525	-2.199358	-1.030291	-1.634337	-2.557388	-6.225480	-9.087308	-71.138067	-72.392365			
15391	4.273349	-2.132133	-1.209784	-1.529347	-2.773010	-6.038761	-9.351218	-71.433063	-72.294099			
15392	4.718848	-2.194521	-1.345386	-1.534482	-3.015450	-5.635873	-10.020445	-71.828847	-71.780383			
15393	5.288291	-1.952728	-1.249869	-1.248797	-3.015308	-5.049340	-11.110899	-72.306157	-70.852514			
15394	6.046775	-1.551357	-0.872326	-0.808593	-2.760059	-4.203862	-12.651111	-72.822264	-69.434441			
15395	7.135041	-1.253309	0.335770	-0.515885	-1.796830	-2.805775	-14.640821	-73.316540	-67.519978			
15396	8.793213	-0.909563	1.959806	-0.134079	-0.544314	-0.775369	-17.023237	-73.761105	-65.209461			
15397	10.996652	-0.860029	3.380083	0.087862	0.378539	1.717179	-19.594871	-74.114256	-62.835225			
15398	13.443396	-1.659156	4.963812	-0.460614	1.311199	4.546386	-22.015791	-74.295543	-60.919318			
15399	15.000357	-3.744149	7.215169	-2.401098	2.928979	6.822848	-23.714491	-74.232982	-60.034034			
15400	15.035661	-4.478789	10.427843	-3.231417	5.975736	7.757615	-24.482201	-73.947243	-60.303438			
15401	13.151286	-3.741765	13.518811	-2.780314	9.487440	6.678821	-24.608530	-73.674218	-61.168093			
15402	10.825152	-2.229313	13.844541	-1.474173	10.483390	4.391177	-24.071807	-73.543938	-62.200073			
15403	9.062049	-0.450986	10.589934	0.165675	7.916262	1.666592	-22.747833	-73.789873	-62.922984			
15404	9.178005	2.425790	7.701546	2.998468	5.424368	0.723615	-21.138878	-74.371915	-63.273464			
15405	9.019170	3.436815	5.862876	3.927862	3.926706	0.019881	-19.786036	-74.961586	-63.557569			
15406	8.323642	2.747727	4.904372	3.127987	3.184911	-0.815106	-18.799743	-75.457913	-63.945082			
15407	7.807791	1.577008	3.753582	1.964338	2.105088	-1.491192	-18.174816	-75.948272	-64.312379			
15408	8.336060	0.792299	1.856986	1.415296	0.121672	-1.354119	-17.888004	-76.562299	-64.338777			
15409	9.691293	0.488554	-0.209682	1.465889	-2.097627	-0.450354	-17.960794	-77.355953	-63.755979			
15410	11.140294	0.485827	-1.749675	1.784175	-3.706797	0.698066	-18.178928	-78.397321	-62.568162			
15411	11.662479	0.814483	-2.872421	2.323544	-4.601748	1.066008	-18.316602	-79.599391	-61.028488			
15412	10.999472	1.667034	-3.645102	3.254694	-4.811746	0.350976	-18.411393	-80.860816	-59.365091			
15413	12.556051	1.580580	-4.070930	3.411198	-5.144730	1.960568	-20.510194	-82.143682	-55.966195			
15414	17.449846	0.512605	-3.588425	2.668904	-5.085870	7.058232	-26.851285	-83.379148	-48.955441			
15415	22.233415	1.049183	-0.112710	2.798417	-1.652424	12.207058	-33.950753	-83.611526	-42.320732			
15416	21.488897	1.729971	5.897379	2.322703	4.472768	11.961644	-38.709682	-83.143396	-40.661429			
15417	19.074521	-1.463936	7.241090	-0.585845	5.274301	9.940551	-40.759943	-82.049236	-44.164595			
15418	12.837826	-8.863511	9.231130	-7.783751	7.287478	4.842847	-38.989797	-80.162126	-51.696078			
15419	2.331549	-15.119930	2.457908	-14.707628	2.315541	-5.522248	-37.438497	-79.449729	-54.380508			
15420	1.813651	-1.950931	-1.125709	-1.782097	-1.355860	-7.982850	-35.606662	-79.323842	-55.285333			
15421	-0.629704	-1.811606	-9.509365	-2.005950	-9.303853	-11.688400	-32.319263	-79.597250	-57.592037			
15422	-2.259477	-5.308504	-17.801223	-5.108528	-17.448261	-14.233033	-24.851619	-81.001451	-62.125324			
15423	-4.392852	-11.599912	-21.679118	-9.568174	-22.057391	-16.528920	-4.789904	-83.353810	-76.338379			
15424	1.247185	-7.393954	-11.009076	-5.078838	-12.309359	-9.728288	18.680871	-85.045063	-94.894275			
15425	16.517694	1.875588	0.797594	1.536559	0.207571	6.756182	17.703979	-87.640152	-91.111794			
15426	20.798670	10.017545	4.000024	8.850463	6.247488	10.958265	-72.264210	-87.825072	-1.268426			
15427	17.002570	3.836802	0.669959	4.232881	1.722701	7.020872	-84.352620	-87.309136	8.791772			
15428	12.485045	4.243025	1.020111	4.457093	2.074329	2.465352	-90.297643	-87.387954	12.463317			
15429	9.435932	3.280324	1.674824	3.324024	2.390444	-0.547824	-95.195755	-87.141330	15.496357			
15430	8.801439	2.348748	0.491745	2.664951	1.015571	-1.147225	-101.428505	-86.910808	20.279056			
15431	8.603417	0.757930	-1.727477	1.456772	-1.406644	-1.240850	-106.934926	-86.527595	24.994652			
15432	8.938654	-0.142810	-3.064743	0.806036	-2.778275	-0.815849	-112.805850	-86.008463	30.995761			
15433	9.821142	-0.079196	-3.243895	1.013417	-2.804270	0.091405	-118.292482	-85.446368	37.301439			
15434	10.270933	-0.153414	-2.834874	0.986746	-2.270146	0.551829	-121.499826	-84.959356	41.671187			
15435	9.721786	-0.109744	-1.409943	0.803057	-0.797526	-0.054025	-123.248196	-84.587780	44.516728			
15436	9.105452	-0.828810	-0.725256	-0.048386	-0.235865	-0.644053	-125.609546	-84.253124	47.571587			
15437	8.686315	-0.881875	-0.061278	-0.266414	0.435693	-1.096476	-128.942138	-83.969013	50.925690			
15438	8.559080	-1.403395	0.040542	-0.816524	0.499515	-1.192247	-133.032315	-83.585924	54.246656			
15439	8.670703	-2.247385	-0.582326	-1.532729	-0.144854	-0.969659	-137.330711	-83.156682	57.188657			
15440	8.790138	-2.892286	-1.424144	-2.053406	-0.930167	-0.725527	-140.840574	-82.798292	59.122443			
15441	8.604581	-3.209572	-1.307460	-2.440482	-0.747695	-0.894546	-143.235267	-82.507825	60.078908			
15442	8.453050	-3.279834	-1.179938	-2.564623	-0.533231	-1.052491	-145.131691	-82.218725	60.907115			
15443	8.472062	-3.438557	-1.220288	-2.727721	-0.491098	-1.014598	-146.558699	-81.824440	61.959079			
15444	8.592192	-3.192892	-1.576705	-2.427137	-0.737322	-0.864427	-147.375835	-81.311642	63.384394			
15445	8.787729	-2.330938	-1.842224	-1.484035	-0.832498	-0.693739	-147.589958	-80.653016	65.188178			
15446	9.210251	-1.519896	-2.229306	-0.515689	-0.978603	-0.279406	-147.006324	-79.913150	67.027758			
15447	9.671367	-0.839167	-2.515243	0.360002	-0.969076	0.162004	-145.511154	-79.205205	68.679291			
15448	9.996856	-0.427924	-3.333279	1.147652	-1.483053	0.565621	-143.071936	-78.661786	69.932149			
15449	10.051453	1.472701	-2.776139	2.961604	-0.255961	0.290123	-140.377973	-78.433816	70.780517			
15450	9.617489	3.138399	-2.482156	4.451202	0.698382	-0.421118	-139.413306	-78.106657	72.184904			
15451	9.286662	2.845781	-2.778393	4.296605	0.443654	-0.680305	-139.229087	-77.640146	73.115035			
15452	9.423966	1.992435	-2.656398	3.486722	0.373048	-0.456396	-140.108929	-77.052996	73.927764			
15453	9.359934	0.568882	-2.333551	2.043351	0.193745	-0.370028	-141.563385	-76.367767	74.593930			
15454	9.373352	-0.863981	-2.261292	0.675458	-0.163029	-0.156842	-143.236416	-75.625147	75.231543			
15455	9.307007	-1.784481	-2.198165	-0.244283	-0.317002	-0.092876	-144.982658	-74.921299	75.953678			
15456	9.191474	-2.176895	-2.007605	-0.732214	-0.170392	-0.185346	-146.556584	-74.267744	76.633566			
15457	9.171096	-2.323462	-1.617974	-1.047343	0.264533	-0.275558	-147.972096	-73.624685	77.257522			
15458	9.296224	-2.383035	-1.170066	-1.282113	0.821766	-0.265597	-149.430309	-72.988926	77.908130			
15459	9.373914	-2.228823	-0.509518	-1.378075	1.626744	-0.402559	-150.970757	-72.378453	78.512074			
15460	9.415940	-1.943394	0.132901	-1.327019	2.438645	-0.606994	-152.668930	-71.801373	79.046785			
15461	9.510499	-1.564484	0.616606	-1.110692	3.138825	-0.746815	-154.531094	-71.262214	79.484554			
15462	9.725293	-1.152317	1.161162	-0.835535	3.920571	-0.802287	-156.290116	-70.821595	79.664261			
15463	9.860553	-1.068386	1.220880	-0.730676	4.134997	-0.744637	-157.661613	-70.435788	79.657349			
15464	10.108946	-1.327846	0.784371	-0.846665	3.847337	-0.376069	-158.137783	-70.037720	79.600272			
15465	10.085958	-1.128197	0.057116	-0.485547	3.275009	-0.218900	-157.415731	-69.533647	79.702843			
15466	10.212701	-0.082203	-0.609097	0.707549	2.991682	-0.054352	-155.563890	-68.917330	79.941851			
15467	10.678547	0.747861	-1.047846	1.686306	3.075874	0.354979	-152.704009	-68.304214	80.187032			
15468	11.139730	1.138447	-1.302058	2.217286	3.288113	0.739745	-149.013038	-67.877390	80.314748			
15469	11.078826	0.845695	-2.109548	2.334150	2.623777	0.937669	-144.837486	-67.703115	80.320856			
15470	10.401708	1.720658	-2.277214	3.240908	2.702565	0.113670	-141.168355	-67.888606	80.445532			
15471	9.151163	3.549038	-1.805652	4.513629	3.573892	-1.660876	-139.631070	-67.931316	81.182179			
15472	9.322702	3.226459	-1.782171	4.202811	3.597267	-1.452374	-139.724589	-67.782743	81.492102			
15473	9.966689	1.354823	-0.807601	2.137574	3.742286	-0.688615	-141.125618	-67.448964	81.437897			
15474	10.874784	-0.784509	-0.854023	0.373795	3.119341	0.662763	-143.425849	-67.049599	81.311261			
15475	12.002627	-1.256824	-1.073032	0.073946	3.246132	1.859942	-146.482919	-66.915005	81.461233			
15476	12.433321	-0.585487	-0.187751	0.274868	4.443301	1.812589	-149.384486	-67.002616	81.241301			
15477	12.802376	-0.807015	0.672033	-0.216362	5.246877	1.910239	-152.096828	-67.292380	80.805569			
15478	12.890206	-2.021423	1.661549	-1.617247	5.788310	1.887041	-154.175874	-67.885745	80.124662			
15479	12.265386	-4.700775	1.850841	-4.213043	5.065863	1.700338	-155.053725	-68.443772	79.560768			
15480	13.133165	-5.392598	0.778825	-4.508363	4.184107	3.006539	-153.822678	-68.722388	79.243518			
15481	14.034498	-2.370798	0.780876	-1.527031	5.081676	3.417602	-151.015735	-68.851235	78.894752			
15482	14.208370	-0.857376	0.527664	0.016068	5.225040	3.438325	-147.597996	-68.973011	78.535243			
15483	13.300676	-0.098866	0.687312	0.604329	5.189558	2.438519	-143.863319	-69.408386	77.870766			
15484	11.410116	-1.356147	-0.285386	-0.227803	3.082370	1.257761	-140.337995	-70.071376	76.885443			
15485	11.746371	-2.419598	-0.218758	-1.093781	2.606560	1.844232	-137.744005	-70.927385	75.452385			
15486	12.554934	-1.924841	2.240284	-1.632165	4.934421	1.991142	-136.535606	-72.178650	72.320112			
15487	12.563169	-3.912478	0.084807	-2.335278	2.088371	2.967427	-136.843261	-73.840431	67.653680			
15488	12.472700	-8.237742	0.941104	-6.656702	1.487904	3.520791	-136.865671	-75.582585	62.047318			
15489	10.669722	-16.664265	-5.758958	-13.092596	-7.299468	4.329374	-133.003122	-76.806411	58.030556			
15490	12.119293	-2.434260	-2.728406	-0.004264	-1.003812	2.805757	-126.010068	-77.568828	54.623112			
15491	13.126074	1.388280	-4.081017	4.379563	-1.117863	3.242625	-119.893134	-78.157968	51.812190			
15492	13.032888	0.439364	-4.032280	3.664391	-1.531613	3.246036	-113.729203	-79.020889	48.296577			
15493	11.710146	-0.318667	-3.023914	2.520982	-1.297987	1.948631	-107.299259	-79.832032	43.950002			
15494	11.262807	-0.846167	-2.991522	2.077529	-1.755425	1.550159	-100.963651	-80.490683	38.981028			
15495	11.016505	-0.755546	-2.908364	2.153547	-1.880034	1.242440	-93.835874	-81.086266	32.446676			
15496	10.682136	-1.241561	-3.921423	2.213379	-3.252070	0.936607	-86.361110	-81.578709	25.163423			
15497	10.651922	-0.662809	-3.956177	2.743778	-3.226057	0.752081	-79.008585	-81.925757	17.770701			
15498	11.044754	-0.059107	-3.696869	3.191562	-2.917513	1.001834	-70.891425	-82.153295	9.309252			
15499	10.730264	0.295957	-2.895132	3.060023	-2.292844	0.626751	-62.508056	-82.235360	0.313373			
15500	10.623870	-0.179727	-3.307543	2.791702	-3.123110	0.496823	-53.733643	-82.140938	-8.948843			
15501	10.515472	0.836849	-1.586046	2.869918	-1.362699	0.370292	-45.497166	-81.884626	-17.586240			
15502	9.393936	-0.519876	-2.456834	1.886146	-2.897805	-0.724485	-39.153379	-81.678599	-24.001570			
15503	9.575665	0.961928	-2.672352	3.296091	-2.581299	-0.744579	-32.439427	-81.332059	-30.528927			
15504	8.588341	1.398770	-2.744151	3.556157	-2.510560	-1.794216	-27.701839	-81.099767	-35.565005			
15505	8.785876	1.550337	-2.578187	3.603353	-2.460256	-1.614970	-23.407405	-80.581487	-40.569826			
15506	8.166953	1.286163	-2.234520	3.105720	-2.379621	-2.194589	-20.143997	-79.946717	-45.024353			
15507	8.020556	0.699491	-2.365432	2.565455	-2.903182	-2.369507	-17.776274	-79.225671	-48.834417			
15508	7.598792	0.040706	-1.847427	1.661679	-2.794069	-2.700278	-15.912528	-78.517693	-52.081649			
15509	7.530271	0.100619	-2.107915	1.750220	-3.127967	-2.862198	-14.224085	-77.909648	-54.980421			
15510	7.280534	0.392692	-2.190502	1.964341	-3.175124	-3.178147	-12.740579	-77.315805	-57.557595			
15511	6.978353	0.724195	-2.407075	2.252245	-3.317846	-3.572993	-11.746067	-76.791750	-59.727009			
15512	6.676787	0.324680	-2.491917	1.805020	-3.566065	-3.903499	-11.057157	-76.267405	-61.569885			
15513	6.376515	-0.147227	-2.608543	1.292494	-3.837247	-4.236826	-10.773616	-75.777983	-63.045674			
15514	6.156378	-1.000660	-2.648309	0.396892	-4.127763	-4.453649	-10.723189	-75.324487	-64.235499			
15515	5.970907	-1.442901	-2.408344	-0.169621	-4.014050	-4.578943	-10.885210	-74.949070	-65.161006			
15516	5.910831	-2.347096	-2.470534	-1.093662	-4.297357	-4.627452	-11.205280	-74.617875	-65.850855			
15517	5.650964	-2.792307	-2.539764	-1.596247	-4.398945	-4.885035	-11.601899	-74.379596	-66.423779			
15518	5.344551	-3.460101	-2.555849	-2.331918	-4.461831	-5.151913	-12.104356	-74.224473	-66.808415			
15519	4.865123	-3.904585	-2.031590	-2.957744	-3.900386	-5.444503	-12.605235	-74.161058	-67.086945			
15520	4.461559	-4.374241	-1.623856	-3.561817	-3.458251	-5.685930	-13.081975	-74.243158	-67.179894			
15521	4.480722	-4.526727	-1.528418	-3.747175	-3.357785	-5.618885	-13.436782	-74.484650	-67.147385			
15522	5.008075	-3.631794	-0.932439	-2.917956	-2.724862	-4.995983	-13.778269	-74.899920	-66.973481			
15523	6.152897	-3.256938	-0.062396	-2.574578	-2.050891	-3.677975	-14.326805	-75.425213	-66.575578			
15524	7.737380	-2.864459	1.424981	-2.258385	-0.854479	-1.795719	-14.954554	-75.945795	-66.062929			
15525	8.960138	-2.166290	3.036226	-1.693284	0.616857	-0.276059	-15.546491	-76.401945	-65.523712			
15526	9.469801	-1.215780	4.302906	-0.901623	1.965598	0.433925	-16.150440	-76.880268	-64.910725			
15527	10.562033	-0.748351	5.617716	-0.532256	3.190067	1.729158	-17.193532	-77.423355	-64.034100			
15528	12.308664	-1.204386	8.299728	-1.157400	5.495873	3.981985	-18.592941	-77.823892	-63.237590			
15529	13.908340	-1.682323	11.458039	-1.758984	8.312943	6.167153	-19.881814	-78.018759	-63.040720			
15530	14.310228	-2.631749	12.223129	-2.548964	8.968506	6.745636	-20.574699	-78.142524	-63.504783			
15531	13.625783	-1.970423	11.507758	-1.754501	8.544864	5.867855	-20.244637	-78.299926	-64.526504			
15532	12.724870	-0.212998	10.400320	0.020152	7.831349	4.637357	-19.046680	-78.477704	-65.983981			
15533	12.050114	0.931524	9.164294	1.139449	6.864909	3.664379	-17.471400	-78.673703	-67.527131			
15534	11.616369	1.289947	7.302369	1.521149	5.163232	2.874115	-15.683779	-78.818953	-69.137052			
15535	10.515233	1.422837	5.246054	1.658661	3.355696	1.416879	-13.607040	-78.837547	-71.011938			
15536	9.034282	1.565751	3.532122	1.781579	1.939512	-0.346458	-11.335674	-78.773256	-73.184676			
15537	7.648542	1.953873	2.124669	2.154874	0.833345	-1.970891	-9.125938	-78.724909	-75.376569			
15538	7.191127	2.055839	1.150231	2.270245	-0.034070	-2.594210	-7.168084	-78.827545	-77.351976			
15539	7.412344	2.211529	-0.359039	2.523379	-1.518640	-2.651084	-5.366275	-79.152566	-79.040165			
15540	7.869323	2.546754	-2.560469	3.040200	-3.660180	-2.578918	-3.399670	-79.765440	-80.566433			
15541	8.441983	2.341787	-4.651451	3.055794	-5.707804	-2.298227	-1.179161	-80.688128	-81.990021			
15542	9.853060	0.971563	-5.674906	1.880977	-6.913582	-0.930732	0.685166	-81.935024	-82.778316			
15543	12.913474	-0.996107	-5.811744	0.098367	-7.465911	2.260526	0.557963	-83.535592	-81.330244			
15544	18.915310	-0.513759	-3.028025	0.379999	-4.895285	8.709915	-4.779439	-85.060953	-74.858764			
15545	24.472303	2.192203	3.421245	2.241440	1.795156	14.827688	-13.606399	-85.260601	-66.731098			
15546	22.101644	1.797599	8.838593	1.477487	7.093616	12.930367	-19.841811	-84.046184	-64.555905			
15547	16.807950	-3.216105	9.154213	-2.664286	7.038712	8.071621	-23.913502	-81.621072	-67.522832			
15548	5.366052	-16.749073	3.578953	-16.097263	3.770822	-2.837955	-26.305847	-79.709210	-70.078822			
15549	1.487913	-10.742167	-5.480540	-11.172893	-4.556765	-8.382495	-26.026317	-79.389100	-69.808641			
15550	1.841386	-2.823869	-8.580019	-3.483166	-8.513596	-9.210855	-22.935881	-79.617492	-71.192624			
15551	-1.156082	-4.710221	-13.801802	-5.420689	-13.233039	-12.887275	-15.763735	-80.858998	-75.177915			
15552	-2.839699	-11.170425	-18.632064	-10.747567	-18.367478	-14.985631	1.245421	-82.878525	-87.166627			
15553	0.224433	-6.967960	-10.492648	-5.731651	-11.160011	-10.910104	20.083631	-83.836342	-101.174708			
15554	11.777612	-0.112998	0.563005	-0.433546	-0.495548	1.959896	25.804603	-85.931426	-103.663993			
15555	17.753367	7.477753	4.935975	6.217322	5.703447	8.191130	-36.119709	-88.811401	-40.918665			
15556	19.793948	2.140205	0.242893	2.416462	0.526880	9.943804	-69.831885	-88.694519	-8.486090			
15557	11.992198	1.078419	-1.655651	1.607803	-1.467055	2.144676	-68.921384	-88.972488	-11.325772			
15558	8.303715	0.491034	-1.455044	0.874820	-1.359655	-1.524392	-90.114516	-88.805358	8.688630			
15559	9.060088	1.392715	-0.995979	1.724844	-0.696819	-0.781893	-114.328589	-88.381491	32.661896			
15560	9.302062	1.401145	-2.265058	1.969310	-1.835288	-0.518928	-123.529976	-87.838481	42.716900			
15561	9.419675	2.181780	-3.158525	2.987106	-2.446075	-0.402222	-125.086541	-87.240157	45.970509			
15562	9.888660	3.375071	-3.495563	4.383326	-2.353622	0.017732	-123.464149	-86.631021	46.125241			
15563	10.377734	3.939159	-3.233567	5.021637	-1.777757	0.448420	-122.856760	-86.161069	46.604950			
15564	9.651191	3.218133	-2.367890	4.138869	-1.055184	-0.280372	-123.914374	-85.900387	47.458068			
15565	8.619322	1.605968	-1.286206	2.270762	-0.416541	-1.257205	-128.111428	-85.585790	50.209683			
15566	8.537275	-0.462862	-0.894365	0.143731	-0.418489	-1.227663	-133.732389	-85.115336	53.635002			
15567	8.966457	-2.120521	-1.218525	-1.452287	-0.848172	-0.672286	-139.915890	-84.548694	57.225453			
15568	9.499610	-2.993627	-1.678964	-2.300281	-1.173664	-0.047928	-144.492512	-84.132777	59.220965			
15569	9.348929	-3.187616	-0.969596	-2.612560	-0.318139	-0.243217	-146.509979	-83.898296	58.957497			
15570	9.026842	-3.481458	0.093431	-2.969920	0.845647	-0.643394	-147.925330	-83.673046	58.512134			
15571	9.188532	-3.948531	0.325776	-3.400629	1.213378	-0.480565	-148.715059	-83.421990	58.171017			
15572	8.723677	-4.310930	0.391825	-3.766217	1.319458	-0.929300	-149.598394	-83.069981	59.066085			
15573	8.801411	-3.238931	0.027371	-2.680736	0.991950	-0.880393	-150.225700	-82.551701	60.755199			
15574	8.949223	-1.813605	-0.440008	-1.224033	0.591148	-0.772590	-150.378803	-81.949934	62.438134			
15575	9.060857	-1.387370	-1.254030	-0.721999	-0.124552	-0.589941	-150.585130	-81.280188	64.459550			
15576	9.178833	-0.810374	-1.787346	-0.041504	-0.512782	-0.440582	-150.318344	-80.586095	66.310286			
15577	9.285654	-0.544543	-2.042715	0.337649	-0.615138	-0.315401	-149.660905	-79.886988	68.124845			
15578	8.796298	1.056771	-1.233564	1.817107	0.479398	-1.067517	-149.858479	-79.000234	70.754142			
15579	10.201832	3.243330	-3.721634	4.531278	-1.021396	0.524785	-152.662801	-77.917050	74.664595			
15580	9.946915	3.730703	-3.906535	5.032236	-0.955791	0.281006	-152.704219	-77.597248	75.080865			
15581	9.637844	1.989110	-2.955600	3.132010	-0.414318	-0.035216	-152.230923	-77.363209	74.249466			
15582	9.810224	0.114017	-2.178690	1.176318	0.009554	0.168107	-151.570009	-77.197083	73.308467			
15583	9.627275	-0.068419	-1.360397	0.835506	0.754986	-0.154973	-151.782953	-76.867233	73.493621			
15584	9.240396	-0.359397	-2.179048	0.705826	-0.098004	-0.338834	-152.223641	-76.380247	74.268103			
15585	9.256329	0.078394	-2.357512	1.177730	-0.085130	-0.333843	-152.729244	-75.836068	75.161607			
15586	9.137680	-0.290902	-2.520092	0.852842	-0.250160	-0.371174	-153.095174	-75.346532	75.689818			
15587	9.075275	-1.276484	-2.038812	-0.210855	0.069394	-0.426684	-153.357204	-74.898571	75.910333			
15588	8.964228	-2.319973	-1.572300	-1.331032	0.346028	-0.521836	-153.663151	-74.451534	76.117639			
15589	9.004129	-2.799630	-1.206492	-1.874375	0.689812	-0.518707	-154.175990	-73.934453	76.476023			
15590	9.119243	-2.866890	-1.055964	-1.967705	0.943995	-0.446210	-154.790353	-73.411786	76.812187			
15591	8.860927	-2.774367	-0.695103	-1.976429	1.326284	-0.811007	-155.479505	-72.935524	77.052050			
15592	8.526219	-2.419698	-0.161809	-1.767220	1.889318	-1.334231	-156.326439	-72.491102	77.266759			
15593	8.931854	-1.876934	0.261218	-1.289913	2.589342	-1.152442	-157.154172	-72.057122	77.329311			
15594	9.548185	-1.215211	0.541643	-0.635224	3.225539	-0.750141	-157.780513	-71.654018	77.222663			
15595	9.498144	-0.720751	0.073266	-0.048617	2.914368	-0.743882	-157.851541	-71.216094	77.095877			
15596	9.484466	-0.495050	-0.977962	0.379787	2.034305	-0.492112	-157.065133	-70.619893	77.198115			
15597	9.913691	0.384379	-1.796269	1.477882	1.663247	0.021071	-155.275224	-69.919846	77.483313			
15598	10.353725	1.261432	-1.625536	2.397447	2.303855	0.205975	-152.489007	-69.255068	77.780989			
15599	9.772194	4.461640	-0.624796	5.129279	4.042843	-1.261339	-151.998135	-68.163417	79.629813			
15600	11.913128	5.612640	-5.501831	7.816004	1.048445	2.082823	-152.687000	-67.843337	80.834313			
15601	9.236150	3.930332	-2.309648	5.028551	2.450500	-1.164182	-152.687915	-67.864210	80.046391			
15602	10.654755	-0.803093	-1.656162	0.486050	2.248120	0.752380	-152.041567	-67.984915	78.371951			
15603	9.665957	-1.431211	1.643378	-1.093538	4.673963	-1.144480	-152.957809	-68.139196	77.969650			
15604	9.606838	-1.664784	-0.040816	-0.858620	3.113754	-0.613157	-155.004829	-68.058082	78.391774			
15605	10.277692	-3.064985	-0.291050	-2.124417	2.896129	0.297158	-156.124508	-68.245236	78.087017			
15606	10.081560	-3.307074	1.043926	-2.664347	4.032987	-0.310028	-157.009134	-68.472011	77.750995			
15607	10.393258	-4.187835	0.377494	-3.354699	3.415848	0.325272	-157.385576	-68.556736	77.580876			
15608	11.094846	-3.929870	0.634483	-3.088755	3.942565	0.857729	-156.746086	-68.461975	77.505788			
15609	11.846457	-2.506213	0.836919	-1.674855	4.604381	1.292022	-155.320271	-68.252933	77.542054			
15610	11.928434	-1.439456	0.755990	-0.622094	4.744419	1.234238	-153.548610	-67.998088	77.702860			
15611	12.384424	-0.995286	0.635371	-0.142667	4.893066	1.624348	-151.581450	-67.853858	77.836476			
15612	13.332648	-0.835906	0.584880	0.088396	5.215460	2.499558	-149.488987	-67.858867	77.769521			
15613	14.958966	-0.568149	0.478077	0.511940	5.740523	4.011415	-147.307985	-68.047736	77.391788			
15614	14.792205	-0.051752	0.587555	0.966895	5.833867	3.758851	-145.138364	-68.505123	76.605604			
15615	13.428358	-0.215233	0.539275	0.760700	5.115007	2.593511	-143.456212	-69.083566	75.597363			
15616	13.851503	-0.737404	1.316263	0.078798	5.598132	2.946278	-142.495122	-69.860408	74.200615			
15617	14.658383	-1.454446	3.525527	-1.184076	7.349407	3.377589	-141.986133	-71.248235	71.278414			
15618	14.357938	-4.327399	4.432126	-3.879028	7.009630	3.615643	-141.432175	-73.238777	66.385752			
15619	11.528065	-14.674237	-2.055664	-12.194474	-2.312839	4.272716	-139.456158	-74.833768	62.591025			
15620	12.733288	-4.882572	-2.301604	-2.536509	-0.483608	3.773478	-134.196027	-75.940070	59.814995			
15621	14.531386	3.542098	-2.644686	5.913219	1.389288	4.108688	-129.154600	-76.980932	57.475603			
15622	14.445594	2.782670	-4.865908	5.974889	-1.056003	4.444887	-124.526460	-78.167784	55.191160			
15623	14.112661	1.892602	-4.409315	5.041440	-1.129065	4.169370	-119.236427	-79.234525	52.657180			
15624	14.008480	1.898274	-3.105028	4.593996	-0.090461	3.911996	-113.073731	-80.179151	49.009905			
15625	12.746484	0.146627	-4.230530	3.476949	-2.201413	2.972082	-105.692475	-81.146704	43.435881			
15626	11.021201	2.228851	-3.204681	4.671135	-0.748263	0.879434	-100.642755	-81.981684	38.386140			
15627	12.224027	-0.203261	-4.034340	3.021350	-2.757782	2.393932	-93.361191	-82.460322	29.607566			
15628	10.860716	-1.839779	-3.823858	1.239719	-3.678984	1.181902	-83.603363	-82.868914	17.785294			
15629	11.118465	-0.852816	-2.865418	1.660280	-2.702729	1.254694	-73.339768	-83.024041	4.882458			
15630	11.083155	-1.574066	-1.416781	0.375398	-1.926033	1.298712	-62.088372	-82.775267	-9.266693			
15631	9.758429	-4.554073	-1.914240	-2.524030	-3.540427	0.223366	-52.555731	-82.376654	-20.747575			
15632	9.807868	-3.716972	-0.999112	-2.045277	-2.609575	0.187836	-43.412330	-81.859242	-29.898207			
15633	9.787546	-0.602689	-1.300815	0.981805	-2.203503	-0.219523	-35.682785	-81.395753	-37.099006			
15634	9.963701	0.898526	-1.924859	2.572706	-2.546844	-0.290105	-29.511441	-80.930145	-43.385176			
15635	10.096738	-0.107057	-2.227834	1.656023	-3.340402	-0.168314	-24.334723	-80.254433	-49.323797			
15636	9.622050	-1.209304	-1.906189	0.384533	-3.476623	-0.569217	-20.048997	-79.548271	-54.496619			
15637	9.495654	-1.346907	-2.042307	0.193902	-3.793401	-0.772668	-16.248347	-78.774912	-58.978688			
15638	8.999840	-0.674280	-1.555355	0.603802	-3.230431	-1.264691	-13.143164	-78.028764	-62.638593			
15639	8.783594	-0.212793	-1.781734	1.021687	-3.437169	-1.596171	-10.591079	-77.261610	-65.759492			
15640	8.576734	-0.236209	-1.907063	0.951191	-3.667319	-1.881949	-8.709859	-76.365220	-68.348612			
15641	7.996280	-0.449241	-1.685153	0.594503	-3.519036	-2.447697	-7.378703	-75.462212	-70.450671			
15642	7.548731	-0.854410	-1.418637	0.065891	-3.370401	-2.858516	-6.343058	-74.568338	-72.140153			
15643	7.408206	-0.777733	-1.416936	0.094466	-3.427114	-3.049639	-5.635269	-73.706320	-73.503652			
15644	6.871430	-1.164722	-1.763629	-0.301030	-3.778576	-3.704141	-5.237964	-72.886932	-74.625372			
15645	6.829427	-1.327903	-1.852122	-0.489868	-3.956046	-3.817380	-5.067824	-72.138218	-75.619528			
15646	6.710468	-1.983999	-1.850078	-1.188373	-4.087553	-3.958750	-4.973408	-71.480424	-76.489581			
15647	6.587342	-2.170458	-1.864063	-1.420456	-4.136819	-4.116433	-4.864031	-70.884769	-77.268286			
15648	6.266564	-2.174655	-1.614189	-1.513814	-3.839352	-4.374672	-4.716498	-70.356394	-77.965198			
15649	6.190318	-2.110584	-1.558966	-1.491626	-3.787451	-4.461517	-4.515686	-69.895373	-78.613406			
15650	5.821755	-1.800843	-1.070487	-1.287470	-3.196972	-4.674256	-4.278782	-69.530513	-79.234316			
15651	5.491671	-1.886459	-0.759999	-1.446510	-2.822979	-4.889972	-4.058603	-69.295023	-79.764315			
15652	5.441705	-1.652516	-0.762158	-1.234444	-2.792442	-4.954474	-3.850264	-69.135470	-80.210554			
15653	5.030112	-1.359140	-0.618154	-0.996171	-2.488101	-5.301769	-3.642803	-69.066927	-80.615463			
15654	4.819550	-1.296775	-0.839538	-0.939383	-2.612376	-5.580956	-3.566296	-69.089341	-80.889841			
15655	4.658562	-1.491876	-0.833552	-1.152675	-2.560992	-5.721803	-3.617628	-69.216642	-81.010183			
15656	4.782929	-1.511157	-0.816543	-1.172752	-2.573355	-5.590225	-3.806792	-69.466636	-80.991200			
15657	4.863785	-1.985325	-0.940359	-1.631479	-2.735164	-5.530254	-4.265638	-69.821060	-80.663939			
15658	4.946010	-2.302629	-0.889945	-1.939141	-2.711181	-5.402909	-4.923612	-70.295438	-80.014825			
15659	5.084802	-2.347466	-1.104430	-1.942298	-2.921605	-5.309692	-5.774542	-70.877946	-79.068818			
15660	5.626007	-2.213564	-0.879947	-1.768629	-2.820025	-4.689697	-6.808697	-71.566093	-77.854409			
15661	6.681988	-1.639300	-0.232106	-1.147532	-2.403647	-3.464859	-8.092704	-72.342255	-76.298960			
15662	8.031278	-0.961657	0.726883	-0.418640	-1.716815	-1.886123	-9.648169	-73.134637	-74.426744			
15663	9.641076	-0.440442	1.459805	0.206196	-1.275368	-0.137762	-11.476348	-73.897802	-72.411398			
15664	11.743865	-0.364428	2.999420	0.371064	-0.194877	2.306289	-13.433009	-74.508530	-70.577403			
15665	13.626554	-0.625909	6.324304	0.067018	2.648399	4.987650	-15.427835	-74.906905	-69.388679			
15666	15.153939	-1.510139	9.952639	-0.750797	5.838149	7.401284	-17.531671	-75.180877	-68.939120			
15667	16.004956	-3.061600	13.341221	-2.070008	8.982568	9.122343	-19.107332	-75.464125	-69.054609			
15668	15.185822	-2.570817	14.719970	-1.514736	10.700532	8.547534	-18.860984	-75.930386	-69.627398			
15669	13.174519	0.840734	13.209861	1.601299	9.956529	5.905786	-17.419006	-76.559062	-70.340287			
15670	11.108662	2.568234	10.596888	2.992132	8.093789	3.141982	-16.189871	-77.161668	-70.655674			
15671	9.833299	2.438147	8.253253	2.698231	6.201756	1.368081	-15.668782	-77.656479	-70.436266			
15672	10.118414	0.992511	5.939098	1.325311	3.882974	1.223855	-15.774188	-78.108457	-69.882882			
15673	10.871509	-0.381970	3.451742	0.138927	1.289172	1.526095	-16.151204	-78.599209	-69.100013			
15674	12.643586	-1.136680	1.689779	-0.377064	-0.705830	2.968759	-16.912386	-79.275940	-67.903425			
15675	13.688025	-1.810999	-0.252334	-0.827589	-2.690600	3.706870	-17.898129	-80.043028	-66.554495			
15676	12.372140	-1.755424	-1.738261	-0.739922	-3.779111	2.201557	-18.535195	-80.732000	-65.507490			
15677	11.166661	-0.936115	-2.402754	0.052530	-4.038067	0.912688	-18.838198	-81.434705	-64.555402			
15678	12.818593	0.583865	-1.617542	1.574656	-3.125909	2.637922	-20.203588	-82.439827	-62.232194			
15679	17.243226	1.821496	0.909742	2.727514	-0.674442	7.321128	-23.811525	-83.501192	-57.714350			
15680	19.820532	3.140363	5.574232	3.521932	4.101991	10.300895	-25.778153	-83.758054	-56.273547			
15681	17.649385	2.539982	9.223052	2.599774	7.608398	8.580908	-23.575757	-82.629358	-61.635293			
15682	9.356281	-1.989026	7.437200	-1.695000	6.030628	0.556844	-21.991176	-80.574406	-67.882928			
15683	1.732818	-9.013640	-3.470811	-8.963544	-3.593809	-8.073677	-22.353457	-79.671586	-69.756981			
15684	0.777030	-4.683977	-10.159463	-4.964312	-10.036789	-10.423870	-21.120580	-79.747819	-70.011389			
15685	1.045154	-3.308098	-14.422356	-3.241091	-14.430709	-10.928634	-16.909786	-80.550762	-71.413177			
15686	-2.016288	-4.203915	-14.909336	-3.354622	-14.715514	-13.825538	-9.579308	-82.234995	-74.608381			
15687	0.375112	-0.577467	-13.161570	0.914408	-13.096688	-10.959880	-5.863396	-84.283720	-76.894174			
15688	15.260665	4.225627	1.746491	4.380334	1.058652	5.466649	-17.972253	-85.471429	-62.670877			
15689	17.241466	2.385871	5.739186	2.361809	4.962499	7.670274	-42.549614	-85.110836	-39.087172			
15690	14.219450	-2.499828	-0.767359	-1.468913	-1.805658	4.456490	-45.815823	-85.416162	-38.490292			
15691	10.784682	-3.392923	-2.323215	-2.514297	-3.109306	1.014423	-50.024527	-85.382976	-36.783980			
15692	9.776868	-3.585003	-2.156199	-2.851927	-2.756773	0.054096	-54.612528	-85.466111	-33.807573			
15693	9.529234	-2.085325	-1.215791	-1.417321	-1.646704	-0.225623	-61.068817	-85.633760	-27.691896			
15694	8.971289	-0.946530	-1.171979	-0.297918	-1.465520	-0.839605	-68.842561	-85.784135	-19.143845			
15695	8.951329	-0.168916	-1.894748	0.560618	-2.060785	-0.914249	-77.137895	-85.779844	-9.215270			
15696	9.284263	0.270968	-2.800566	1.188023	-2.831282	-0.610296	-83.104540	-85.611371	-1.226560			
15697	8.590773	2.750086	-2.247668	3.631077	-1.900158	-1.468893	-90.003203	-85.545518	6.874156			
15698	10.395498	2.937101	-2.320638	3.981795	-1.831643	0.329721	-95.956651	-85.427369	12.310164			
15699	9.010725	-0.862028	-1.221745	0.002943	-1.132500	-0.749241	-98.387357	-85.012244	13.819679			
15700	9.493004	-1.179856	0.004670	-0.369009	0.150615	-0.255011	-105.590132	-84.836228	19.671227			
15701	10.198635	-1.779453	-0.556581	-0.866689	-0.302257	0.514187	-112.010160	-84.584054	24.740717			
15702	9.838294	-2.303955	-0.573461	-1.426032	-0.238198	0.204193	-116.113111	-84.420832	27.688676			
15703	9.172024	-2.598104	-0.630075	-1.781397	-0.240577	-0.429653	-119.372107	-84.251902	30.222908			
15704	8.973106	-2.879616	-0.822162	-2.074903	-0.374110	-0.591013	-122.108698	-84.030726	32.812129			
15705	9.056172	-2.330903	-0.726295	-1.509115	-0.215938	-0.557926	-124.246420	-83.736998	35.451501			
15706	9.149607	-1.631544	-0.502976	-0.786981	0.071086	-0.538767	-125.974516	-83.391608	37.995176			
15707	9.208189	-1.112377	-0.574234	-0.236404	0.069908	-0.523079	-127.282695	-83.043763	40.313712			
15708	9.347323	-0.769996	-0.667814	0.147929	0.058949	-0.411325	-128.486500	-82.699749	42.554510			
15709	9.509243	-0.688815	-1.174557	0.309735	-0.363387	-0.218349	-129.687352	-82.352109	44.867725			
15710	9.390986	-0.702248	-1.764426	0.376900	-0.898369	-0.281297	-130.598300	-82.037185	47.012337			
15711	8.901769	0.695246	-1.636192	1.728470	-0.588778	-0.920738	-132.476097	-81.651984	49.990812			
15712	10.078740	1.667858	-2.536620	2.930361	-1.115209	0.235466	-134.947978	-81.223942	52.717609			
15713	9.692357	0.168038	-1.964214	1.345269	-0.707903	-0.039406	-135.654322	-80.912904	53.384886			
15714	9.436173	-0.628644	-1.322620	0.457906	-0.155048	-0.275819	-136.753091	-80.593903	54.402105			
15715	9.328996	-0.942607	-1.420979	0.160818	-0.240207	-0.333558	-137.915411	-80.214759	55.722386			
15716	9.451166	-0.747451	-1.526180	0.390341	-0.228996	-0.220651	-139.029330	-79.815599	57.040758			
15717	9.557239	-0.717816	-1.506320	0.437294	-0.117212	-0.121469	-139.972282	-79.441017	58.075854			
15718	9.604481	-1.110780	-1.175002	0.015689	0.228083	-0.075751	-140.746243	-79.103736	58.814048			
15719	9.673075	-1.164019	-0.849823	-0.069994	0.612700	-0.052314	-141.541076	-78.766359	59.600568			
15720	9.793304	-1.141067	-0.682218	-0.054301	0.862042	0.032609	-142.335811	-78.436450	60.395105			
15721	9.879613	-1.098341	-0.570287	-0.016562	1.053498	0.088216	-143.056799	-78.118928	61.181287			
15722	9.768897	-1.081018	-0.569776	-0.007884	1.094923	-0.028752	-143.735642	-77.812393	61.948851			
15723	9.625242	-1.173253	-0.603495	-0.107542	1.080861	-0.158366	-144.402082	-77.500047	62.806761			
15724	9.572743	-1.265696	-0.635113	-0.199499	1.085838	-0.198966	-145.055482	-77.170071	63.697760			
15725	9.493652	-1.254550	-0.507971	-0.220079	1.255606	-0.308160	-145.743460	-76.824360	64.682327			
15726	9.417887	-1.113579	-0.188944	-0.147113	1.630661	-0.469705	-146.434791	-76.473759	65.598248			
15727	9.388039	-0.879486	0.171725	0.010935	2.070713	-0.612149	-147.183535	-76.108006	66.494025			
15728	9.598211	-0.620311	0.390565	0.241688	2.432067	-0.501983	-147.883470	-75.734973	67.238367			
15729	9.733555	-0.478983	0.319108	0.401844	2.480353	-0.391469	-148.434160	-75.376675	67.850165			
15730	9.664507	-0.470042	0.005881	0.459428	2.224049	-0.407054	-148.711435	-75.047765	68.297496			
15731	9.672865	-0.479739	-0.434299	0.532966	1.858184	-0.312902	-148.640774	-74.712905	68.736741			
15732	9.788284	-0.224549	-0.848391	0.882358	1.587133	-0.154383	-148.147195	-74.383069	69.156939			
15733	9.718922	0.297294	-1.072343	1.447878	1.511958	-0.256910	-147.298100	-74.045672	69.653637			
15734	9.916543	2.251652	-1.690981	3.507480	1.462665	-0.230217	-147.561357	-73.565840	70.871358			
15735	10.482393	2.747066	-2.879998	4.325157	0.694523	0.508735	-147.519422	-73.394008	71.127518			
15736	9.767231	1.326884	-1.793988	2.631285	1.241562	-0.225578	-147.372248	-73.346599	70.872151			
15737	9.551808	0.187979	-1.297483	1.398490	1.410742	-0.378184	-147.302175	-73.309604	70.825477			
15738	9.333401	-0.098292	-1.171003	1.071748	1.423370	-0.575880	-147.358174	-73.193596	71.130480			
15739	9.460722	-0.086866	-1.542448	1.184783	1.138560	-0.368543	-147.420221	-73.062409	71.520650			
15740	9.521128	-0.365123	-1.662622	0.952159	1.003508	-0.240026	-147.429044	-72.980078	71.744365			
15741	9.760012	-1.073522	-1.548397	0.265256	1.030063	0.070451	-147.349011	-72.926154	71.823946			
15742	10.035670	-1.611670	-1.457085	-0.245462	1.076296	0.395965	-147.216446	-72.878091	71.881894			
15743	9.922275	-1.719274	-1.419497	-0.363985	1.060655	0.294980	-147.099790	-72.822261	71.995650			
15744	9.723504	-1.709526	-1.240113	-0.415057	1.179733	0.058627	-146.914994	-72.757875	72.083734			
15745	10.312367	-1.616615	-1.062853	-0.313107	1.540090	0.561226	-146.688202	-72.677384	72.140434			
15746	11.686912	-1.740856	-1.358177	-0.209725	1.630979	1.966745	-146.258636	-72.616083	72.040254			
15747	12.527568	-1.681525	-2.094034	0.158955	1.203235	2.941894	-145.654197	-72.576715	71.897484			
15748	12.835955	-1.247287	-2.787460	0.836996	0.759374	3.333037	-145.042625	-72.548799	71.802678			
15749	12.821895	-0.995306	-2.471867	1.012462	1.100767	3.197496	-144.381416	-72.627966	71.564338			
15750	12.203471	-1.726777	-1.636410	0.028678	1.459068	2.534553	-143.772012	-72.815390	71.219340			
15751	11.395238	-2.588367	-0.779631	-1.118378	1.729944	1.716196	-143.334034	-73.067774	70.906713			
15752	10.964338	-3.143305	-0.714212	-1.703417	1.459117	1.393393	-143.094227	-73.386238	70.504227			
15753	10.379019	-3.437519	-0.284429	-2.171757	1.557820	0.792869	-142.799818	-73.820459	69.677741			
15754	9.633207	-3.657875	0.156155	-2.578813	1.661628	0.025589	-142.484916	-74.321579	68.388682			
15755	9.236513	-4.609782	0.030331	-3.479786	1.181413	-0.165951	-142.143267	-74.846610	66.672391			
15756	10.063286	-5.544812	0.691152	-4.438984	1.785170	0.656351	-141.195036	-75.502043	64.107730			
15757	9.849357	-6.472750	2.156431	-5.634195	2.926380	0.348393	-138.903413	-76.366125	60.360158			
15758	8.430077	-9.099515	0.488702	-7.929809	0.481608	-0.273767	-135.804544	-77.003634	57.033619			
15759	9.320322	-7.560688	-0.429152	-6.056334	-0.166202	0.555566	-130.909552	-77.465840	53.419888			
15760	9.675330	-5.173101	-1.326209	-3.371639	-0.779037	0.682479	-125.365768	-77.860994	49.545061			
15761	9.671862	-4.709547	-1.886037	-2.637792	-1.474945	0.682142	-120.123383	-78.165354	46.000061			
15762	10.380534	-4.179408	-2.054644	-1.835230	-1.634336	1.295819	-114.812470	-78.431428	42.304953			
15763	10.723270	-3.770977	-1.913544	-1.300568	-1.565640	1.532885	-109.375417	-78.686952	38.251114			
15764	11.082317	-3.507838	-2.271876	-0.752200	-1.996282	1.837548	-103.975362	-78.910206	34.016907			
15765	11.135711	-2.818412	-2.274893	0.016646	-1.970027	1.730138	-98.371171	-79.062693	29.387344			
15766	10.825766	-2.873714	-2.446691	0.087138	-2.372009	1.403540	-92.953185	-79.185542	24.895413			
15767	10.596724	-2.660825	-2.860153	0.506450	-2.873280	1.097636	-87.711102	-79.267184	20.863522			
15768	10.723628	-1.569712	-3.126656	1.733452	-2.840087	0.965175	-82.485737	-79.308072	17.018002			
15769	10.529451	-0.954653	-3.091109	2.339943	-2.690743	0.609317	-77.543649	-79.322426	13.330818			
15770	10.437387	-0.590776	-3.325867	2.835083	-2.859306	0.391940	-72.770449	-79.311172	9.614221			
15771	10.126706	-0.032685	-3.049854	3.211157	-2.472917	-0.044123	-68.353402	-79.303197	6.014667			
15772	10.341305	-0.553458	-3.285794	2.958605	-3.019727	0.195905	-63.830205	-79.301032	2.372541			
15773	9.909978	0.228664	-2.629542	3.296791	-2.165065	-0.346048	-59.339797	-79.239661	-1.024547			
15774	9.580954	-0.018302	-2.288697	2.901668	-2.055625	-0.626420	-55.526865	-79.265928	-3.538576			
15775	9.947538	0.363817	-2.306187	3.337296	-1.922922	-0.348602	-51.398984	-79.280711	-6.095579			
15776	9.648607	1.338106	-1.204385	3.530340	-0.500549	-0.668140	-47.079697	-79.241549	-8.803789			
15777	9.225462	2.126733	-1.033330	3.988313	0.071151	-1.164677	-43.078502	-79.292227	-11.426759			
15778	9.379738	4.014335	-1.586381	5.796555	0.677559	-1.295004	-40.245796	-79.648244	-14.179485			
15779	9.415144	3.418445	-2.733561	5.942619	-0.721007	-1.329422	-37.409146	-79.427971	-17.900025			
15780	8.273393	1.639594	-1.121735	3.414626	-0.512324	-2.036322	-36.054614	-79.026379	-20.619626			
15781	8.699720	1.282834	-1.442928	3.367849	-1.138016	-1.641165	-35.426617	-78.907648	-23.123878			
15782	8.819223	1.250277	-1.835536	3.534281	-1.648130	-1.596781	-34.711912	-78.572167	-25.946072			
15783	8.565895	0.577373	-1.485015	2.718083	-1.813929	-1.735994	-34.413209	-78.136164	-28.584256			
15784	8.806153	0.070233	-1.225011	2.175072	-1.979098	-1.421938	-34.429328	-77.679685	-31.077445			
15785	9.054626	-1.002722	-1.546928	1.342826	-2.859310	-1.129092	-34.484684	-77.182256	-33.399947			
15786	9.226812	-1.545286	-1.262829	0.722696	-2.908695	-0.860967	-34.451057	-76.761333	-35.542424			
15787	9.605523	-1.533694	-0.865126	0.625857	-2.648818	-0.434078	-34.214579	-76.416125	-37.597583			
15788	9.647684	-1.324440	-0.488398	0.677646	-2.297307	-0.361064	-33.902223	-76.101484	-39.697906			
15789	9.357245	-1.691691	-0.283969	0.181559	-2.223805	-0.564885	-33.530162	-75.783152	-41.898070			
15790	8.715997	-2.116422	0.138538	-0.478223	-1.868122	-1.052077	-33.129350	-75.476683	-44.104006			
15791	8.043880	-2.654772	0.435780	-1.212808	-1.605592	-1.572980	-32.676831	-75.246417	-46.197834			
