// General information: 
//  MT Manager version: 2022.0.0 
//  XDA version: 2022.0.0 build 7085 rev 119802 built on 2022-11-08
// Device information: 
//  DeviceId: 00B4938D
//  ProductCode: MTW2-3A7G6
//  Firmware Version: 4.6.0
//  Hardware Version: 2.0.0
// Device settings: 
//  Filter Profile: human(46.1)
//  Option Flags: Orientation Smoother Disabled, Position/Velocity Smoother Disabled, Continuous Zero Rotation Update Disabled, AHS Disabled, ICC Disabled
// Coordinate system: ENU
PacketCounter	Acc_X	Acc_Y	Acc_Z	FreeAcc_E	FreeAcc_N	FreeAcc_U	Roll	Pitch	Yaw	Vel_E	Vel_N	Vel_U
14665	9.413921	-1.158203	2.473853	-0.380835	0.100661	-0.018397	-32.168057	-75.140137	43.496684			
14666	9.406021	-1.100230	2.422494	-0.342410	0.168469	-0.045058	-32.184287	-75.114185	43.455200			
14667	9.363678	-1.105375	2.416253	-0.342999	0.161043	-0.086690	-32.243512	-75.097521	43.447467			
14668	9.345592	-1.106925	2.434068	-0.360315	0.157686	-0.100048	-32.276962	-75.071491	43.416159			
14669	9.398818	-1.090490	2.450754	-0.370727	0.183998	-0.047349	-32.352837	-75.066037	43.430921			
14670	9.438281	-1.052464	2.379369	-0.300941	0.243739	-0.030037	-32.383285	-75.046347	43.394690			
14671	9.384373	-1.110808	2.367644	-0.288805	0.183468	-0.076722	-32.461047	-75.035690	43.392837			
14672	9.436018	-1.122612	2.316754	-0.226061	0.194300	-0.036328	-32.511044	-75.012627	43.361019			
14673	9.430384	-1.139865	2.348040	-0.255043	0.175696	-0.032666	-32.605798	-75.004371	43.373576			
14674	9.423264	-1.184997	2.311222	-0.210829	0.141593	-0.041333	-32.669566	-74.981395	43.358928			
14675	9.504179	-1.146253	2.247824	-0.143387	0.208615	0.017467	-32.747424	-74.968467	43.362423			
14676	9.520877	-1.152933	2.231620	-0.120549	0.212330	0.030934	-32.776745	-74.937973	43.317462			
14677	9.483593	-1.145785	2.194091	-0.092331	0.223466	-0.014374	-32.847277	-74.916395	43.309817			
14678	9.536435	-1.130046	2.212476	-0.099961	0.249947	0.038362	-32.879685	-74.889357	43.265681			
14679	9.553408	-1.170318	2.200857	-0.078035	0.219525	0.057811	-32.945754	-74.880099	43.255736			
14680	9.630842	-1.115162	2.237547	-0.107133	0.283734	0.132730	-32.946177	-74.865657	43.188029			
14681	9.642780	-1.097381	2.247246	-0.117993	0.302620	0.143821	-32.956483	-74.867486	43.131843			
14682	9.678966	-1.074486	2.281911	-0.145653	0.325601	0.183151	-32.884614	-74.857341	43.004821			
14683	9.782630	-1.120217	2.432349	-0.259562	0.273571	0.322837	-32.763957	-74.857983	42.851939			
14684	9.878013	-1.065729	2.532667	-0.336981	0.323190	0.429739	-32.447097	-74.814512	42.533624			
14685	9.610671	-1.000889	2.336439	-0.196761	0.364059	0.119807	-32.115146	-74.761491	42.175488			
14686	9.462445	-1.041662	2.135218	-0.006758	0.325165	-0.061981	-31.829807	-74.711570	41.839044			
14687	9.489099	-1.046093	2.070878	0.072929	0.331850	-0.049983	-31.625337	-74.678430	41.566834			
14688	9.500949	-1.063659	2.167394	-0.001871	0.298673	-0.014331	-31.399461	-74.643953	41.273050			
14689	9.608303	-1.093624	2.292327	-0.086822	0.265244	0.121716	-31.220470	-74.629144	41.026806			
14690	9.715022	-1.149600	2.348532	-0.098706	0.216159	0.245262	-30.987676	-74.603882	40.722507			
14691	9.686393	-1.235606	2.444133	-0.172805	0.107628	0.251370	-30.781390	-74.594170	40.439209			
14692	9.640730	-1.413792	2.496206	-0.190095	-0.088019	0.243636	-30.532480	-74.582163	40.109875			
14693	9.561076	-1.621116	2.584827	-0.248324	-0.324696	0.215095	-30.300256	-74.590619	39.806879			
14694	9.387021	-1.754521	2.705891	-0.368794	-0.511359	0.092809	-30.011860	-74.593798	39.457752			
14695	9.088095	-1.910749	2.660447	-0.354933	-0.717990	-0.185595	-29.771642	-74.619797	39.150977			
14696	8.707783	-2.044805	2.664272	-0.410244	-0.923523	-0.534549	-29.543995	-74.654216	38.868289			
14697	8.287475	-2.094245	2.789417	-0.611567	-1.071116	-0.906081	-29.345060	-74.723437	38.629526			
14698	7.883623	-1.947403	2.941925	-0.870662	-1.029504	-1.281517	-29.119615	-74.810559	38.397904			
14699	7.681459	-1.725579	3.081284	-1.093024	-0.883408	-1.475926	-28.848069	-74.945422	38.153257			
14700	7.695360	-1.456098	3.367700	-1.419992	-0.683832	-1.434375	-28.393479	-75.103864	37.771490			
14701	7.981659	-1.090842	3.715389	-1.768345	-0.368024	-1.127165	-27.687697	-75.295233	37.176580			
14702	8.538368	-0.771175	3.929415	-1.918607	-0.050994	-0.579334	-26.590473	-75.477085	36.210214			
14703	9.338765	-0.646360	4.039069	-1.877044	0.108700	0.207734	-25.106358	-75.641080	34.859954			
14704	9.910749	-0.476280	3.642505	-1.385706	0.339813	0.660198	-23.233224	-75.745573	33.101641			
14705	10.460144	-0.561430	3.081910	-0.685668	0.331025	1.079854	-21.172556	-75.837553	31.139176			
14706	10.906043	-0.395907	3.141492	-0.637666	0.446433	1.516949	-18.985865	-75.880746	29.079481			
14707	10.996204	-0.122644	3.572562	-1.038489	0.559835	1.689571	-16.875687	-75.892328	27.151562			
14708	10.813523	0.384760	4.062081	-1.592814	0.864291	1.602036	-14.843638	-75.847292	25.335388			
14709	10.859692	0.908162	4.122791	-1.693513	1.287409	1.642833	-13.022954	-75.783699	23.692443			
14710	10.567884	1.391190	3.972788	-1.659856	1.687493	1.313649	-11.465321	-75.668382	22.238214			
14711	10.541429	1.724096	3.939314	-1.654945	1.962667	1.278804	-10.236763	-75.559316	21.052565			
14712	10.331359	1.905031	3.824037	-1.585182	2.102014	1.052757	-9.276986	-75.416720	20.075154			
14713	10.487337	1.879912	3.612388	-1.302635	2.102321	1.162324	-8.609614	-75.279966	19.353200			
14714	10.422562	1.642800	3.494609	-1.119947	1.870620	1.086269	-8.152799	-75.113185	18.820321			
14715	10.271293	1.452447	3.349905	-0.945619	1.691984	0.914558	-7.883773	-74.943264	18.451560			
14716	10.146423	1.175036	3.346460	-0.881397	1.412727	0.806006	-7.727903	-74.755170	18.166638			
14717	10.075677	0.877804	3.440253	-0.896575	1.107903	0.774745	-7.692174	-74.565464	17.972195			
14718	9.965802	0.622320	3.415863	-0.814227	0.866002	0.673472	-7.724931	-74.345280	17.821298			
14719	9.842727	0.376898	3.376252	-0.726062	0.639247	0.554783	-7.833488	-74.126920	17.728087			
14720	9.400828	0.260882	3.373956	-0.778164	0.509045	0.135297	-7.959731	-73.886442	17.650511			
14721	9.056372	0.113496	3.220110	-0.662003	0.380488	-0.230584	-8.138111	-73.661988	17.632071			
14722	8.779322	0.100417	3.321603	-0.794207	0.348756	-0.465650	-8.263782	-73.431295	17.589806			
14723	8.573773	0.040193	3.392927	-0.875382	0.278698	-0.637772	-8.351277	-73.218986	17.550401			
14724	8.269118	0.142881	3.302686	-0.857209	0.380975	-0.956818	-8.376909	-72.996683	17.481840			
14725	7.975517	0.147183	3.108436	-0.727851	0.399089	-1.291900	-8.400990	-72.817078	17.431863			
14726	7.944476	0.257924	3.215765	-0.830479	0.498352	-1.293047	-8.379630	-72.656426	17.376106			
14727	7.955111	0.460054	3.059499	-0.693478	0.726619	-1.336423	-8.357793	-72.537368	17.333784			
14728	8.091346	0.846236	3.235057	-0.864881	1.097622	-1.169842	-8.285785	-72.431385	17.250657			
14729	8.257155	1.010515	3.297324	-0.888429	1.267152	-0.999113	-8.216881	-72.347796	17.154710			
14730	8.463673	1.303591	3.251883	-0.816985	1.582247	-0.827317	-8.142476	-72.255631	17.041721			
14731	8.576956	1.354490	3.292261	-0.816299	1.638565	-0.708482	-8.085303	-72.177504	16.930612			
14732	8.710736	1.283635	3.206457	-0.668653	1.594832	-0.603160	-8.044434	-72.093233	16.818651			
14733	8.745401	1.201272	3.113670	-0.545454	1.532997	-0.594639	-8.046381	-72.029541	16.740720			
14734	8.726911	1.124863	3.107364	-0.519853	1.461005	-0.610774	-8.068045	-71.963251	16.688710			
14735	8.776621	1.069805	3.219839	-0.594245	1.401601	-0.527037	-8.149237	-71.919964	16.700070			
14736	8.730866	1.010024	3.251848	-0.619674	1.341577	-0.558561	-8.256104	-71.866119	16.730028			
14737	8.643730	1.022970	3.346325	-0.731191	1.343319	-0.613814	-8.411879	-71.830517	16.807248			
14738	8.673917	0.999466	3.352081	-0.717250	1.331549	-0.583130	-8.546205	-71.787005	16.873472			
14739	8.674883	0.992577	3.241884	-0.609286	1.349101	-0.617183	-8.725158	-71.766458	16.985452			
14740	8.808853	0.983802	3.293085	-0.612861	1.356066	-0.474934	-8.901503	-71.742947	17.106608			
14741	8.978326	1.007937	3.307349	-0.580333	1.404280	-0.312370	-9.105356	-71.740411	17.268495			
14742	9.090013	1.029915	3.480529	-0.713761	1.424265	-0.155299	-9.287202	-71.734057	17.420460			
14743	9.107555	1.092963	3.495729	-0.736737	1.496234	-0.138974	-9.491045	-71.748361	17.595995			
14744	9.012402	1.158373	3.600853	-0.878393	1.547023	-0.201939	-9.663219	-71.773237	17.742632			
14745	8.974069	1.261760	3.807697	-1.111228	1.625727	-0.182180	-9.816503	-71.843223	17.872902			
14746	8.885408	1.420044	3.908077	-1.267151	1.763378	-0.245824	-9.898800	-71.918088	17.918865			
14747	8.942100	1.604327	3.950951	-1.334177	1.945178	-0.190772	-9.952567	-72.033856	17.913686			
14748	9.083156	1.724224	4.094216	-1.461460	2.055414	-0.020923	-9.935827	-72.157317	17.810882			
14749	9.188090	1.809130	4.114839	-1.482466	2.142263	0.078664	-9.945915	-72.308829	17.693827			
14750	9.518274	1.883852	4.176843	-1.473979	2.234977	0.406152	-9.946597	-72.451951	17.529603			
14751	9.769995	1.946453	4.375941	-1.617405	2.296702	0.699186	-10.041101	-72.585004	17.403116			
14752	9.875613	2.110988	4.295646	-1.539999	2.489112	0.764140	-10.261005	-72.659783	17.264918			
14753	9.784629	2.230973	3.917171	-1.225363	2.662066	0.554196	-10.687054	-72.728705	17.277891			
14754	9.714236	2.400387	4.063813	-1.401876	2.837608	0.513272	-11.161301	-72.770786	17.330362			
14755	9.717116	2.311902	4.787681	-2.078088	2.715856	0.722714	-11.635886	-72.817718	17.411291			
14756	9.863841	2.106077	4.659057	-1.884983	2.568691	0.830917	-12.003697	-72.830047	17.385268			
14757	9.980951	1.451053	4.328592	-1.466213	1.985690	0.881649	-12.393898	-72.868410	17.355410			
14758	10.757862	0.599195	3.393052	-0.274189	1.299333	1.405154	-12.718450	-72.932812	17.221546			
14759	11.870669	0.266226	3.765604	-0.303850	1.051658	2.595580	-12.902264	-73.026476	17.111385			
14760	12.237775	0.043105	4.885991	-1.264096	0.808247	3.278786	-13.144893	-73.052920	16.979576			
14761	11.676467	-0.849248	4.654116	-1.141811	-0.089072	2.733632	-13.557154	-73.074441	16.987233			
14762	11.528885	-1.496792	4.348287	-0.858076	-0.702782	2.549873	-13.890660	-73.098634	16.881437			
14763	11.652572	-1.579470	4.284754	-0.772796	-0.749823	2.656346	-14.170458	-73.107542	16.817463			
14764	12.110708	-2.047301	3.078381	0.527593	-1.118277	2.789225	-14.460545	-73.104941	16.760027			
14765	13.097234	-2.459752	3.212182	0.684699	-1.440699	3.802069	-14.544790	-73.118609	16.786699			
14766	13.298529	-2.594465	3.445529	0.531105	-1.558957	4.070444	-14.561597	-73.028887	16.749986			
14767	12.332929	-2.429903	2.466153	1.213926	-1.442329	2.857494	-14.592141	-72.898219	16.755692			
14768	10.580648	-1.776628	2.298602	0.875378	-0.929694	1.084993	-14.528333	-72.774609	16.686437			
14769	8.794139	-1.001480	2.767802	-0.103101	-0.315564	-0.544983	-14.635061	-72.708435	16.831394			
14770	7.389212	-0.753053	3.100993	-0.827954	-0.185484	-1.808702	-14.963475	-72.667823	17.099871			
14771	6.785359	-0.618223	2.998428	-0.912782	-0.087607	-2.425334	-15.375001	-72.698733	17.507483			
14772	6.613099	-0.874789	2.912163	-0.877004	-0.343283	-2.595208	-15.778753	-72.776461	17.871303			
14773	6.942139	-1.490864	2.551020	-0.427200	-0.908861	-2.335047	-16.170550	-72.921300	18.305388			
14774	7.551702	-2.031471	2.708961	-0.404914	-1.385377	-1.663438	-16.589187	-73.065237	18.718674			
14775	7.912354	-2.563171	2.276719	0.111077	-1.858919	-1.393028	-17.083021	-73.195050	19.241854			
14776	8.132898	-2.618474	2.618990	-0.175756	-1.886022	-1.079330	-17.593593	-73.285969	19.760707			
14777	8.334690	-2.669435	2.681268	-0.197795	-1.901013	-0.861201	-18.149577	-73.365180	20.354459			
14778	8.601194	-2.614296	2.677642	-0.141812	-1.801143	-0.608309	-18.637929	-73.422288	20.852824			
14779	8.797318	-2.510734	2.709574	-0.140404	-1.662175	-0.418231	-19.077910	-73.470994	21.338231			
14780	8.798295	-2.248656	2.715269	-0.169732	-1.385929	-0.437748	-19.458009	-73.493363	21.723889			
14781	8.606670	-1.812119	2.621637	-0.163916	-0.955832	-0.686296	-19.827093	-73.532199	22.133683			
14782	8.857251	-1.377497	2.509169	-0.023128	-0.481339	-0.516878	-20.175229	-73.568712	22.476887			
14783	8.860978	-1.063451	2.440323	0.013753	-0.154387	-0.561797	-20.556074	-73.617966	22.854695			
14784	9.059893	-0.843947	2.253635	0.220919	0.103301	-0.441814	-20.941062	-73.665502	23.177350			
14785	9.085170	-0.718888	2.158724	0.295433	0.244355	-0.454793	-21.304637	-73.740318	23.501257			
14786	9.203055	-0.717375	2.269982	0.202311	0.265591	-0.312574	-21.616715	-73.813436	23.728437			
14787	9.200326	-0.898213	2.272486	0.188596	0.092597	-0.295713	-21.915875	-73.911769	23.949523			
14788	9.177545	-1.042849	2.289130	0.155406	-0.049532	-0.298049	-22.147507	-74.005446	24.072520			
14789	9.180571	-1.217300	2.331610	0.102144	-0.221336	-0.265874	-22.356381	-74.119304	24.210990			
14790	9.081655	-1.346532	2.299534	0.095318	-0.360323	-0.355493	-22.505528	-74.221858	24.275257			
14791	8.944155	-1.481039	2.116407	0.223612	-0.507200	-0.519504	-22.682901	-74.338982	24.409232			
14792	8.812623	-1.489720	2.127109	0.161765	-0.531372	-0.642212	-22.865772	-74.452889	24.562989			
14793	8.875238	-1.366906	2.064902	0.208650	-0.401038	-0.609553	-23.131331	-74.592449	24.847552			
14794	8.926068	-1.159201	2.027063	0.224505	-0.186779	-0.590862	-23.429379	-74.731067	25.169270			
14795	9.048700	-0.876066	2.102641	0.139467	0.109741	-0.483379	-23.791527	-74.888833	25.606764			
14796	9.208891	-0.607458	2.214168	0.028832	0.395772	-0.330195	-24.140757	-75.033226	26.011910			
14797	9.260911	-0.483808	2.344959	-0.122281	0.525037	-0.262468	-24.509469	-75.182699	26.466827			
14798	9.352538	-0.326251	2.341369	-0.132382	0.694915	-0.191985	-24.841937	-75.311989	26.859557			
14799	9.419143	-0.260666	2.203121	-0.014079	0.773782	-0.166811	-25.192078	-75.440895	27.284123			
14800	9.466583	-0.177643	2.153996	0.016553	0.866999	-0.141315	-25.536116	-75.542908	27.668582			
14801	9.489578	-0.098254	2.081727	0.063738	0.955835	-0.144306	-25.913358	-75.642360	28.106446			
14802	9.620896	-0.027606	2.123200	0.028558	1.047269	-0.016119	-26.281438	-75.715545	28.497073			
14803	9.745066	-0.045515	2.157235	0.003301	1.051621	0.112840	-26.657781	-75.777492	28.920299			
14804	9.790317	0.032224	2.117300	0.034188	1.144707	0.138331	-26.998367	-75.807485	29.270388			
14805	9.762863	0.055252	2.179755	-0.047105	1.174023	0.121461	-27.386537	-75.828360	29.680699			
14806	9.655398	-0.017118	2.161588	-0.056446	1.102951	0.019899	-27.755154	-75.820340	30.040324			
14807	9.537539	0.016071	2.243869	-0.170922	1.133719	-0.082050	-28.124972	-75.802555	30.432200			
14808	9.390952	0.095993	2.231630	-0.196335	1.210438	-0.237948	-28.471050	-75.757999	30.776898			
14809	9.172284	0.189373	2.218297	-0.237098	1.291631	-0.465872	-28.813935	-75.711880	31.155756			
14810	8.963819	0.217048	2.250069	-0.312493	1.306274	-0.666325	-29.088403	-75.653915	31.457102			
14811	8.946343	0.323787	2.233754	-0.306876	1.423019	-0.701575	-29.330690	-75.606879	31.771695			
14812	8.901875	0.426298	2.050894	-0.141294	1.533859	-0.798333	-29.452728	-75.553379	31.964893			
14813	8.781133	0.529782	1.894703	-0.020359	1.631421	-0.963003	-29.503184	-75.519810	32.135254			
14814	8.760396	0.695797	1.803636	0.055536	1.798165	-1.023758	-29.453432	-75.498069	32.207044			
14815	8.959902	0.838926	1.689868	0.196866	1.969519	-0.872803	-29.377100	-75.499959	32.281380			
14816	9.121585	0.933307	1.640039	0.271985	2.082900	-0.737906	-29.239380	-75.505462	32.274120			
14817	9.362799	1.037161	1.703539	0.248164	2.211430	-0.502062	-29.155301	-75.527187	32.342375			
14818	9.400106	1.244620	1.593150	0.345441	2.422157	-0.514138	-29.063309	-75.541220	32.349252			
14819	9.275018	1.393630	1.526010	0.366423	2.553605	-0.667104	-29.085916	-75.569883	32.459403			
14820	9.171639	1.611167	1.479151	0.369444	2.756980	-0.803510	-29.173227	-75.591231	32.557928			
14821	9.114776	1.844547	1.409293	0.400384	2.985915	-0.902491	-29.378025	-75.631556	32.737102			
14822	9.233341	1.997836	1.344365	0.472643	3.159438	-0.821147	-29.609197	-75.669344	32.858821			
14823	9.500878	1.988026	1.708961	0.166411	3.174915	-0.483609	-29.901784	-75.719937	33.016734			
14824	9.868750	1.555156	1.866100	0.115430	2.794609	-0.041818	-30.185159	-75.760850	33.085465			
14825	10.178400	0.778391	1.790871	0.295550	2.077280	0.336721	-30.582078	-75.806645	33.236801			
14826	10.436340	-0.176564	1.723577	0.460998	1.178921	0.690487	-31.122811	-75.853189	33.469208			
14827	10.634827	-1.072869	1.548216	0.698708	0.338596	0.959714	-31.863243	-75.922610	33.947667			
14828	10.805515	-1.698659	1.268332	1.009263	-0.234174	1.149962	-32.615389	-75.989273	34.487342			
14829	10.745668	-1.761205	1.005637	1.225573	-0.281019	1.050158	-33.322355	-76.066402	35.135995			
14830	10.617707	-1.514566	1.261874	0.909191	-0.045713	0.948035	-33.872975	-76.165638	35.720052			
14831	10.500516	-0.849247	2.001391	0.096276	0.589328	0.893895	-34.390599	-76.326481	36.351442			
14832	10.701177	-0.005320	2.251620	-0.192013	1.445923	1.025082	-34.918115	-76.530750	36.912473			
14833	10.979040	0.701369	2.324309	-0.298077	2.177865	1.214616	-35.596429	-76.787748	37.557717			
14834	11.325117	0.940220	2.853598	-0.822420	2.445203	1.616644	-36.331019	-77.072213	38.113061			
14835	11.769979	0.688525	3.057171	-0.998253	2.248119	2.116346	-37.231425	-77.397227	38.713098			
14836	12.370435	0.052268	2.651646	-0.542165	1.697801	2.712673	-38.159490	-77.751146	39.148198			
14837	13.145849	-0.806919	2.149695	0.021588	0.938178	3.499124	-39.121525	-78.132385	39.543656			
14838	13.800364	-1.896944	1.771664	0.429958	-0.082852	4.222794	-39.884441	-78.472729	39.675823			
14839	13.683813	-3.283967	1.068333	1.030689	-1.513679	4.180824	-40.340522	-78.736414	39.558257			
14840	12.954889	-5.345232	0.946890	0.957814	-3.686312	3.707314	-40.451855	-78.928908	39.153833			
14841	11.783075	-6.816778	0.905882	0.754201	-5.318331	2.728299	-40.131783	-79.012895	38.593217			
14842	9.944218	-7.073657	0.803392	0.567668	-5.814351	0.931641	-39.590582	-78.978232	38.003343			
14843	8.187760	-6.544083	0.809070	0.329613	-5.503572	-0.861655	-39.149356	-78.937649	37.771843			
14844	7.148075	-5.223456	1.236794	-0.194530	-4.310001	-1.983574	-38.540407	-78.919436	37.575647			
14845	6.964864	-3.913925	1.894328	-0.822335	-3.034235	-2.227596	-37.785851	-78.964802	37.410374			
14846	7.584967	-2.672873	2.780759	-1.574944	-1.754320	-1.636488	-36.658065	-79.061490	36.931066			
14847	8.498441	-1.617639	3.796275	-2.430441	-0.662781	-0.707465	-35.011197	-79.183022	35.979889			
14848	9.263247	-0.439098	4.216164	-2.735975	0.505547	-0.012957	-32.874006	-79.271969	34.395716			
14849	9.695365	0.059078	3.625637	-2.081860	0.973931	0.280162	-30.728076	-79.346859	32.572302			
14850	10.292573	0.149907	3.204876	-1.550386	1.059896	0.803488	-28.526962	-79.403983	30.519663			
14851	10.834470	-0.159632	3.316595	-1.531781	0.725264	1.391691	-26.284422	-79.429555	28.404731			
14852	11.121207	-0.619075	3.204886	-1.311036	0.223455	1.701062	-23.949548	-79.357259	26.143740			
14853	10.929130	-1.215611	2.731528	-0.793395	-0.435966	1.481767	-21.816802	-79.192278	24.073740			
14854	10.652023	-1.906133	2.276595	-0.296419	-1.181668	1.178087	-19.993024	-78.969690	22.311351			
14855	10.165928	-2.191835	2.343338	-0.370811	-1.542354	0.728881	-18.501843	-78.724065	20.938108			
14856	9.574999	-2.180271	2.191008	-0.264462	-1.595571	0.117999	-17.236839	-78.436733	19.807772			
14857	8.980648	-1.802388	2.249749	-0.392979	-1.281501	-0.476465	-16.237676	-78.155684	18.972790			
14858	8.672705	-1.267684	2.448610	-0.619454	-0.793287	-0.768062	-15.321516	-77.867403	18.225141			
14859	8.217888	-0.670165	2.502909	-0.744921	-0.245782	-1.231790	-14.439426	-77.578888	17.549338			
14860	7.814101	-0.076305	2.668134	-0.975212	0.296184	-1.618423	-13.556826	-77.289786	16.832015			
14861	7.747325	0.395613	2.777965	-1.082189	0.739678	-1.677812	-12.717764	-77.020914	16.156666			
14862	7.673796	0.767953	2.734873	-1.037970	1.092923	-1.770025	-11.962049	-76.758556	15.487703			
14863	7.946222	1.015313	2.859916	-1.078046	1.335638	-1.481650	-11.330789	-76.524898	14.922792			
14864	8.253195	1.212467	2.984457	-1.104623	1.531735	-1.156721	-10.763419	-76.294520	14.370930			
14865	8.478291	1.213815	2.983846	-1.015293	1.537605	-0.932207	-10.311791	-76.083026	13.888000			
14866	8.762890	1.108189	2.900503	-0.821184	1.447674	-0.666157	-9.933063	-75.867207	13.400330			
14867	8.905231	0.957021	2.916027	-0.753475	1.300200	-0.514092	-9.601079	-75.647852	12.957904			
14868	8.726369	0.742221	2.841310	-0.667691	1.076775	-0.693036	-9.269821	-75.402491	12.480980			
14869	8.270836	0.656421	2.618898	-0.518087	0.976037	-1.182795	-9.001424	-75.163634	12.049460			
14870	7.925444	0.611083	2.544869	-0.491075	0.914869	-1.531130	-8.765008	-74.935275	11.643891			
14871	7.416913	0.639277	2.577273	-0.621459	0.916169	-2.012946	-8.632244	-74.750050	11.348586			
14872	7.233204	0.705611	2.629998	-0.697495	0.973255	-2.177226	-8.569627	-74.607846	11.127555			
14873	7.115462	0.791552	2.637638	-0.723050	1.058134	-2.291316	-8.653007	-74.521579	11.069632			
14874	6.978334	0.907531	2.652943	-0.768337	1.173833	-2.424141	-8.831412	-74.472975	11.122751			
14875	6.890490	1.155521	2.503791	-0.656594	1.432361	-2.560083	-9.166063	-74.482798	11.364589			
14876	6.862328	1.466670	2.450491	-0.630489	1.755151	-2.617587	-9.584494	-74.538578	11.719619			
14877	7.009424	1.862077	2.619825	-0.786297	2.166921	-2.454089	-10.121567	-74.660791	12.211896			
14878	7.124743	2.152860	2.879388	-1.039839	2.470388	-2.295808	-10.672251	-74.824589	12.720162			
14879	7.411110	2.260733	3.552174	-1.650291	2.589433	-1.861293	-11.212508	-75.041893	13.222751			
14880	7.883930	2.253284	4.260860	-2.250072	2.600974	-1.235944	-11.617210	-75.281197	13.555980			
14881	8.623655	2.037242	4.731432	-2.551517	2.426077	-0.404817	-11.906390	-75.534659	13.691848			
14882	9.484815	1.826564	4.372568	-2.017022	2.283449	0.342844	-12.072698	-75.740047	13.556047			
14883	10.386813	1.603039	4.001246	-1.452388	2.132093	1.133102	-12.277766	-75.883102	13.266031			
14884	11.306916	1.034548	4.168652	-1.384491	1.633117	2.091528	-12.478382	-75.936869	12.795132			
14885	11.774706	0.312609	3.995533	-1.090384	0.962245	2.540077	-12.694007	-75.941647	12.240014			
14886	12.027282	-0.660686	2.883445	0.057651	0.002517	2.572906	-12.786111	-75.905185	11.578009			
14887	11.923468	-1.146247	2.827666	0.087145	-0.485510	2.485090	-12.743761	-75.837054	10.942008			
14888	11.164575	-0.929088	3.284814	-0.519151	-0.291432	1.846921	-12.470592	-75.757532	10.337100			
14889	10.410272	-0.543574	4.379540	-1.740834	0.096383	1.359143	-12.076458	-75.740543	9.835128			
14890	10.758529	-0.898469	5.442216	-2.697325	-0.215344	1.970730	-11.587649	-75.794058	9.288124			
14891	12.440265	-1.284751	4.608528	-1.503114	-0.594413	3.417452	-11.109439	-75.837620	8.648322			
14892	14.595532	-1.283072	2.942868	0.629890	-0.621658	5.105523	-10.626056	-75.853405	7.964159			
14893	16.166352	-0.998799	3.754877	0.234557	-0.278480	6.810037	-10.096301	-75.852454	7.319920			
14894	15.227363	-1.524551	3.005246	0.732358	-0.914714	5.739002	-9.338756	-75.740230	6.550009			
14895	13.499963	-2.061477	3.118094	0.214280	-1.538352	4.108822	-8.525141	-75.596185	5.824200			
14896	12.636568	-3.011257	3.472812	-0.338319	-2.531137	3.389190	-7.854231	-75.427732	5.245571			
14897	12.052701	-4.349600	2.940954	0.019840	-3.937126	2.730607	-7.307946	-75.258220	4.821183			
14898	11.709081	-4.193889	3.303262	-0.359875	-3.794475	2.478570	-6.965699	-75.068205	4.671706			
14899	11.066766	-2.338401	2.874556	0.002062	-1.981417	1.688545	-6.883134	-74.907264	4.815683			
14900	10.186620	0.073758	3.379334	-0.605484	0.429823	0.894375	-6.980415	-74.790086	5.102145			
14901	9.037759	1.341113	3.113862	-0.598271	1.672871	-0.324835	-7.438699	-74.698286	5.579176			
14902	8.232599	1.550245	2.607328	-0.300252	1.867071	-1.245254	-8.092526	-74.592609	6.105326			
14903	7.427598	1.198408	2.448606	-0.354868	1.515636	-2.055247	-8.828268	-74.489845	6.622921			
14904	7.199717	0.423250	2.306754	-0.289722	0.757783	-2.284214	-9.608246	-74.404617	7.079456			
14905	7.258909	-0.877775	1.650679	0.313553	-0.540859	-2.343011	-10.482982	-74.348786	7.547053			
14906	7.473045	-2.207083	1.181722	0.757958	-1.858421	-2.191285	-11.348150	-74.302906	7.976578			
14907	7.797026	-3.172258	0.881664	1.065668	-2.802246	-1.897776	-12.205740	-74.302145	8.410023			
14908	8.284284	-4.040062	0.987582	1.016831	-3.617896	-1.338991	-12.908252	-74.346228	8.761247			
14909	8.714270	-4.654020	1.139973	0.912840	-4.180445	-0.835582	-13.456817	-74.439117	9.082715			
14910	8.889625	-4.898630	1.334289	0.726584	-4.386521	-0.591367	-13.824124	-74.552025	9.354350			
14911	8.866280	-4.538132	1.538811	0.525291	-4.001316	-0.577591	-14.085837	-74.673231	9.643766			
14912	8.508807	-3.537663	1.758750	0.275659	-2.996770	-0.927226	-14.248943	-74.776217	9.932193			
14913	8.179833	-2.386588	1.855672	0.163047	-1.852488	-1.292671	-14.446286	-74.874317	10.284578			
14914	7.983746	-1.102820	2.079678	-0.031676	-0.561072	-1.508131	-14.619716	-74.960754	10.612811			
14915	8.041774	-0.283151	2.125153	-0.025099	0.264927	-1.494290	-14.758610	-75.061656	10.886341			
14916	8.302747	0.356705	2.135752	0.052849	0.915567	-1.281380	-14.771520	-75.163895	10.999303			
14917	8.787270	0.519180	2.230605	0.074364	1.104313	-0.799575	-14.718429	-75.274470	11.012821			
14918	9.238301	0.343018	2.052155	0.334880	0.931787	-0.394895	-14.612244	-75.356627	10.930242			
14919	9.399892	-0.111852	1.880352	0.503295	0.468248	-0.250594	-14.528967	-75.424858	10.835853			
14920	9.225469	-0.556938	1.715068	0.588109	-0.000451	-0.431055	-14.451946	-75.457672	10.725696			
14921	9.126453	-0.946092	1.641973	0.605542	-0.401078	-0.519907	-14.440001	-75.501611	10.679048			
14922	9.051902	-1.194462	1.582398	0.624523	-0.658898	-0.590786	-14.408212	-75.540592	10.628777			
14923	8.974989	-1.242074	1.698580	0.482868	-0.703142	-0.633865	-14.417269	-75.589634	10.648249			
14924	9.008473	-1.120415	1.817737	0.376324	-0.572970	-0.580019	-14.425176	-75.633822	10.701737			
14925	8.963182	-0.937513	1.863411	0.323531	-0.388473	-0.623875	-14.516444	-75.683808	10.861659			
14926	8.984229	-0.718120	1.985244	0.215805	-0.156196	-0.587598	-14.703729	-75.724217	11.136188			
14927	8.994980	-0.655402	1.961570	0.235466	-0.085680	-0.586411	-15.022410	-75.771007	11.555209			
14928	9.027431	-0.627817	1.919208	0.277408	-0.047152	-0.566454	-15.386417	-75.805980	12.036782			
14929	8.984879	-0.574139	1.802648	0.373500	0.011625	-0.638400	-15.809559	-75.841699	12.591582			
14930	9.052385	-0.598148	1.754377	0.427281	0.003946	-0.582374	-16.217473	-75.870656	13.150132			
14931	9.127940	-0.483627	1.735129	0.459583	0.137513	-0.521094	-16.640296	-75.904026	13.748904			
14932	9.248896	-0.293831	1.667392	0.554096	0.346082	-0.432826	-17.029117	-75.918645	14.336625			
14933	9.223089	0.050597	1.679032	0.540644	0.705644	-0.480120	-17.445830	-75.936765	14.977155			
14934	9.203904	0.371793	2.044267	0.183527	1.058652	-0.438539	-17.795994	-75.937820	15.597222			
14935	9.242821	0.586562	2.101947	0.134511	1.291637	-0.404949	-18.083867	-75.916791	16.173333			
14936	9.394660	0.729821	1.988857	0.280198	1.451677	-0.296284	-18.261191	-75.861835	16.657728			
14937	9.322437	0.903391	1.827088	0.423538	1.624820	-0.418925	-18.376930	-75.782759	17.091937			
14938	9.025053	1.054597	1.501421	0.675795	1.754601	-0.796996	-18.446446	-75.684203	17.487854			
14939	8.868681	1.131427	1.454155	0.687406	1.830285	-0.968158	-18.566252	-75.596781	17.923270			
14940	8.897816	1.247077	1.918132	0.245259	1.969208	-0.842313	-18.747378	-75.511220	18.385152			
14941	8.977245	1.239673	2.035702	0.150382	1.985727	-0.740420	-19.117863	-75.423431	18.947393			
14942	9.100436	1.075756	2.296234	-0.068425	1.857879	-0.550321	-19.647739	-75.319606	19.577534			
14943	9.178838	0.913278	2.337765	-0.083524	1.733737	-0.456547	-20.380933	-75.207752	20.300713			
14944	9.092549	0.624510	2.309838	-0.065137	1.475875	-0.527366	-21.232495	-75.068085	21.038974			
14945	8.868243	0.540734	1.941664	0.249672	1.409289	-0.831620	-22.193359	-74.918347	21.797475			
14946	8.691317	0.635332	1.563198	0.586366	1.521827	-1.110602	-23.155857	-74.769841	22.500796			
14947	8.710909	0.662170	1.172174	0.981235	1.581089	-1.197027	-24.086580	-74.639331	23.162631			
14948	8.854545	0.531326	1.148544	1.049115	1.500017	-1.057481	-24.861078	-74.520735	23.711426			
14949	9.169083	0.311062	1.296992	0.986898	1.350722	-0.699371	-25.516916	-74.435697	24.208729			
14950	9.523062	-0.094168	1.434795	0.938980	1.018422	-0.281828	-26.057682	-74.381507	24.652772			
14951	9.994639	-0.385971	1.306288	1.170957	0.801319	0.174047	-26.611164	-74.369539	25.165545			
14952	10.364703	-0.562705	1.141520	1.408171	0.685766	0.511724	-27.177031	-74.383180	25.746602			
14953	10.662618	-0.503649	0.837601	1.757281	0.794928	0.719483	-27.849305	-74.416880	26.483633			
14954	10.861260	-0.440129	1.026986	1.599715	0.919476	0.948852	-28.534112	-74.452000	27.290692			
14955	11.061211	-0.188777	1.470035	1.192964	1.241205	1.213787	-29.184689	-74.488062	28.124559			
14956	11.264611	0.084599	1.984699	0.718303	1.581457	1.493090	-29.646376	-74.506136	28.815310			
14957	11.282105	0.343725	2.516612	0.184132	1.874471	1.597386	-29.939123	-74.524654	29.343037			
14958	11.263984	0.267332	2.859711	-0.170368	1.812288	1.668310	-30.084053	-74.562926	29.670665			
14959	11.092632	-0.102902	2.858486	-0.225555	1.423909	1.551712	-30.261945	-74.651965	29.929538			
14960	10.846006	-0.818744	2.795313	-0.241340	0.677697	1.394557	-30.532023	-74.815318	30.176763			
14961	11.136294	-1.597810	2.800416	-0.222018	-0.061940	1.778642	-30.975551	-75.099900	30.526556			
14962	12.525554	-1.532972	2.825997	-0.015934	0.168778	3.117752	-31.479529	-75.501651	30.865468			
14963	13.743038	-1.219183	2.447842	0.514430	0.600625	4.177418	-31.976649	-75.943994	31.093949			
14964	13.731434	-2.276129	2.396172	0.452317	-0.484427	4.295262	-32.481305	-76.390271	31.186743			
14965	13.182344	-4.544291	1.971307	0.616777	-2.851937	3.963940	-32.916205	-76.827539	31.171039			
14966	12.304517	-6.117451	1.592959	0.672042	-4.573012	3.225588	-33.097154	-77.222024	31.006837			
14967	11.447224	-7.116456	1.022132	0.950478	-5.729099	2.393909	-33.088005	-77.542726	30.791865			
14968	10.277843	-7.559012	0.754053	0.934367	-6.348060	1.240378	-32.671055	-77.750680	30.420937			
14969	9.152296	-7.124008	1.164201	0.340957	-6.050593	0.144483	-31.914089	-77.879369	30.005861			
14970	8.495057	-6.049258	1.401516	0.055189	-5.076909	-0.596109	-30.863824	-77.960970	29.527661			
14971	8.543761	-4.300074	1.848528	-0.298445	-3.359124	-0.673195	-29.585329	-78.020777	28.971056			
14972	8.291596	-2.378473	2.665300	-1.101376	-1.509577	-0.979835	-28.138279	-78.086218	28.316651			
14973	8.516177	-0.587117	3.508514	-1.889964	0.234260	-0.782052	-26.624130	-78.157122	27.544119			
14974	8.970757	0.989858	4.024631	-2.347944	1.770560	-0.378507	-25.055095	-78.208922	26.556277			
14975	9.342300	2.027609	4.101346	-2.392515	2.768110	-0.074932	-23.594955	-78.257375	25.470875			
14976	9.988748	2.499763	4.023422	-2.211978	3.239376	0.522939	-22.265292	-78.283682	24.291975			
14977	10.291478	2.091122	3.785748	-1.887860	2.820409	0.822174	-21.064840	-78.259314	23.032600			
14978	10.327838	1.089849	3.529556	-1.554249	1.801651	0.894691	-19.996630	-78.157688	21.753522			
14979	10.147187	-0.058453	3.031504	-1.015209	0.635910	0.709842	-19.114883	-77.989899	20.560369			
14980	9.836778	-1.163344	2.366359	-0.344024	-0.488622	0.353824	-18.396043	-77.767485	19.479102			
14981	9.403528	-1.938062	2.056263	-0.066917	-1.296261	-0.079972	-17.790256	-77.525437	18.533556			
14982	9.043038	-2.297010	2.033831	-0.073052	-1.686626	-0.413799	-17.169058	-77.271127	17.644767			
14983	8.808625	-2.277238	2.053727	-0.104498	-1.690620	-0.640651	-16.557235	-77.024495	16.831499			
14984	8.497758	-1.969063	2.087210	-0.169147	-1.412827	-0.957140	-15.925993	-76.781022	16.053282			
14985	8.264960	-1.526980	2.243690	-0.339510	-0.996365	-1.177455	-15.271757	-76.550406	15.303625			
14986	7.877618	-0.995764	2.390524	-0.536555	-0.501855	-1.552957	-14.584070	-76.333193	14.542465			
14987	7.661085	-0.462620	2.532938	-0.696064	0.004500	-1.760520	-13.905697	-76.158644	13.798733			
14988	7.700584	-0.057978	2.607200	-0.732926	0.395276	-1.725269	-13.210484	-76.012668	13.024160			
14989	7.905010	0.138973	2.619169	-0.673124	0.586414	-1.531896	-12.563511	-75.897465	12.265363			
14990	8.201661	0.207222	2.606979	-0.568139	0.652879	-1.247793	-11.965320	-75.792661	11.518004			
14991	8.437188	0.041440	2.611468	-0.496527	0.484250	-1.007772	-11.494884	-75.704785	10.870213			
14992	8.745377	-0.223272	2.607115	-0.400588	0.222597	-0.695754	-11.146138	-75.615561	10.338225			
14993	8.643959	-0.404041	2.500757	-0.306933	0.028560	-0.810465	-10.927547	-75.514287	9.934380			
14994	8.530719	-0.485335	2.391549	-0.213075	-0.063761	-0.942584	-10.778005	-75.417805	9.616696			
14995	8.259599	-0.396595	2.381883	-0.256428	0.012730	-1.211193	-10.740180	-75.338307	9.437897			
14996	8.023568	-0.063054	2.401601	-0.316867	0.339025	-1.450035	-10.782301	-75.264360	9.354973			
14997	7.741804	0.209562	2.398700	-0.370667	0.605124	-1.736201	-10.920781	-75.211422	9.379239			
14998	7.707318	0.614472	2.385625	-0.351853	1.015572	-1.792940	-11.151077	-75.182903	9.499121			
14999	7.682085	0.912919	2.327800	-0.294052	1.321790	-1.848210	-11.504063	-75.188525	9.738700			
15000	7.884853	1.219312	2.221847	-0.135081	1.645992	-1.696858	-11.922787	-75.222087	10.043868			
15001	8.123631	1.441318	2.066739	0.074110	1.887682	-1.519719	-12.410357	-75.278519	10.417500			
15002	8.290275	1.722137	2.018823	0.162231	2.190193	-1.389698	-12.935510	-75.339061	10.819456			
15003	8.435042	1.839630	2.174153	0.041416	2.340466	-1.223067	-13.572782	-75.419049	11.295236			
15004	8.523348	1.734101	2.593621	-0.357383	2.282099	-1.035121	-14.304865	-75.515560	11.803290			
15005	8.716234	1.406802	3.052512	-0.781389	2.017305	-0.724813	-15.130125	-75.642448	12.323136			
15006	9.062882	1.042578	3.341296	-1.009357	1.719437	-0.304182	-15.873790	-75.780694	12.694324			
15007	9.585313	0.784221	3.117381	-0.696923	1.502813	0.160631	-16.396951	-75.903825	12.822850			
15008	10.051295	0.737263	2.980750	-0.464957	1.487629	0.580951	-16.623645	-75.964113	12.645429			
15009	10.414635	0.513203	2.865791	-0.278603	1.283976	0.921115	-16.722935	-75.964163	12.307252			
15010	10.489528	0.175127	2.370371	0.209366	0.914974	0.901718	-16.794428	-75.910190	11.904353			
15011	10.438431	-0.094083	1.755307	0.788201	0.590621	0.726794	-16.882602	-75.840755	11.506933			
15012	10.180083	0.002122	1.699347	0.805545	0.666357	0.455171	-16.922817	-75.777252	11.079994			
15013	9.986266	0.443759	2.279284	0.254001	1.156975	0.371342	-16.935764	-75.746948	10.680922			
15014	9.839617	1.066711	3.020467	-0.421812	1.851265	0.359532	-16.810201	-75.754862	10.214419			
15015	9.936267	1.448969	3.679902	-0.987546	2.306756	0.583187	-16.476929	-75.820360	9.594012			
15016	10.335858	1.812451	3.862890	-1.023947	2.690750	0.992322	-15.996414	-75.910190	8.801828			
15017	10.688039	1.837897	4.029114	-1.093920	2.737989	1.374473	-15.716784	-76.013979	8.069096			
15018	11.831443	0.927080	4.034717	-0.946125	1.868956	2.545843	-15.538862	-76.181876	7.391343			
15019	13.951755	0.372273	3.832435	-0.344149	1.344598	4.593949	-15.257491	-76.320990	6.650431			
15020	15.272683	-0.378110	3.126669	0.522436	0.513375	5.764133	-15.091227	-76.383936	5.961286			
15021	15.569107	-1.387279	3.177706	0.377217	-0.476441	6.126264	-15.111199	-76.413718	5.417353			
15022	15.136005	-2.347387	3.706811	-0.386003	-1.345227	5.884149	-14.964300	-76.324394	4.697137			
15023	14.676761	-3.515436	3.580713	-0.551817	-2.535334	5.479617	-14.553453	-76.127104	3.804015			
15024	14.129127	-4.908325	2.476534	0.154343	-4.141944	4.770778	-14.093285	-75.915777	3.035882			
15025	13.029306	-5.916571	2.768345	-0.537753	-5.110786	3.826332	-13.717545	-75.702368	2.620854			
15026	9.903180	-5.511082	2.664879	-1.083519	-4.778218	0.748607	-13.686032	-75.424591	2.644736			
15027	7.435337	-3.592192	3.285087	-1.894286	-2.797543	-1.592884	-14.076059	-75.182713	3.094662			
15028	6.105395	-1.045967	3.469128	-1.913770	-0.266802	-2.981072	-14.623040	-74.983431	3.649953			
15029	5.561190	0.878465	3.284100	-1.511766	1.595623	-3.676536	-15.260701	-74.866385	4.211115			
15030	5.887980	2.070996	3.263603	-1.174340	2.790323	-3.453177	-15.993149	-74.780857	4.728827			
15031	6.340970	1.691277	2.770383	-0.640157	2.358477	-3.121573	-16.817681	-74.706597	5.153397			
15032	6.866989	0.777798	2.068762	0.004848	1.359236	-2.728009	-17.485470	-74.649497	5.380151			
15033	7.858450	-0.461858	1.843394	0.239949	0.145677	-1.732599	-18.031349	-74.634615	5.449522			
15034	8.645998	-1.963357	1.763161	0.208166	-1.301961	-0.869626	-18.320165	-74.634840	5.273438			
15035	9.477159	-3.528344	1.526931	0.295134	-2.851873	0.004488	-18.442897	-74.649361	4.945582			
15036	10.219737	-4.878356	1.159556	0.506449	-4.232305	0.742736	-18.508494	-74.675607	4.605967			
15037	10.436586	-5.882697	1.256403	0.208116	-5.177245	1.062042	-18.581877	-74.707013	4.373640			
15038	10.049061	-6.445955	1.443892	-0.227816	-5.681486	0.783896	-18.649981	-74.733771	4.283499			
15039	9.317477	-6.287954	1.682730	-0.620779	-5.479006	0.126148	-18.754088	-74.777876	4.382137			
15040	8.384704	-5.467255	1.770671	-0.754952	-4.676761	-0.818947	-18.938248	-74.822067	4.689019			
15041	7.752065	-4.227334	2.021460	-0.861994	-3.421577	-1.469970	-19.215262	-74.906463	5.197234			
15042	7.722514	-2.843266	2.084707	-0.610871	-2.059653	-1.599768	-19.492154	-75.008221	5.758487			
15043	7.594022	-1.627139	2.030672	-0.327408	-0.891560	-1.841596	-19.678452	-75.131127	6.267056			
15044	7.599914	-0.682243	2.012811	-0.115918	0.023302	-1.922089	-19.731152	-75.266707	6.666160			
15045	7.902980	-0.049765	1.901216	0.178197	0.620438	-1.709760	-19.721980	-75.438464	6.992672			
15046	8.423647	0.059722	1.804277	0.393986	0.718496	-1.236834	-19.665649	-75.619700	7.252561			
15047	8.877213	-0.052181	1.704945	0.545362	0.598694	-0.809436	-19.608793	-75.806087	7.483207			
15048	9.417485	-0.438931	1.723292	0.553441	0.238402	-0.247740	-19.518159	-75.960640	7.682829			
15049	9.516040	-0.807446	1.499057	0.694484	-0.168656	-0.171973	-19.449293	-76.091888	7.894434			
15050	9.508668	-1.127168	1.406656	0.703047	-0.501774	-0.173295	-19.421185	-76.190710	8.164365			
15051	9.394404	-1.374196	1.304212	0.715198	-0.766109	-0.286630	-19.457590	-76.281800	8.528307			
15052	9.314257	-1.532127	1.198862	0.760065	-0.938680	-0.374402	-19.587153	-76.356579	9.010763			
15053	9.215425	-1.378401	1.312572	0.647021	-0.760171	-0.455852	-19.834762	-76.428655	9.636681			
15054	8.909670	-1.191988	1.360859	0.553368	-0.566233	-0.755750	-20.226430	-76.492905	10.418156			
15055	8.868237	-0.672573	1.373432	0.602655	-0.036604	-0.833840	-20.729459	-76.576406	11.324933			
15056	9.136004	-0.106988	1.561975	0.551267	0.584155	-0.578372	-21.238875	-76.657324	12.241546			
15057	9.295459	0.363745	1.850270	0.354735	1.121515	-0.401117	-21.739043	-76.744835	13.134004			
15058	9.502008	0.651442	1.991768	0.278923	1.453620	-0.195578	-22.136353	-76.824549	13.897134			
15059	9.634162	0.858245	2.036506	0.266918	1.683856	-0.076449	-22.453381	-76.893250	14.547793			
15060	9.756432	0.996113	2.092140	0.235247	1.843584	0.041401	-22.661248	-76.947016	15.064607			
15061	9.692567	0.978191	2.140477	0.152660	1.834745	-0.009895	-22.820734	-76.986442	15.508189			
15062	9.716426	0.933812	2.031822	0.243182	1.782757	-0.005962	-22.955934	-77.005032	15.911533			
15063	9.656089	0.814993	1.864252	0.367514	1.646168	-0.089789	-23.106486	-77.006818	16.328455			
15064	9.523722	0.725562	1.844401	0.341000	1.554431	-0.215970	-23.268043	-76.987442	16.765175			
15065	9.404624	0.671898	1.812609	0.334282	1.499212	-0.335105	-23.470086	-76.959821	17.263260			
15066	9.340619	0.603329	1.800504	0.321409	1.436156	-0.395303	-23.671734	-76.914974	17.780188			
15067	9.293184	0.482525	1.799014	0.298616	1.324757	-0.432475	-23.884976	-76.858287	18.332968			
15068	9.241551	0.340999	1.829103	0.246716	1.196266	-0.465162	-24.092369	-76.778373	18.893717			
15069	9.214765	0.192175	1.715521	0.343351	1.049884	-0.502925	-24.318483	-76.676515	19.483170			
15070	9.183744	0.073749	1.609103	0.440659	0.937206	-0.546446	-24.558450	-76.539072	20.100290			
15071	9.120010	-0.049204	1.441722	0.594661	0.817311	-0.634785	-24.862029	-76.370821	20.795276			
15072	9.155371	0.008452	1.123594	0.932901	0.879892	-0.678207	-25.238939	-76.170036	21.580021			
15073	9.067187	0.104095	1.171632	0.889166	1.004586	-0.768491	-25.688267	-75.951203	22.467578			
15074	9.088594	0.337572	1.444763	0.655333	1.292596	-0.718544	-26.161871	-75.723516	23.396493			
15075	9.114416	0.733410	1.486276	0.648168	1.727561	-0.734429	-26.630602	-75.495177	24.312633			
15076	9.372274	1.041048	1.399645	0.811676	2.091514	-0.547217	-27.032928	-75.267013	25.118036			
15077	9.540017	1.429856	1.326568	0.940108	2.527103	-0.456084	-27.335719	-75.046647	25.769801			
15078	9.583213	1.781539	1.329993	0.963685	2.910310	-0.464850	-27.490881	-74.839166	26.215570			
15079	9.609715	2.121492	1.277528	1.034885	3.271785	-0.501198	-27.561027	-74.664101	26.516514			
15080	9.680806	1.992542	2.019057	0.339754	3.191158	-0.248908	-27.594559	-74.549500	26.729172			
15081	10.157906	1.583621	3.095592	-0.590389	2.882028	0.512958	-27.654234	-74.516058	26.901857			
15082	10.792086	1.119784	2.888558	-0.240552	2.495773	1.131720	-27.746117	-74.532223	27.000124			
15083	11.102530	0.487340	2.685021	0.021252	1.903549	1.460690	-27.965434	-74.608555	27.129510			
15084	11.435677	-0.345250	3.179236	-0.405307	1.136157	2.000281	-28.363302	-74.767729	27.340151			
15085	12.197425	-0.994832	3.420796	-0.513521	0.600187	2.869759	-29.023172	-75.007464	27.710872			
15086	12.686402	-1.629430	2.937301	-0.005416	0.025984	3.310815	-29.909370	-75.270990	28.199869			
15087	12.961904	-2.674649	2.923246	-0.033529	-0.957541	3.707344	-30.962040	-75.558713	28.796666			
15088	13.466425	-3.379225	2.817133	0.060964	-1.582014	4.265398	-31.971323	-75.871040	29.303570			
15089	14.105620	-4.004513	1.768934	1.089238	-2.182988	4.753742	-32.731234	-76.180079	29.513600			
15090	13.938792	-4.617690	0.827486	1.847246	-2.894405	4.487908	-33.058397	-76.436506	29.301150			
15091	13.307196	-5.943996	0.809362	1.579439	-4.317758	4.041167	-33.035815	-76.681089	28.878561			
15092	12.529705	-7.223103	0.800125	1.293810	-5.716266	3.433328	-32.538582	-76.867625	28.221375			
15093	11.115549	-8.181128	0.828055	0.904046	-6.858807	2.158580	-31.794487	-76.983914	27.580802			
15094	9.338856	-8.357981	0.850947	0.547510	-7.255839	0.426785	-30.846863	-77.047153	27.050723			
15095	7.847026	-7.334853	1.485628	-0.242443	-6.383675	-1.050724	-29.713743	-77.120368	26.680667			
15096	7.309375	-5.543251	2.191108	-0.876937	-4.665628	-1.662996	-28.339535	-77.214829	26.323705			
15097	7.542487	-3.446509	2.795546	-1.299841	-2.599142	-1.558191	-26.777896	-77.328864	25.884019			
15098	7.926641	-1.603404	3.357001	-1.724542	-0.798633	-1.265209	-25.028480	-77.459495	25.262644			
15099	8.792876	0.203774	4.039508	-2.241262	0.985299	-0.448991	-23.188829	-77.591419	24.442374			
15100	9.658977	1.862132	4.670607	-2.757316	2.598927	0.396116	-21.396174	-77.700774	23.460019			
15101	10.305996	2.759511	4.664222	-2.686944	3.449988	0.979004	-19.810651	-77.788018	22.413059			
15102	10.862081	2.706275	4.342650	-2.270342	3.376746	1.483776	-18.435944	-77.824717	21.314746			
15103	10.848788	1.903940	3.809704	-1.692794	2.544812	1.434232	-17.244351	-77.769814	20.180156			
15104	10.810276	0.744077	3.444077	-1.236904	1.366317	1.406954	-16.165970	-77.586005	19.040283			
15105	10.427562	-0.260695	3.205795	-0.967856	0.325735	1.051746	-15.237371	-77.300147	18.007235			
15106	9.909249	-1.123506	2.842232	-0.606146	-0.569363	0.523741	-14.370827	-76.939454	17.027192			
15107	9.402527	-1.585580	2.525488	-0.311144	-1.062572	-0.010986	-13.550570	-76.540415	16.106644			
15108	8.567413	-1.689680	2.326780	-0.228605	-1.223688	-0.861742	-12.745023	-76.123581	15.206202			
15109	7.984591	-1.694819	2.195432	-0.171684	-1.271664	-1.458102	-11.980986	-75.731214	14.376968			
15110	7.380190	-1.403955	2.314919	-0.389188	-1.034970	-2.029740	-11.214373	-75.374448	13.590981			
15111	7.348138	-1.280886	2.627659	-0.655503	-0.939770	-1.987898	-10.422003	-75.057721	12.827981			
15112	7.163454	-1.090371	2.851568	-0.879861	-0.785807	-2.115703	-9.636088	-74.752514	12.095227			
15113	7.113517	-0.778380	2.682157	-0.702455	-0.488352	-2.218618	-8.966200	-74.495789	11.446140			
15114	7.301924	-0.616716	2.717996	-0.660172	-0.334596	-2.032068	-8.354641	-74.286934	10.847651			
15115	7.701540	-0.413257	2.761782	-0.576814	-0.129015	-1.641856	-7.811990	-74.123254	10.314630			
15116	8.126942	-0.327072	2.825482	-0.502294	-0.040319	-1.217135	-7.347794	-73.986135	9.860188			
15117	8.331501	-0.182083	2.865639	-0.469686	0.098992	-1.013342	-6.975426	-73.856094	9.491259			
15118	8.472957	-0.259841	2.862854	-0.402634	0.017041	-0.874455	-6.681965	-73.735826	9.202584			
15119	8.539504	-0.269574	2.960294	-0.457801	-0.002232	-0.782211	-6.427601	-73.625043	8.961445			
15120	8.371319	-0.217064	3.090668	-0.613379	0.029542	-0.907566	-6.184297	-73.517968	8.733344			
15121	8.239959	-0.152397	3.113434	-0.659299	0.079539	-1.027894	-5.951796	-73.433205	8.517681			
15122	8.207259	0.084351	3.175636	-0.726916	0.303959	-1.047411	-5.736524	-73.371825	8.315596			
15123	8.325229	0.292081	3.106919	-0.629740	0.511211	-0.958888	-5.546296	-73.338345	8.132843			
15124	8.217966	0.569431	3.151129	-0.710993	0.775169	-1.055837	-5.397493	-73.323307	7.977137			
15125	8.302144	0.783005	3.035744	-0.586189	0.992060	-1.013447	-5.336439	-73.335482	7.891715			
15126	8.268824	0.930274	2.964723	-0.536819	1.139896	-1.069639	-5.375730	-73.364118	7.885755			
15127	8.145408	0.965572	2.783194	-0.405882	1.180666	-1.241372	-5.518149	-73.420291	7.972631			
15128	8.004222	0.935906	2.720491	-0.393967	1.154643	-1.395079	-5.758880	-73.497970	8.157398			
15129	7.837960	0.943445	2.553368	-0.295310	1.171742	-1.603962	-6.098921	-73.605645	8.445448			
15130	7.678331	1.001991	2.390791	-0.205033	1.242162	-1.806967	-6.539953	-73.743969	8.836328			
15131	7.664510	1.217955	2.462690	-0.312053	1.469596	-1.810451	-7.035385	-73.923355	9.300726			
15132	7.713076	1.428354	2.594911	-0.464311	1.692115	-1.738880	-7.536293	-74.126607	9.781344			
15133	7.854266	1.730531	2.860937	-0.729172	2.005497	-1.547377	-8.021937	-74.351556	10.249610			
15134	8.055278	1.902472	3.144177	-0.991510	2.189476	-1.291201	-8.449151	-74.581539	10.642512			
15135	8.357040	2.048274	3.387417	-1.190124	2.352876	-0.949415	-8.849653	-74.816550	10.973076			
15136	8.761913	2.022419	3.518545	-1.246218	2.353240	-0.530956	-9.197907	-75.038790	11.198854			
15137	9.251546	1.862480	3.594126	-1.220782	2.225953	-0.038619	-9.498538	-75.239110	11.321967			
15138	9.651838	1.655528	3.403788	-0.953808	2.054630	0.304289	-9.792659	-75.393884	11.372682			
15139	9.931792	1.353965	3.057332	-0.557341	1.788004	0.498150	-10.150317	-75.511625	11.419167			
15140	10.101208	0.957943	2.808062	-0.275499	1.420970	0.615264	-10.586583	-75.597103	11.497454			
15141	10.205086	0.608920	2.635334	-0.086240	1.099607	0.686976	-11.135223	-75.669200	11.650552			
15142	10.239012	0.310231	2.639062	-0.086650	0.826800	0.732789	-11.742366	-75.720702	11.834777			
15143	10.272091	0.186937	2.760222	-0.204154	0.733308	0.798162	-12.385757	-75.759580	12.048729			
15144	10.275264	0.257575	3.148771	-0.586264	0.837388	0.888582	-12.968805	-75.782421	12.239886			
15145	10.160690	0.570240	3.406108	-0.864881	1.177187	0.818988	-13.493838	-75.799455	12.408279			
15146	9.906340	1.024591	3.714604	-1.217931	1.652172	0.616625	-13.950121	-75.803334	12.525828			
15147	9.533473	1.600417	3.745918	-1.321129	2.234601	0.224317	-14.382379	-75.804699	12.600171			
15148	9.271904	1.740364	4.059111	-1.677979	2.396264	0.031890	-14.743300	-75.851830	12.612246			
15149	10.072960	1.408566	4.596535	-2.019923	2.149952	0.951806	-14.875970	-75.938430	12.420971			
15150	11.582991	0.991012	4.405749	-1.494716	1.811512	2.395616	-14.833603	-76.007930	12.030581			
15151	12.884847	0.388468	4.046087	-0.866380	1.259672	3.611307	-14.813146	-76.058108	11.654789			
15152	13.855551	-0.401285	3.798573	-0.445285	0.503050	4.544022	-14.782198	-76.146429	11.340919			
15153	14.048866	-1.201692	4.172974	-0.828103	-0.263504	4.866317	-14.765347	-76.242171	11.028661			
15154	13.897963	-2.336741	4.110891	-0.888864	-1.399683	4.773742	-14.917817	-76.259732	10.774415			
15155	14.383732	-3.499271	3.020231	0.197694	-2.598925	5.069009	-15.327118	-76.169561	10.731119			
15156	14.793654	-4.264841	1.401475	1.817441	-3.453433	5.146450	-15.788395	-76.002326	10.895693			
15157	14.741782	-4.866898	1.647179	1.552023	-4.003785	5.196668	-16.084101	-75.845305	11.279154			
15158	14.269210	-5.949449	3.616254	-0.482906	-4.906611	5.279526	-16.136757	-75.610290	11.648462			
15159	12.818475	-7.812256	2.775239	-0.045988	-6.888302	3.810616	-16.150681	-75.249309	12.015165			
15160	10.998102	-7.028169	1.851255	0.569812	-6.252628	1.778649	-16.314457	-74.816203	12.561985			
15161	8.730003	-3.813074	2.302942	-0.159669	-3.115445	-0.521628	-16.723997	-74.350483	13.298471			
15162	6.296400	0.203781	3.439531	-1.627100	0.840341	-2.872755	-17.299646	-73.876817	14.046244			
15163	3.978641	2.675021	3.338856	-2.007543	3.161897	-5.328786	-18.059815	-73.480367	14.843021			
15164	3.260966	2.732494	3.297851	-2.146137	3.183676	-6.039823	-18.844103	-73.218383	15.625044			
15165	4.156076	1.425039	2.701130	-1.371646	1.931604	-5.231502	-19.543054	-73.094994	16.226065			
15166	6.343925	-0.151078	2.272240	-0.415899	0.531157	-3.106261	-20.029458	-73.090340	16.502257			
15167	8.172846	-1.516584	2.363900	-0.068455	-0.656312	-1.195960	-20.255913	-73.173580	16.499481			
15168	9.249509	-2.691925	2.015714	0.482671	-1.761303	-0.141712	-20.335102	-73.288767	16.357896			
15169	9.902770	-4.132570	1.001662	1.525272	-3.225023	0.356825	-20.485588	-73.418502	16.309516			
15170	10.335723	-5.339790	0.861587	1.674750	-4.402425	0.859549	-20.694416	-73.540457	16.432288			
15171	10.730790	-5.921000	1.383380	1.219652	-4.897153	1.441295	-20.989189	-73.658179	16.786472			
15172	10.309976	-5.699128	1.737193	0.766107	-4.668936	1.114691	-21.320536	-73.754444	17.302206			
15173	9.390288	-5.012011	2.047720	0.258427	-4.022756	0.249198	-21.710378	-73.827294	17.984644			
15174	8.478973	-3.749244	2.358352	-0.212263	-2.808279	-0.670471	-22.124551	-73.869548	18.764697			
15175	7.879950	-2.489973	2.523806	-0.469218	-1.586889	-1.331839	-22.517986	-73.899262	19.561719			
15176	7.527415	-1.501585	2.588712	-0.586658	-0.624620	-1.757637	-22.853720	-73.915777	20.305444			
15177	7.161910	-0.768325	2.603885	-0.679001	0.074881	-2.184002	-23.112004	-73.941117	20.954055			
15178	6.902714	-0.421545	2.229808	-0.385475	0.376298	-2.566515	-23.263113	-73.998644	21.489031			
15179	7.369630	-0.306446	2.036198	-0.091715	0.526544	-2.179486	-23.292653	-74.114092	21.905475			
15180	7.952875	-0.664009	1.901703	0.165072	0.216871	-1.613219	-23.132893	-74.255337	22.150245			
15181	8.574822	-0.961093	1.846225	0.355239	-0.031263	-0.996079	-22.867894	-74.420222	22.302184			
15182	9.130842	-1.367767	1.576921	0.737712	-0.403569	-0.484097	-22.521149	-74.592460	22.363617			
15183	9.472097	-1.625831	1.478635	0.901847	-0.646903	-0.152540	-22.160428	-74.771083	22.431921			
15184	9.942240	-1.735821	1.482303	0.997134	-0.727256	0.313280	-21.868361	-74.950304	22.625319			
15185	10.142379	-1.481450	1.562377	0.942179	-0.467700	0.502209	-21.680450	-75.110196	22.963818			
15186	10.101286	-0.950231	1.670758	0.788370	0.048020	0.439457	-21.640913	-75.254883	23.466739			
15187	9.971567	-0.247427	1.885887	0.492689	0.727213	0.300586	-21.725270	-75.376814	24.090362			
15188	9.697736	0.408572	2.049314	0.208364	1.346499	0.013612	-21.858021	-75.467877	24.740576			
15189	9.384220	0.896584	2.273432	-0.140084	1.789715	-0.283093	-21.996522	-75.544320	25.363240			
15190	9.044347	1.087820	2.444794	-0.423834	1.932980	-0.590731	-22.113176	-75.606380	25.918597			
15191	8.898588	1.146376	2.540836	-0.580028	1.965860	-0.715776	-22.213897	-75.673944	26.412476			
15192	8.784452	0.955013	2.546897	-0.618181	1.758190	-0.807583	-22.323447	-75.738335	26.867093			
15193	8.969343	0.751102	2.475153	-0.511272	1.577640	-0.626325	-22.462752	-75.807323	27.322185			
15194	8.974364	0.431983	2.409285	-0.435258	1.265027	-0.607216	-22.647848	-75.865456	27.802629			
15195	9.131099	0.251800	2.314749	-0.309873	1.113500	-0.460549	-22.906345	-75.914015	28.358553			
15196	9.182425	0.050060	2.258337	-0.239554	0.929463	-0.405339	-23.215346	-75.949240	28.985089			
15197	9.263231	0.026361	2.115287	-0.096980	0.936209	-0.357706	-23.553310	-75.969209	29.666069			
15198	9.251590	0.104778	1.874680	0.111121	1.044473	-0.431109	-23.830954	-75.971326	30.328094			
15199	9.115466	0.235425	1.680015	0.242778	1.186682	-0.620168	-24.062927	-75.957197	30.979726			
15200	9.040657	0.412126	1.437543	0.428579	1.388131	-0.765078	-24.217716	-75.928568	31.582807			
15201	8.967094	0.664978	1.355720	0.446775	1.648549	-0.881192	-24.363878	-75.887288	32.183404			
15202	8.968438	0.798996	1.497438	0.280990	1.775253	-0.863771	-24.515979	-75.825545	32.768531			
15203	9.134636	0.862895	1.912432	-0.103658	1.819655	-0.619122	-24.740130	-75.748204	33.377019			
15204	9.184093	0.744771	2.212230	-0.368066	1.685101	-0.494901	-25.035998	-75.647126	33.977689			
15205	9.320993	0.651718	2.186322	-0.301493	1.636720	-0.361981	-25.459915	-75.538060	34.611810			
15206	9.446781	0.744858	1.879188	0.004197	1.815009	-0.324090	-25.945436	-75.421466	35.213465			
15207	9.441228	0.923957	1.772693	0.075118	2.032695	-0.378952	-26.430794	-75.303873	35.760912			
15208	9.281848	1.371301	1.778365	-0.037643	2.471044	-0.588359	-26.787364	-75.187047	36.148471			
15209	9.056764	1.737041	1.873335	-0.234848	2.799786	-0.831725	-26.992555	-75.100649	36.367215			
15210	9.008622	1.805553	2.193959	-0.562312	2.822806	-0.815781	-27.101882	-75.080505	36.459243			
15211	9.447954	1.639182	2.062697	-0.320460	2.749493	-0.402955	-27.280792	-75.143405	36.556516			
15212	10.191969	1.138430	2.172210	-0.201731	2.357080	0.399765	-27.624820	-75.278374	36.761072			
15213	11.330489	0.425718	2.167534	0.125198	1.834154	1.583781	-28.175581	-75.445352	37.146503			
15214	12.141915	-0.108102	2.208998	0.296835	1.432787	2.441957	-28.791383	-75.597249	37.650190			
15215	12.474444	-0.419153	2.359757	0.224078	1.166458	2.834245	-29.447919	-75.729660	38.239107			
15216	12.396820	-0.694165	3.026527	-0.435603	0.804178	2.934321	-30.123302	-75.871732	38.835028			
15217	12.055315	-0.968016	3.233822	-0.706609	0.466471	2.677635	-30.901871	-76.036569	39.432392			
15218	11.518136	-1.935796	2.900701	-0.382748	-0.508998	2.204924	-31.713230	-76.206752	39.954398			
15219	11.162973	-2.571713	2.610059	-0.124507	-1.143604	1.879809	-32.412495	-76.402228	40.319494			
15220	11.230749	-2.674588	2.352066	0.095820	-1.211960	1.906400	-32.805798	-76.648829	40.338556			
15221	11.586461	-3.629007	2.072088	0.500679	-2.093234	2.314819	-32.987032	-76.972747	40.088670			
15222	11.929226	-4.972490	1.345455	1.375053	-3.339027	2.669364	-32.770111	-77.322769	39.465693			
15223	11.541427	-6.298464	0.930966	1.808223	-4.725952	2.358454	-32.312850	-77.671254	38.680364			
15224	10.874270	-7.658049	0.198272	2.511213	-6.155212	1.708648	-31.789534	-78.027161	37.987083			
15225	10.495031	-8.332607	0.031745	2.654623	-6.916328	1.354051	-30.939508	-78.321226	37.270724			
15226	9.666445	-8.392033	0.277933	2.304511	-7.151337	0.555089	-29.729930	-78.557964	36.511550			
15227	10.003303	-7.761944	0.544546	2.081937	-6.560969	0.828211	-28.211390	-78.769339	35.744993			
15228	9.950381	-6.250472	1.138989	1.373759	-5.192017	0.700660	-26.455068	-78.922178	34.948705			
15229	9.661745	-4.161676	1.856073	0.392417	-3.317156	0.334015	-24.649664	-79.046318	34.203721			
15230	9.451193	-2.183483	2.701998	-0.743335	-1.592997	0.102083	-22.916483	-79.150927	33.527558			
15231	9.742435	-0.364348	3.629361	-1.911330	-0.022740	0.413049	-21.265764	-79.243565	32.857210			
15232	10.265538	1.306839	4.317456	-2.828680	1.441075	0.941415	-19.675093	-79.293482	32.058071			
15233	10.673968	2.226817	4.411292	-3.049263	2.276538	1.317034	-18.136285	-79.267848	31.072503			
15234	10.841156	2.626342	4.411887	-3.092077	2.618990	1.477694	-16.710801	-79.155316	29.980493			
15235	10.982599	2.069892	4.014821	-2.516211	2.141770	1.593536	-15.472944	-78.966057	28.842441			
15236	10.738142	1.143385	3.432076	-1.720204	1.332239	1.307556	-14.367682	-78.691269	27.692416			
15237	10.272827	0.306280	2.766101	-0.897123	0.621166	0.774332	-13.464431	-78.348863	26.641167			
15238	9.567237	-0.518242	2.301388	-0.316103	-0.139148	0.035017	-12.634343	-77.965348	25.630532			
15239	9.399043	-1.020148	2.160949	-0.026350	-0.608313	-0.133782	-11.827056	-77.552967	24.653543			
15240	8.414392	-1.390743	2.197211	-0.099439	-1.061305	-1.070418	-11.080838	-77.125015	23.780741			
15241	8.025099	-1.375443	2.170324	-0.091999	-1.073105	-1.455414	-10.329336	-76.717748	22.957521			
15242	7.428219	-1.304589	2.056585	-0.065948	-1.035033	-2.064525	-9.535886	-76.334442	22.142793			
15243	7.544720	-1.084721	2.160572	-0.134265	-0.837693	-1.935663	-8.728953	-76.009216	21.378488			
15244	7.430596	-0.710539	2.347943	-0.371490	-0.532958	-2.014662	-7.863361	-75.721610	20.588434			
15245	7.612611	-0.434302	2.534926	-0.523959	-0.302769	-1.800201	-6.981839	-75.483486	19.790846			
15246	7.993032	0.004896	2.787699	-0.730473	0.084988	-1.379487	-6.127046	-75.265286	19.014103			
15247	8.279311	0.381785	3.027140	-0.934039	0.405391	-1.048019	-5.367110	-75.070977	18.295797			
15248	8.551117	0.584940	3.034274	-0.883900	0.606387	-0.783764	-4.736581	-74.893197	17.667443			
15249	8.770392	0.680171	3.005215	-0.789839	0.709667	-0.577637	-4.249623	-74.721094	17.137649			
15250	8.662557	0.694505	2.928348	-0.716083	0.723539	-0.698901	-3.898822	-74.562335	16.701657			
15251	8.464238	0.559081	2.741467	-0.532474	0.611899	-0.934989	-3.638792	-74.410602	16.324777			
15252	8.313319	0.395849	2.640976	-0.415230	0.459863	-1.102992	-3.406290	-74.275335	15.973934			
15253	8.139083	0.258604	2.576549	-0.348920	0.323716	-1.284875	-3.198607	-74.162868	15.657025			
15254	7.902920	0.225071	2.383597	-0.205052	0.310398	-1.563450	-3.022851	-74.072122	15.393227			
15255	7.612094	0.310147	2.248051	-0.161558	0.396931	-1.881089	-2.881417	-74.022431	15.201521			
15256	7.446025	0.566301	2.174574	-0.185978	0.646751	-2.064147	-2.779113	-74.011027	15.086461			
15257	7.395163	0.896707	2.206605	-0.301309	0.955991	-2.108343	-2.716735	-74.040803	15.042622			
15258	7.514596	1.413388	2.276533	-0.451846	1.451797	-1.980859	-2.702950	-74.094814	15.051389			
15259	7.615340	1.808550	2.305371	-0.547018	1.837258	-1.881468	-2.758251	-74.172475	15.106983			
15260	7.694210	2.192325	2.308110	-0.623459	2.217578	-1.810928	-2.900264	-74.268197	15.215542			
15261	7.704952	2.507750	2.426230	-0.814327	2.506185	-1.775426	-3.148872	-74.387363	15.386859			
15262	7.741394	2.630645	2.637651	-1.046344	2.593606	-1.689571	-3.493804	-74.525350	15.601230			
15263	7.841105	2.675709	2.888952	-1.286517	2.605487	-1.533518	-3.911167	-74.698546	15.841896			
15264	8.008848	2.611746	3.259820	-1.603298	2.494404	-1.280595	-4.320977	-74.901322	16.031753			
15265	8.295944	2.430399	3.625205	-1.866507	2.279280	-0.913666	-4.670131	-75.131863	16.118168			
15266	8.733270	2.137384	3.698531	-1.796422	2.019009	-0.473847	-4.870756	-75.353523	16.015925			
15267	9.269858	1.868602	3.661209	-1.601954	1.803963	0.036466	-4.885463	-75.540187	15.710445			
15268	9.768761	1.512739	3.464819	-1.242749	1.522045	0.476189	-4.753678	-75.666833	15.214126			
15269	10.245553	1.043483	3.306864	-0.897599	1.116755	0.908448	-4.624518	-75.724361	14.645235			
15270	10.497688	0.413343	3.330886	-0.746167	0.510604	1.171375	-4.612067	-75.720103	14.116064			
15271	10.433274	-0.194860	2.884574	-0.228747	-0.013434	1.011334	-4.782042	-75.690839	13.719756			
15272	10.475522	-0.568675	2.302448	0.399098	-0.283447	0.916786	-5.059516	-75.670203	13.465608			
15273	10.379355	-0.292161	2.561868	0.083266	-0.039735	0.881751	-5.376540	-75.665490	13.359790			
15274	10.311731	0.206646	3.078713	-0.501826	0.396837	0.931783	-5.680486	-75.667529	13.358055			
15275	10.039506	0.958172	3.854435	-1.420402	1.042386	0.839182	-5.918635	-75.715177	13.392911			
15276	10.491208	1.024717	5.093316	-2.526431	0.988480	1.575787	-5.908570	-75.841749	13.234353			
15277	11.595643	0.956560	5.039555	-2.225166	0.985021	2.631162	-5.700472	-75.975145	12.822115			
15278	13.226466	0.604610	4.904751	-1.690190	0.728371	4.186390	-5.463039	-76.123815	12.299187			
15279	15.411420	0.015663	4.020685	-0.278917	0.345081	6.108402	-5.391118	-76.210447	11.899027			
15280	15.589432	-0.304590	3.545676	0.249030	0.085451	6.175610	-5.493220	-76.204237	11.703451			
15281	14.742711	-0.583689	4.104166	-0.449222	-0.280397	5.492604	-5.601119	-76.130721	11.515097			
15282	13.470495	-1.125221	3.402710	0.016785	-0.799082	4.103484	-5.643728	-75.928776	11.159090			
15283	12.832465	-2.220946	1.972962	1.395267	-1.781537	3.163312	-5.720078	-75.682202	10.805676			
15284	13.285934	-4.000315	1.337358	2.321427	-3.475157	3.485479	-5.755731	-75.475231	10.667883			
15285	14.313100	-5.965294	2.740047	1.443459	-5.488395	4.875779	-5.735694	-75.270572	10.740691			
15286	13.982068	-7.358776	2.359447	1.937024	-6.837361	4.495150	-5.947694	-74.908411	11.102004			
15287	11.443931	-5.851170	1.375978	2.192765	-5.337273	1.754394	-6.529536	-74.487599	11.836606			
15288	8.464768	-2.820281	2.443903	0.169373	-2.530153	-0.916160	-7.181745	-74.152897	12.705241			
15289	6.439628	-0.068496	3.608757	-1.725117	0.013704	-2.634922	-7.885669	-73.914263	13.557062			
15290	4.975455	1.272247	3.204971	-1.853781	1.312837	-4.201494	-8.715717	-73.707873	14.384070			
15291	4.080922	1.968815	2.928591	-1.893386	1.992524	-5.170309	-9.543061	-73.550312	15.080683			
15292	4.548394	1.914826	2.945828	-1.766538	1.995460	-4.720558	-10.147268	-73.486427	15.453787			
15293	6.169370	1.217882	2.697019	-1.011703	1.465572	-3.206114	-10.554561	-73.538401	15.540502			
15294	8.261068	0.009850	2.318867	0.027405	0.462708	-1.244863	-10.775571	-73.643846	15.365094			
15295	9.516435	-1.395438	1.880741	0.891727	-0.811100	-0.086750	-10.913655	-73.737827	15.056618			
15296	10.309011	-2.544974	1.306697	1.723145	-1.868926	0.579515	-11.071270	-73.798931	14.751131			
15297	10.427739	-3.730679	0.995608	2.107925	-3.031896	0.675931	-11.295980	-73.852988	14.571658			
15298	10.225710	-4.458574	1.149194	1.922580	-3.782146	0.568240	-11.497432	-73.902645	14.509554			
15299	9.778755	-4.584695	1.326870	1.616557	-3.943719	0.199198	-11.739298	-73.938295	14.627344			
15300	8.914928	-4.257639	1.244316	1.433157	-3.664690	-0.665675	-12.089029	-73.966195	14.955556			
15301	8.346449	-3.525881	1.696282	0.794462	-2.978130	-1.125228	-12.577073	-74.025909	15.496376			
15302	8.122999	-2.463514	2.223000	0.155068	-1.939256	-1.256465	-13.097468	-74.092024	16.122029			
15303	7.923040	-1.535031	2.590029	-0.319311	-1.028537	-1.405592	-13.569872	-74.152874	16.704177			
15304	7.914308	-0.870217	2.588043	-0.374023	-0.353395	-1.456450	-13.984599	-74.219138	17.206635			
15305	7.941343	-0.482449	2.553360	-0.373987	0.047715	-1.465522	-14.368477	-74.305119	17.648153			
15306	8.107338	-0.448886	2.351640	-0.155910	0.113958	-1.361456	-14.735090	-74.399372	18.054757			
15307	8.462533	-0.575664	2.139118	0.129096	0.035820	-1.066049	-15.061918	-74.509784	18.409418			
15308	8.571611	-0.924075	1.957697	0.335550	-0.286368	-0.982944	-15.351903	-74.620261	18.722832			
15309	8.630065	-1.411429	1.799772	0.515715	-0.753475	-0.931493	-15.614370	-74.735979	19.021016			
15310	8.718828	-1.673848	1.596556	0.732574	-0.993151	-0.877047	-15.836357	-74.857193	19.302032			
15311	8.799124	-1.866340	1.558543	0.782470	-1.172652	-0.793294	-16.058294	-74.983822	19.612840			
15312	8.949662	-1.798233	1.477682	0.872380	-1.083757	-0.670586	-16.309438	-75.117667	19.989792			
15313	9.127566	-1.473499	1.516292	0.831131	-0.741290	-0.509868	-16.640673	-75.263118	20.485328			
15314	9.376668	-0.996922	1.648850	0.699538	-0.243769	-0.268809	-17.065124	-75.412125	21.094756			
15315	9.579792	-0.532194	1.727617	0.603771	0.243443	-0.085591	-17.558382	-75.558164	21.777964			
15316	9.678517	-0.058870	1.661589	0.620541	0.740855	-0.040073	-18.088193	-75.684273	22.493584			
15317	9.694190	0.361867	1.789348	0.433229	1.166385	-0.026891	-18.609203	-75.797695	23.193720			
15318	9.650086	0.625589	1.935978	0.229373	1.427553	-0.057026	-19.095878	-75.889225	23.833082			
15319	9.632610	0.714137	1.917310	0.210427	1.527943	-0.086728	-19.562424	-75.964884	24.415820			
15320	9.646931	0.671287	1.943760	0.171429	1.497293	-0.064826	-19.978681	-76.020885	24.919235			
15321	9.514401	0.547217	1.940399	0.140844	1.372719	-0.185424	-20.367015	-76.060130	25.368523			
15322	9.466051	0.313372	1.998101	0.084057	1.143572	-0.201138	-20.759063	-76.084308	25.806191			
15323	9.293139	0.056607	1.939580	0.117329	0.888699	-0.361548	-21.182107	-76.098167	26.266221			
15324	9.240483	-0.206319	1.932851	0.128875	0.638275	-0.392445	-21.648098	-76.099981	26.780127			
15325	9.311485	-0.441671	1.841445	0.247126	0.437465	-0.323891	-22.155413	-76.091975	27.354600			
15326	9.331397	-0.511239	1.722709	0.366235	0.400002	-0.325333	-22.676406	-76.067266	27.979919			
15327	9.351430	-0.501288	1.564026	0.516288	0.446821	-0.342711	-23.225581	-76.038332	28.680376			
15328	9.430912	-0.411791	1.353277	0.721647	0.586495	-0.321732	-23.792637	-75.992847	29.440889			
15329	9.525204	-0.163667	1.175257	0.881481	0.885392	-0.295517	-24.326075	-75.925995	30.206205			
15330	9.439768	0.102199	1.059449	0.941888	1.176286	-0.433390	-24.821350	-75.840591	30.955872			
15331	9.461146	0.193639	1.166996	0.827115	1.288647	-0.401638	-25.348816	-75.747727	31.742044			
15332	9.348063	0.320966	1.310070	0.645697	1.416100	-0.496935	-25.882063	-75.638396	32.522215			
15333	9.126137	0.310469	1.367200	0.543120	1.401229	-0.702610	-26.421975	-75.513774	33.289320			
15334	8.836412	0.312031	1.495970	0.357783	1.379436	-0.959070	-26.914678	-75.380987	33.992090			
15335	8.652241	0.262767	1.598308	0.227074	1.321269	-1.112829	-27.386117	-75.264050	34.646290			
15336	8.684468	0.351841	1.647838	0.172387	1.431927	-1.084630	-27.812993	-75.173813	35.228412			
15337	8.725646	0.503051	1.625502	0.178327	1.609037	-1.071327	-28.156537	-75.101252	35.705134			
15338	8.859033	0.583666	1.772291	0.050617	1.706295	-0.921673	-28.361197	-75.044374	36.029259			
15339	8.997287	0.664888	1.787370	0.051278	1.814621	-0.796455	-28.465055	-75.009831	36.241997			
15340	9.329714	0.588603	1.673900	0.239442	1.808889	-0.492679	-28.519982	-74.999511	36.392983			
15341	9.618112	0.447869	1.284856	0.690044	1.764581	-0.285379	-28.642127	-75.026498	36.608319			
15342	10.023161	0.335749	1.063542	0.990859	1.747656	0.070201	-28.906184	-75.086754	36.977422			
15343	10.540758	0.171766	1.256802	0.911844	1.650590	0.635310	-29.327176	-75.168266	37.544622			
15344	11.122047	0.145584	1.169736	1.087315	1.737855	1.182170	-29.834631	-75.250337	38.228485			
15345	11.479572	0.105725	1.786454	0.535599	1.689677	1.669525	-30.313083	-75.313650	38.945747			
15346	11.538499	0.074562	2.423278	-0.094203	1.595008	1.868999	-30.716971	-75.371701	39.594377			
15347	11.438251	0.113750	2.657332	-0.377172	1.591828	1.816229	-31.135717	-75.451307	40.190041			
15348	11.294671	0.176364	2.908322	-0.691903	1.599489	1.720822	-31.678968	-75.566569	40.768072			
15349	11.054325	-0.238188	2.886204	-0.686092	1.165783	1.534342	-32.422350	-75.719109	41.379041			
15350	11.033702	-1.091812	2.874683	-0.585520	0.337823	1.621525	-33.274155	-75.921922	41.965049			
15351	11.293854	-1.725948	2.123130	0.230080	-0.138283	1.804767	-34.170466	-76.193145	42.485040			
15352	12.018983	-2.520079	2.027377	0.487564	-0.799527	2.598561	-35.239884	-76.576994	43.055359			
15353	13.067973	-3.582272	1.888620	0.838280	-1.685018	3.738250	-36.366472	-77.017395	43.617639			
15354	13.126345	-4.892704	1.082056	1.685657	-2.912994	3.828494	-37.250085	-77.409372	43.933744			
15355	12.389436	-6.369391	0.488974	2.220189	-4.463137	3.204853	-37.812736	-77.736868	44.025384			
15356	11.448987	-7.489541	0.082656	2.521130	-5.712837	2.360490	-37.903748	-77.984773	43.868240			
15357	10.521233	-7.199581	0.491676	1.910314	-5.638199	1.471521	-37.495294	-78.170254	43.537641			
15358	10.047082	-6.144520	1.497252	0.740258	-4.796277	1.021900	-36.731617	-78.334714	43.130264			
15359	9.909627	-4.613622	1.946081	0.127855	-3.392133	0.758511	-35.638577	-78.443467	42.521203			
15360	9.441780	-3.061917	2.498859	-0.643056	-2.033953	0.198107	-34.286812	-78.527260	41.712126			
15361	9.580675	-1.642970	3.516563	-1.775416	-0.796488	0.339551	-32.677198	-78.566877	40.654621			
15362	9.571912	-0.362076	3.973372	-2.373110	0.343400	0.276431	-31.041326	-78.546162	39.423872			
15363	9.936557	0.594889	4.054985	-2.507205	1.268992	0.562054	-29.565729	-78.499160	38.133618			
15364	10.078535	1.087640	3.468773	-1.950220	1.817817	0.564411	-28.261426	-78.416172	36.753984			
15365	10.202603	0.961621	2.840833	-1.250293	1.773575	0.597841	-27.024545	-78.291265	35.280484			
15366	10.040741	0.502217	2.208674	-0.536599	1.371170	0.374492	-25.914226	-78.127806	33.794091			
15367	9.721718	-0.497296	1.729435	0.073732	0.396638	0.065930	-24.871889	-77.944058	32.327645			
15368	9.772647	-1.342313	1.508196	0.462737	-0.421079	0.146703	-23.842181	-77.746158	30.885830			
15369	9.585604	-2.126814	1.279342	0.797623	-1.208304	-0.017409	-22.870069	-77.530166	29.541301			
15370	9.393215	-2.491163	1.487259	0.647383	-1.627965	-0.138973	-21.864465	-77.291701	28.261662			
15371	9.156907	-2.409905	1.775954	0.356830	-1.617181	-0.322282	-20.844669	-77.046106	27.067053			
15372	9.056328	-2.190707	2.118251	0.029400	-1.460464	-0.369744	-19.740900	-76.783378	25.882335			
15373	8.872201	-1.629291	2.424186	-0.314372	-0.971660	-0.528080	-18.539607	-76.508601	24.629749			
15374	8.562694	-1.278887	2.293288	-0.235865	-0.664953	-0.884286	-17.292673	-76.239512	23.325570			
15375	8.192566	-0.680225	2.418925	-0.451433	-0.144404	-1.256573	-15.975452	-75.978771	21.935357			
15376	7.960346	-0.133310	2.478997	-0.570133	0.342807	-1.500802	-14.656836	-75.732302	20.511846			
15377	7.899767	0.291968	2.582240	-0.681200	0.721252	-1.555870	-13.424278	-75.508649	19.130077			
15378	8.118299	0.398566	2.644582	-0.654466	0.810905	-1.328979	-12.271503	-75.305705	17.788098			
15379	8.537631	0.211158	2.969053	-0.801012	0.600092	-0.826642	-11.163057	-75.095304	16.492726			
15380	8.610916	0.133791	2.581881	-0.354388	0.534598	-0.844953	-10.269432	-74.859737	15.351102			
15381	8.542447	-0.292672	1.951371	0.319522	0.134994	-1.052183	-9.611539	-74.644028	14.395973			
15382	8.705339	-0.443771	2.030503	0.335463	-0.027508	-0.869009	-9.100113	-74.453008	13.629035			
15383	8.647631	-0.453285	2.042457	0.341333	-0.054003	-0.922293	-8.735772	-74.279014	13.032145			
15384	8.315193	-0.386539	1.931284	0.381782	-0.008650	-1.275954	-8.488635	-74.131594	12.580041			
15385	8.209870	-0.316848	1.695655	0.593745	0.063491	-1.444831	-8.320099	-74.039233	12.245865			
15386	8.017516	-0.188783	1.714785	0.526526	0.174202	-1.630444	-8.213927	-73.980083	12.008235			
15387	7.983354	0.026821	2.041019	0.195932	0.364700	-1.582923	-8.114606	-73.951709	11.823304			
15388	7.968265	0.353876	2.132692	0.086618	0.681941	-1.585032	-8.041724	-73.921081	11.677435			
15389	7.972253	0.482638	2.176764	0.041465	0.807351	-1.574088	-8.042228	-73.899157	11.588682			
15390	7.954180	0.660029	2.086993	0.114767	0.990040	-1.623255	-8.124694	-73.884420	11.556912			
15391	7.823947	0.830143	2.054199	0.101926	1.159394	-1.764804	-8.317894	-73.884903	11.597894			
15392	7.646391	1.002339	2.111019	-0.011895	1.327453	-1.928140	-8.632568	-73.911851	11.721443			
15393	7.520477	1.145928	2.219275	-0.162872	1.471978	-2.027918	-9.090944	-73.976404	11.936724			
15394	7.556474	1.231113	2.496431	-0.433020	1.565365	-1.925344	-9.663804	-74.080238	12.224727			
15395	7.862082	1.322664	3.162840	-1.010895	1.673579	-1.461492	-10.327299	-74.219692	12.551745			
15396	8.436637	0.930954	3.712642	-1.389026	1.328113	-0.749915	-10.969199	-74.373588	12.824343			
15397	9.253946	0.618859	3.941645	-1.405613	1.085877	0.106996	-11.404249	-74.521932	12.919356			
15398	10.021001	0.487955	3.802172	-1.085340	1.020452	0.812554	-11.603104	-74.616534	12.781525			
15399	10.535556	0.420793	4.016413	-1.162930	0.991862	1.366328	-11.669486	-74.632929	12.484974			
15400	10.609711	0.208773	3.818177	-0.937419	0.799107	1.397604	-11.798108	-74.564477	12.155776			
15401	10.461347	-0.029238	3.076095	-0.235316	0.571081	1.074067	-12.074672	-74.445361	11.891796			
15402	10.188531	-0.123931	2.527239	0.247088	0.475054	0.671666	-12.402980	-74.321792	11.698309			
15403	10.002981	-0.058144	2.466693	0.277421	0.546176	0.471877	-12.689259	-74.221589	11.553913			
15404	9.791781	0.219821	2.494389	0.214542	0.827153	0.258015	-12.951851	-74.151994	11.458130			
15405	9.325044	0.631738	2.573080	0.031092	1.228719	-0.196787	-13.232042	-74.141131	11.420493			
15406	8.869281	1.081966	2.726020	-0.228865	1.671534	-0.624675	-13.547723	-74.223376	11.462128			
15407	9.050815	1.246857	3.517705	-0.958314	1.890876	-0.254849	-13.834532	-74.438039	11.535090			
15408	10.318257	1.251777	3.853044	-0.986094	1.985416	1.048477	-14.027808	-74.706944	11.518688			
15409	11.981310	1.262466	4.091624	-0.832187	2.099905	2.708681	-14.247706	-74.960123	11.456657			
15410	14.189883	0.701235	4.055564	-0.307511	1.657263	4.865555	-14.484501	-75.194174	11.352239			
15411	15.383413	0.437528	4.161012	-0.162200	1.467133	6.061065	-14.668054	-75.321435	11.106319			
15412	14.651403	-0.023542	3.795371	-0.026110	0.950748	5.292424	-14.686933	-75.337484	10.589400			
15413	13.114442	-0.600384	2.813702	0.515881	0.218960	3.601925	-14.353504	-75.272200	9.797800			
15414	11.988026	-1.980299	1.611291	1.312850	-1.330115	2.300848	-13.909198	-75.195080	9.054172			
15415	12.333435	-4.249409	1.583964	1.260982	-3.597857	2.762899	-13.678519	-75.135862	8.675883			
15416	14.061305	-6.057381	3.468234	-0.247239	-5.165325	5.009562	-13.577013	-75.050416	8.563788			
15417	15.137991	-7.426252	3.706426	-0.271604	-6.455535	6.196609	-13.721434	-74.824362	8.673435			
15418	13.971577	-6.505215	2.057332	1.157470	-5.705738	4.604645	-14.214555	-74.481164	9.166556			
15419	11.084618	-2.622319	3.191297	-0.308972	-1.815971	1.872168	-14.770363	-74.096786	9.830878			
15420	8.287490	-0.126166	3.229283	-0.845382	0.578107	-0.976541	-15.371505	-73.720572	10.445853			
15421	6.178243	1.079562	2.769808	-0.852062	1.659667	-3.215165	-16.050425	-73.392147	11.019262			
15422	4.705343	1.450098	2.576944	-1.021438	1.958052	-4.713055	-16.830079	-73.124107	11.557199			
15423	4.281665	1.758160	2.724336	-1.233537	2.282779	-5.110244	-17.662375	-72.940496	12.045571			
15424	4.938453	1.496472	2.565711	-0.894791	2.075911	-4.511701	-18.470362	-72.843451	12.402562			
15425	6.460859	0.604742	2.324330	-0.295050	1.288255	-3.047763	-19.133789	-72.833207	12.554292			
15426	7.931093	-0.824073	2.141945	0.157310	-0.034095	-1.557790	-19.595554	-72.875662	12.442509			
15427	9.134544	-2.396612	1.892491	0.547498	-1.536796	-0.320396	-19.820557	-72.951324	12.093150			
15428	9.905344	-3.920807	1.380000	1.037086	-3.070769	0.428779	-19.920068	-73.019703	11.642178			
15429	9.996745	-5.234003	1.035088	1.175497	-4.418864	0.555184	-20.075953	-73.078423	11.325932			
15430	9.818583	-6.063020	0.987746	1.009515	-5.253193	0.459854	-20.321744	-73.140986	11.223581			
15431	9.387233	-6.213609	1.170106	0.653815	-5.387993	0.119089	-20.629700	-73.215992	11.342714			
15432	8.801119	-5.568399	1.395884	0.343777	-4.737345	-0.439609	-20.932317	-73.300550	11.620267			
15433	8.524622	-4.527926	1.618438	0.193434	-3.681427	-0.746249	-21.222331	-73.402409	12.011124			
15434	8.398458	-3.238378	1.947934	0.022052	-2.355995	-0.909630	-21.469151	-73.506973	12.433186			
15435	8.381069	-1.987349	2.087183	0.051322	-1.096857	-1.018231	-21.641971	-73.605146	12.803975			
15436	8.328403	-0.930658	2.067754	0.189376	-0.059998	-1.183403	-21.722597	-73.692772	13.078812			
15437	8.118929	-0.201003	1.880811	0.394327	0.615805	-1.508463	-21.744964	-73.791486	13.269850			
15438	8.262349	0.135317	1.785785	0.551162	0.939988	-1.428991	-21.756367	-73.910134	13.412850			
15439	8.366994	0.293081	1.721908	0.640801	1.089197	-1.359260	-21.733578	-74.042642	13.503038			
15440	8.588666	0.035322	1.782985	0.587886	0.853269	-1.102248	-21.677000	-74.176083	13.530598			
15441	8.831341	-0.360288	1.661670	0.697714	0.453247	-0.857730	-21.584014	-74.303502	13.502941			
15442	8.879449	-0.841603	1.535061	0.753187	-0.045280	-0.793821	-21.473374	-74.411577	13.450595			
15443	8.981995	-1.262627	1.335897	0.901973	-0.489290	-0.702138	-21.468383	-74.512622	13.503536			
15444	9.171578	-1.554159	1.288949	0.943657	-0.772098	-0.500975	-21.603421	-74.618695	13.723671			
15445	9.409836	-1.743479	1.239926	1.011426	-0.944451	-0.262444	-21.888240	-74.717359	14.119091			
15446	9.500063	-1.697543	1.255150	1.009420	-0.877023	-0.173180	-22.316332	-74.797852	14.688567			
15447	9.468728	-1.634858	1.288590	0.960958	-0.792372	-0.198184	-22.851537	-74.876998	15.402560			
15448	9.417328	-1.399596	1.506005	0.750734	-0.509457	-0.216346	-23.458193	-74.942192	16.211920			
15449	9.385134	-1.241261	1.587899	0.666292	-0.318862	-0.242045	-24.067177	-74.998199	17.050087			
15450	9.447975	-0.904681	1.722266	0.574328	0.061060	-0.183813	-24.636402	-75.041637	17.865715			
15451	9.518548	-0.661407	1.707932	0.616699	0.328940	-0.144768	-25.162232	-75.070943	18.655455			
15452	9.546397	-0.358511	1.831623	0.521107	0.667987	-0.122525	-25.624568	-75.090978	19.402329			
15453	9.519478	-0.091305	1.962283	0.400818	0.964550	-0.148925	-26.013983	-75.100031	20.084747			
15454	9.445640	-0.011529	2.022882	0.320607	1.060651	-0.216621	-26.357170	-75.093236	20.725867			
15455	9.286608	0.011834	2.097519	0.203395	1.093074	-0.357287	-26.684143	-75.070690	21.353886			
15456	9.187409	-0.024641	2.019901	0.245378	1.055960	-0.468502	-27.032006	-75.032715	22.013502			
15457	9.199272	-0.112203	2.053401	0.204581	0.991663	-0.440901	-27.394914	-74.979835	22.708093			
15458	9.250536	-0.230350	1.953636	0.303103	0.890311	-0.402182	-27.765252	-74.909766	23.430408			
15459	9.281068	-0.263104	1.704439	0.550182	0.861435	-0.428245	-28.119255	-74.817515	24.152795			
15460	9.384273	-0.349639	1.459373	0.810556	0.792508	-0.377039	-28.506759	-74.712394	24.915005			
15461	9.447183	-0.289535	1.323119	0.964830	0.878654	-0.358550	-28.931413	-74.585936	25.695077			
15462	9.590336	-0.266769	1.546994	0.789568	0.966638	-0.175209	-29.394866	-74.434893	26.479856			
15463	9.630200	-0.180653	1.776077	0.589728	1.107522	-0.099123	-29.889996	-74.251256	27.249166			
15464	9.601079	-0.099219	1.834656	0.542646	1.226311	-0.129812	-30.377056	-74.035814	27.958006			
15465	9.265919	0.043334	1.759764	0.555590	1.357642	-0.495827	-30.802033	-73.804125	28.546881			
15466	9.020328	0.209793	1.671128	0.604587	1.518512	-0.783209	-31.143793	-73.585890	29.006363			
15467	8.699725	0.469993	1.676553	0.542870	1.759641	-1.133642	-31.389249	-73.402023	29.328111			
15468	8.453049	0.794193	1.823040	0.360069	2.072849	-1.387614	-31.516103	-73.261924	29.505633			
15469	8.605738	0.976542	1.992275	0.248386	2.294795	-1.230512	-31.534446	-73.178322	29.565613			
15470	8.914133	1.012773	2.179209	0.152524	2.388203	-0.895869	-31.477660	-73.143113	29.540947			
15471	9.370967	0.809590	2.129095	0.314508	2.249137	-0.440069	-31.451933	-73.161948	29.524120			
15472	10.018896	0.503657	1.987704	0.604023	2.030488	0.192070	-31.556646	-73.216702	29.607575			
15473	10.641999	-0.081417	1.917454	0.804858	1.540374	0.860401	-31.850739	-73.294695	29.858806			
15474	11.201340	-0.846794	1.807852	1.015964	0.867710	1.486438	-32.275843	-73.375103	30.272854			
15475	11.579106	-1.197898	2.099749	0.795012	0.605055	1.973804	-32.693336	-73.443804	30.799980			
15476	11.606345	-1.222089	2.414298	0.472032	0.614581	2.079705	-33.013850	-73.505293	31.312945			
15477	11.459926	-1.186137	2.827573	0.010987	0.655422	2.032237	-33.275764	-73.597976	31.790465			
15478	10.925148	-0.914862	2.694302	-0.017052	0.838773	1.445695	-33.564662	-73.741216	32.253715			
15479	10.422826	-0.829560	2.552988	-0.039001	0.839174	0.917424	-33.944394	-73.954098	32.746691			
15480	10.513262	-0.573276	2.709832	-0.223208	1.103557	1.000847	-34.385349	-74.252769	33.222299			
15481	11.326986	-0.132121	2.903621	-0.295404	1.652137	1.760200	-34.893452	-74.638018	33.633703			
15482	12.327082	-0.569157	2.795849	-0.057194	1.339733	2.768995	-35.470602	-75.081875	33.916643			
15483	12.790893	-1.609151	1.552234	1.150729	0.293123	3.117694	-36.010225	-75.516457	33.986009			
15484	12.170266	-3.807825	1.214176	1.206651	-2.023763	2.778436	-36.506113	-75.931797	33.953183			
15485	11.775391	-5.776486	1.152787	1.017125	-4.067326	2.668405	-36.893652	-76.329504	33.894437			
15486	11.331330	-7.143521	0.812512	1.108419	-5.539764	2.359852	-37.037827	-76.670493	33.749984			
15487	10.738391	-7.443588	0.133274	1.578385	-5.998565	1.687896	-36.821626	-76.912297	33.428477			
15488	9.854090	-7.607979	-0.057344	1.571014	-6.321719	0.796523	-36.140210	-77.060601	32.897533			
15489	8.983818	-6.868266	0.449649	0.973347	-5.696643	-0.082082	-34.976770	-77.130678	32.175578			
15490	8.882141	-5.663586	1.009739	0.510552	-4.521204	-0.258335	-33.569229	-77.182411	31.423211			
15491	8.433765	-4.440010	1.648507	-0.102180	-3.375794	-0.748880	-32.000537	-77.220454	30.629700			
15492	8.045719	-3.156695	2.385583	-0.827328	-2.177624	-1.154612	-30.395552	-77.309633	29.862448			
15493	8.358323	-1.709116	2.832217	-1.176026	-0.764429	-0.933710	-28.817317	-77.440020	29.096565			
15494	9.078450	-0.416616	3.516797	-1.720704	0.524226	-0.235448	-27.281950	-77.573543	28.299139			
15495	10.019610	0.661128	3.921919	-1.971816	1.609311	0.662647	-25.804167	-77.680153	27.401160			
15496	10.547134	1.109597	3.898293	-1.865182	2.036293	1.143780	-24.453964	-77.722048	26.429498			
15497	10.823081	0.996222	3.544715	-1.447515	1.902781	1.366777	-23.234655	-77.692753	25.409015			
15498	10.750333	0.533897	3.230265	-1.103285	1.405334	1.282218	-22.174540	-77.592570	24.394506			
15499	10.823565	-0.165724	2.835388	-0.629571	0.699338	1.337685	-21.232467	-77.439574	23.397214			
15500	10.528089	-0.887741	2.368473	-0.150557	-0.052362	1.013797	-20.337707	-77.225965	22.392166			
15501	9.928832	-1.330139	2.008857	0.150726	-0.551032	0.388286	-19.444907	-76.971107	21.394425			
15502	9.570167	-1.622174	1.802728	0.344285	-0.881894	0.014460	-18.575280	-76.686901	20.452723			
15503	9.016559	-1.502752	1.905665	0.174900	-0.824171	-0.513330	-17.740471	-76.395917	19.603932			
15504	8.549363	-1.148602	2.221230	-0.197234	-0.530181	-0.923114	-16.876945	-76.114924	18.772417			
15505	8.219594	-0.542246	2.665421	-0.679485	0.020108	-1.181471	-15.955152	-75.852921	17.918390			
15506	8.024004	0.163595	2.896331	-0.932140	0.681673	-1.358910	-14.980182	-75.600463	16.998589			
15507	7.953470	0.562297	2.877043	-0.902106	1.050826	-1.450093	-13.983789	-75.360261	15.993012			
15508	8.000606	0.885660	2.874638	-0.857256	1.352707	-1.416694	-13.032387	-75.126801	14.970197			
15509	8.068194	0.943499	2.826478	-0.752064	1.394004	-1.358938	-12.194699	-74.905199	13.997219			
15510	8.173319	0.865136	2.815089	-0.669167	1.304545	-1.249595	-11.526692	-74.699774	13.139123			
15511	8.405649	0.649391	2.754723	-0.504785	1.091437	-1.025255	-11.055723	-74.513890	12.429928			
15512	8.595436	0.286694	2.711567	-0.368336	0.733898	-0.832601	-10.781801	-74.347866	11.901821			
15513	8.603670	-0.016746	2.610183	-0.231468	0.431415	-0.835120	-10.677233	-74.192148	11.538325			
15514	8.520347	-0.220145	2.620436	-0.234060	0.227884	-0.901756	-10.704207	-74.044768	11.316260			
15515	8.412819	-0.226254	2.568305	-0.191302	0.224616	-1.018609	-10.837147	-73.911856	11.218278			
15516	8.276049	-0.159452	2.410232	-0.058952	0.295800	-1.196620	-11.080002	-73.792336	11.233192			
15517	8.027839	0.154969	2.242506	0.046263	0.609887	-1.498548	-11.396964	-73.694878	11.336472			
15518	7.979956	0.484576	2.289110	-0.002039	0.952896	-1.551544	-11.774873	-73.623587	11.508121			
15519	7.808567	0.915792	2.527190	-0.270378	1.396065	-1.677766	-12.260787	-73.573835	11.745034			
15520	7.649851	1.050975	2.257653	-0.048446	1.541614	-1.916943	-12.952251	-73.556653	12.104169			
15521	7.578650	1.202034	2.186459	0.002862	1.715346	-2.020453	-13.792150	-73.589630	12.577747			
15522	7.774674	1.239806	2.611795	-0.354869	1.811262	-1.725820	-14.725040	-73.650016	13.125292			
15523	7.900993	1.238612	2.846245	-0.551769	1.864700	-1.549560	-15.691116	-73.716430	13.685462			
15524	8.035437	1.011073	2.531608	-0.227019	1.670089	-1.496517	-16.626151	-73.812131	14.205206			
15525	8.408697	0.648200	2.566025	-0.186728	1.366029	-1.105802	-17.350269	-73.953239	14.573962			
15526	8.874900	0.361408	2.946945	-0.461437	1.154571	-0.537293	-17.776395	-74.107832	14.716227			
15527	9.236583	-0.014416	3.313556	-0.756603	0.840341	-0.065090	-18.027914	-74.237579	14.675675			
15528	9.502736	-0.521437	3.284782	-0.700058	0.361270	0.224397	-18.217633	-74.321558	14.525236			
15529	9.813787	-0.937386	2.994159	-0.372504	-0.044394	0.483591	-18.368444	-74.361465	14.307984			
15530	10.107430	-1.298657	2.692555	-0.034105	-0.401840	0.719827	-18.478592	-74.373164	14.056236			
15531	10.390419	-1.465264	2.507024	0.202958	-0.562676	0.959275	-18.485928	-74.372836	13.749529			
15532	10.455699	-1.387809	2.583096	0.151280	-0.478381	1.034815	-18.356594	-74.366011	13.388644			
15533	10.189892	-0.938264	2.783276	-0.073930	-0.038310	0.791742	-18.106256	-74.348781	12.985401			
15534	9.776468	-0.045490	2.812183	-0.134077	0.814465	0.326762	-17.819971	-74.332865	12.595172			
15535	9.355888	1.158432	2.872903	-0.201761	1.979108	-0.160197	-17.539118	-74.345994	12.244062			
15536	9.168730	2.140236	3.690108	-0.958082	3.012872	-0.207076	-17.301003	-74.421571	11.940036			
15537	9.714611	2.553107	3.667018	-0.769656	3.438181	0.283130	-17.081592	-74.574864	11.595089			
15538	10.849740	3.020661	3.841068	-0.619334	3.966959	1.388860	-16.896596	-74.762323	11.209246			
15539	12.198376	3.076292	4.003924	-0.442806	4.096310	2.730019	-16.824456	-74.954543	10.838743			
15540	13.796072	2.613382	4.677581	-0.741158	3.783882	4.476260	-16.837323	-75.093178	10.464543			
15541	14.254042	1.862605	4.125393	-0.164600	3.001020	4.837658	-16.993793	-75.122254	10.060696			
15542	13.629507	0.471966	3.015108	0.609858	1.461933	4.064196	-17.168792	-75.105651	9.565595			
15543	13.178461	-1.143007	2.517036	0.787608	-0.227808	3.627608	-17.077665	-75.077592	8.906178			
15544	12.940962	-2.820323	1.950613	1.053445	-1.993989	3.383594	-16.854984	-74.987582	8.211115			
15545	13.106719	-4.903505	1.602252	1.141252	-4.113251	3.610291	-16.715501	-74.877879	7.761390			
15546	14.126903	-6.496811	3.398394	-0.521837	-5.373555	5.159937	-16.455778	-74.739145	7.497488			
15547	14.055965	-7.105444	3.405596	-0.581602	-5.988266	5.135808	-16.151255	-74.499698	7.272822			
15548	12.271739	-6.109409	2.821120	-0.281786	-5.166276	3.191502	-16.002902	-74.226516	7.230435			
15549	9.836498	-3.363861	3.323026	-0.964476	-2.461523	0.776232	-15.959601	-73.987516	7.370760			
15550	7.856168	-1.044682	3.974788	-1.762997	-0.139925	-1.124658	-16.006296	-73.777355	7.542721			
15551	6.100380	0.149517	3.439419	-1.551098	0.900071	-3.041387	-16.231685	-73.590920	7.752303			
15552	5.084475	0.374869	2.703908	-1.088945	0.983665	-4.231460	-16.593922	-73.464523	7.991393			
15553	5.011041	0.561333	2.931409	-1.289739	1.214556	-4.255693	-16.974407	-73.406875	8.177006			
15554	5.546391	0.155363	2.419915	-0.705778	0.770823	-3.850283	-17.441363	-73.413682	8.346481			
15555	6.877584	-0.862882	2.144232	-0.223378	-0.205783	-2.563468	-17.923571	-73.497363	8.488936			
15556	8.325312	-1.796644	1.883410	0.269915	-1.093990	-1.163048	-18.315430	-73.602963	8.530166			
15557	9.449998	-3.007945	1.661226	0.573714	-2.265428	-0.032686	-18.682894	-73.713485	8.523733			
15558	10.393561	-4.107081	1.538571	0.733905	-3.317135	0.944602	-19.038171	-73.808899	8.522824			
15559	10.596330	-4.778605	1.567265	0.610571	-3.950844	1.214167	-19.350876	-73.885481	8.550766			
15560	10.097617	-5.066250	1.539943	0.419459	-4.247030	0.760245	-19.637881	-73.935768	8.654673			
15561	9.319010	-4.821765	1.784069	-0.000692	-3.980757	0.057967	-19.897180	-73.991199	8.847453			
15562	8.832348	-4.128948	2.063409	-0.284769	-3.258290	-0.398937	-20.116220	-74.045263	9.114514			
15563	8.524157	-3.009315	2.314478	-0.412286	-2.118566	-0.734376	-20.304624	-74.088438	9.420855			
15564	8.247892	-1.769381	2.331761	-0.288832	-0.907510	-1.112771	-20.443014	-74.119302	9.699173			
15565	8.015894	-0.643449	2.328712	-0.157897	0.188422	-1.444232	-20.546374	-74.149179	9.927698			
15566	7.699907	0.043744	2.274848	-0.080518	0.839854	-1.828104	-20.639398	-74.187760	10.104067			
15567	7.922414	0.177572	2.208025	0.056585	0.970516	-1.644062	-20.689825	-74.250039	10.205806			
15568	8.374976	-0.043591	1.945645	0.378623	0.725934	-1.253639	-20.721232	-74.321997	10.257214			
15569	8.819526	-0.624112	1.776959	0.547822	0.145148	-0.812134	-20.734917	-74.393895	10.271742			
15570	9.055912	-1.250696	1.516913	0.740532	-0.507884	-0.589431	-20.776753	-74.460855	10.299402			
15571	9.252048	-1.867703	1.433787	0.755349	-1.118532	-0.361615	-20.868095	-74.531306	10.403912			
15572	9.297925	-2.233738	1.280630	0.839866	-1.499862	-0.319214	-21.043816	-74.598107	10.632433			
15573	9.243339	-2.226265	1.248569	0.846461	-1.492435	-0.378144	-21.315199	-74.670087	11.009136			
15574	9.343409	-2.068066	1.379923	0.762787	-1.294797	-0.261666	-21.663934	-74.742898	11.507928			
15575	9.370092	-1.639483	1.488028	0.725149	-0.835898	-0.248371	-22.107560	-74.808649	12.125540			
15576	9.375605	-1.343162	1.471400	0.778238	-0.526865	-0.273936	-22.607190	-74.863144	12.818367			
15577	9.209306	-0.917439	1.547589	0.718238	-0.082293	-0.457189	-23.132482	-74.907248	13.540448			
15578	9.080589	-0.550181	1.540446	0.736325	0.292782	-0.620037	-23.687407	-74.950176	14.285436			
15579	8.935583	-0.383202	1.617539	0.637026	0.483517	-0.759054	-24.233575	-74.999126	15.012900			
15580	8.947139	-0.296128	1.591825	0.661758	0.586992	-0.763359	-24.767385	-75.056039	15.717088			
15581	9.160608	-0.268819	1.658707	0.638319	0.659263	-0.544560	-25.231396	-75.111607	16.347138			
15582	9.339684	-0.256095	1.687556	0.641344	0.706341	-0.366374	-25.625102	-75.159968	16.902663			
15583	9.533679	-0.216092	1.631518	0.734339	0.766077	-0.196377	-25.963469	-75.199257	17.409577			
15584	9.676575	-0.141090	1.530962	0.864729	0.848894	-0.089958	-26.241475	-75.216929	17.872878			
15585	9.659759	-0.044534	1.660321	0.740978	0.976457	-0.088128	-26.513409	-75.212862	18.345901			
15586	9.634028	0.088142	1.752741	0.657459	1.133935	-0.108241	-26.798435	-75.188273	18.838891			
15587	9.654622	0.140132	1.776999	0.642048	1.207474	-0.090608	-27.133381	-75.146019	19.382901			
15588	9.710263	0.105283	1.792139	0.635304	1.200033	-0.031669	-27.502172	-75.083869	19.971732			
15589	9.693246	-0.007316	1.831528	0.581374	1.115049	-0.028404	-27.868533	-75.000495	20.575993			
15590	9.509645	-0.027419	1.891395	0.481327	1.109129	-0.192418	-28.203028	-74.896860	21.171101			
15591	9.278781	-0.094034	1.830646	0.483815	1.035472	-0.423887	-28.502303	-74.775108	21.751881			
15592	8.870562	-0.078479	1.316575	0.889397	0.968673	-0.941555	-28.889990	-74.653305	22.400293			
15593	8.841989	-0.265804	1.731509	0.469541	0.859649	-0.852218	-29.386144	-74.541056	23.131151			
15594	9.186126	-0.318684	2.192022	0.109651	0.929714	-0.409765	-29.982952	-74.412238	23.907826			
15595	9.208638	-0.480034	1.931716	0.360781	0.776408	-0.430370	-30.576817	-74.247761	24.623162			
15596	9.036672	-0.579681	1.622989	0.621273	0.658338	-0.657795	-31.130599	-74.062104	25.285749			
15597	8.725848	-0.501616	1.571173	0.615029	0.726943	-0.983542	-31.632904	-73.886319	25.893018			
15598	8.567263	-0.230007	1.684916	0.499273	1.018608	-1.152264	-32.084676	-73.740847	26.443639			
15599	8.502966	0.219253	1.900761	0.318231	1.502556	-1.233503	-32.433761	-73.624517	26.882199			
15600	8.548197	0.612364	2.009973	0.259550	1.926200	-1.227292	-32.671484	-73.542261	27.195578			
15601	8.721344	0.600959	2.084438	0.232089	1.957698	-1.044482	-32.824839	-73.501560	27.422615			
15602	9.171521	0.375675	2.149086	0.263566	1.808659	-0.564132	-32.934432	-73.502796	27.625390			
15603	9.652367	0.086879	2.130899	0.372702	1.589930	-0.063345	-33.073956	-73.535400	27.872384			
15604	10.141337	-0.194164	1.763337	0.815930	1.345277	0.361704	-33.346776	-73.587755	28.250345			
15605	10.530183	-0.454043	1.534494	1.096695	1.131192	0.721219	-33.785354	-73.633172	28.805571			
15606	10.858336	-0.868916	1.549725	1.112744	0.791426	1.104980	-34.369085	-73.671196	29.547226			
15607	11.133168	-0.969344	1.835200	0.873270	0.788411	1.451002	-34.975445	-73.692623	30.389635			
15608	11.149826	-0.831963	2.283705	0.429498	0.997126	1.547211	-35.440024	-73.694592	31.178841			
15609	10.890599	-0.877165	2.935762	-0.286239	0.992627	1.453456	-35.764786	-73.710904	31.858854			
15610	10.576142	-0.747539	2.941297	-0.381103	1.082688	1.130225	-36.052531	-73.767860	32.441545			
15611	9.974109	-0.785088	2.546974	-0.168554	0.929003	0.468108	-36.441223	-73.877673	32.995982			
15612	9.548889	-0.925164	2.457521	-0.223215	0.723381	0.061692	-36.978706	-74.076404	33.599986			
15613	10.200826	-1.078255	2.961228	-0.628523	0.708547	0.821730	-37.707556	-74.415420	34.299308			
15614	11.852952	-1.756088	2.588974	-0.014773	0.252864	2.443497	-38.540460	-74.852772	34.960728			
15615	13.178309	-2.987285	1.894575	0.780098	-0.834875	3.784162	-39.378273	-75.299166	35.507808			
15616	13.107634	-5.302033	1.616956	0.796765	-3.175702	4.037037	-40.106888	-75.730672	35.929852			
15617	12.454457	-7.158785	0.860491	1.185068	-5.198507	3.554147	-40.560013	-76.117148	36.172080			
15618	11.574887	-8.015287	0.182844	1.539519	-6.265578	2.702431	-40.699875	-76.454444	36.280068			
15619	10.632875	-7.969747	-0.041030	1.543065	-6.411134	1.723893	-40.395680	-76.758831	36.218263			
15620	10.194714	-7.359592	0.592465	0.884776	-5.860724	1.292064	-39.620364	-77.038830	36.001362			
15621	10.231346	-6.310906	1.235981	0.354867	-4.828723	1.259460	-38.484616	-77.294723	35.683061			
15622	10.125529	-4.307331	2.092603	-0.381322	-2.879206	1.005002	-37.002965	-77.513262	35.176465			
15623	9.835540	-2.128785	3.237075	-1.477809	-0.795701	0.624282	-35.298902	-77.689399	34.472510			
15624	9.978336	-0.425293	4.166171	-2.349016	0.832240	0.717913	-33.565656	-77.856004	33.641823			
15625	10.506747	1.170961	4.686522	-2.793921	2.377005	1.154047	-31.837686	-78.005700	32.598818			
15626	11.249945	2.412133	4.912269	-2.922389	3.594808	1.808254	-30.119041	-78.111185	31.279499			
15627	11.475470	2.877455	4.797446	-2.770526	4.004042	1.988710	-28.440123	-78.124249	29.712711			
15628	11.275098	2.577111	4.401387	-2.361816	3.636912	1.777641	-26.857053	-78.019558	27.969947			
15629	10.653361	1.317052	3.679760	-1.656582	2.299046	1.175434	-25.319303	-77.772170	26.061951			
15630	9.846480	-0.112401	2.610063	-0.645495	0.784224	0.323682	-23.888768	-77.456180	24.153511			
15631	9.286045	-1.652329	1.648456	0.275338	-0.825423	-0.277449	-22.650476	-77.151186	22.410134			
15632	8.925277	-2.785132	1.324473	0.574283	-2.013360	-0.604641	-21.510569	-76.844477	20.827763			
15633	8.620383	-3.302021	1.407441	0.470390	-2.575226	-0.849318	-20.432115	-76.533963	19.416459			
15634	8.161691	-3.187703	1.588767	0.238198	-2.513385	-1.273087	-19.399981	-76.213865	18.169456			
15635	7.800463	-2.882468	1.666981	0.129724	-2.254151	-1.637332	-18.377481	-75.918339	17.038979			
15636	7.487435	-2.322340	1.904308	-0.120973	-1.732509	-1.934560	-17.338180	-75.646520	15.985221			
15637	7.339390	-1.635921	1.929033	-0.128653	-1.080977	-2.126413	-16.326750	-75.413133	14.983322			
15638	7.423398	-1.166649	2.037487	-0.170865	-0.629238	-2.054209	-15.349673	-75.228249	14.021811			
15639	7.481366	-0.533224	2.261794	-0.334808	-0.015385	-1.985913	-14.305545	-75.088318	12.992414			
15640	7.929341	-0.210199	2.700856	-0.616457	0.311508	-1.461878	-13.156610	-74.977345	11.846705			
15641	8.214490	0.199676	2.944139	-0.747101	0.702672	-1.144726	-11.955518	-74.862407	10.632039			
15642	8.382876	0.229864	2.731195	-0.470984	0.692116	-1.032949	-10.770435	-74.753462	9.361249			
15643	8.741547	0.061994	2.634052	-0.261647	0.493429	-0.699808	-9.632778	-74.650441	8.100354			
15644	8.845321	-0.190544	2.434067	-0.023660	0.195736	-0.638723	-8.586154	-74.557156	6.908295			
15645	8.785253	-0.481650	2.226953	0.172315	-0.144697	-0.739584	-7.625801	-74.474409	5.813423			
15646	8.931389	-0.531433	2.215237	0.236082	-0.229459	-0.601233	-6.737149	-74.414560	4.828318			
15647	8.807274	-0.563197	2.234840	0.195500	-0.299329	-0.715883	-5.923356	-74.349816	3.941118			
15648	8.680726	-0.352584	2.307854	0.108472	-0.120992	-0.824973	-5.189838	-74.302119	3.160125			
15649	8.665968	-0.133951	2.319309	0.107498	0.068977	-0.841636	-4.558734	-74.279461	2.503275			
15650	8.596494	0.213670	2.353057	0.070882	0.392676	-0.906342	-4.046460	-74.277196	1.969687			
15651	8.478038	0.554533	2.474426	-0.067009	0.717082	-0.992898	-3.624368	-74.298595	1.532387			
15652	8.597796	0.865681	2.450551	-0.004957	1.012209	-0.887886	-3.297122	-74.339946	1.186634			
15653	8.619896	1.058210	2.486787	-0.033482	1.193568	-0.858315	-3.037182	-74.390726	0.897776			
15654	8.643014	1.160168	2.513484	-0.056612	1.287092	-0.829065	-2.851425	-74.447230	0.670367			
15655	8.523341	1.302751	2.426792	-0.007776	1.419444	-0.968541	-2.734650	-74.506947	0.496754			
15656	8.300415	1.410930	2.369966	-0.015892	1.521570	-1.199388	-2.697557	-74.568366	0.379825			
15657	8.027199	1.577160	2.301439	-0.023935	1.684931	-1.483197	-2.766340	-74.646425	0.346005			
15658	7.832169	1.786024	2.247292	-0.025373	1.895774	-1.689359	-2.957153	-74.753096	0.428815			
15659	7.701225	2.095242	2.375831	-0.183869	2.219012	-1.788622	-3.238176	-74.896942	0.571047			
15660	7.728777	2.319966	2.514311	-0.318166	2.461557	-1.733240	-3.575231	-75.076363	0.767205			
15661	7.885069	2.463993	2.878899	-0.644488	2.637787	-1.496422	-3.931289	-75.292897	0.939932			
15662	8.329790	2.425485	3.408343	-1.071485	2.643583	-0.938653	-4.238646	-75.531991	1.050951			
15663	8.948243	2.167474	4.048347	-1.577128	2.440785	-0.183915	-4.480146	-75.761517	1.017103			
15664	9.669866	1.852862	4.046537	-1.441670	2.147452	0.513194	-4.717545	-75.966578	0.874165			
15665	10.457003	1.280970	3.804217	-1.069170	1.584150	1.224031	-4.982395	-76.087820	0.622003			
15666	10.850124	0.859632	3.583819	-0.791295	1.171993	1.558686	-5.363087	-76.090066	0.393544			
15667	10.809519	0.302674	2.986306	-0.252063	0.594890	1.387213	-5.982055	-76.004846	0.278224			
15668	10.643138	-0.557697	1.989578	0.606492	-0.328601	1.007198	-6.848829	-75.904233	0.346450			
15669	10.772200	-1.329424	1.708755	0.830765	-1.095422	1.088565	-7.740339	-75.835644	0.516872			
15670	11.105162	-1.678552	2.129729	0.463507	-1.356993	1.528457	-8.452753	-75.788439	0.718991			
15671	11.243777	-1.602765	2.861186	-0.197286	-1.154206	1.840921	-8.956181	-75.760758	0.896892			
15672	11.018530	-1.569196	3.418585	-0.784804	-1.020475	1.758819	-9.310944	-75.757247	1.062446			
15673	10.938075	-1.805650	3.667473	-1.084850	-1.201483	1.751556	-9.557946	-75.813620	1.170175			
15674	12.307856	-2.242084	3.055213	-0.239750	-1.704148	2.949873	-9.728035	-75.880332	1.202998			
15675	13.810604	-2.156104	2.588022	0.571413	-1.673102	4.292405	-9.848301	-75.914848	1.203510			
15676	14.536257	-1.503111	3.446727	0.015363	-0.889776	5.175645	-9.900789	-75.895747	1.192824			
15677	13.603720	-0.925535	3.731743	-0.383943	-0.280043	4.315929	-9.825448	-75.772455	0.990886			
15678	11.991643	-0.503873	2.759096	0.251005	-0.030994	2.499983	-9.475744	-75.570022	0.548873			
15679	11.200256	-0.437475	3.173563	-0.293187	0.073871	1.832785	-8.919003	-75.395256	0.006128			
15680	11.682328	-1.452401	3.885766	-0.970642	-0.852440	2.516806	-8.230117	-75.252365	-0.563365			
15681	12.129198	-2.448371	3.888768	-0.966550	-1.878227	2.984662	-7.532304	-75.044795	-1.115867			
15682	11.496681	-2.729104	2.851782	-0.122159	-2.338909	2.114950	-7.204972	-74.741844	-1.351698			
15683	9.955736	-1.176305	2.565193	0.029543	-0.844511	0.500715	-7.274617	-74.449448	-1.202403			
15684	8.732006	0.732571	3.593184	-0.960862	1.208021	-0.468551	-7.579982	-74.224444	-0.833893			
15685	7.974336	1.480981	3.744840	-1.172438	1.991576	-1.183316	-8.143028	-74.038678	-0.358009			
15686	7.171151	1.598312	3.105567	-0.736840	2.042141	-2.137330	-8.909836	-73.841011	0.179265			
15687	6.779746	1.512336	2.765556	-0.500321	1.936435	-2.608514	-9.713702	-73.636610	0.628647			
15688	6.794760	0.872059	2.487846	-0.296325	1.290951	-2.645812	-10.493315	-73.468261	0.943474			
15689	7.454113	-0.328266	2.116539	0.075432	0.076933	-2.057714	-11.183901	-73.353974	1.072715			
15690	8.515404	-1.828483	1.725079	0.505538	-1.440418	-1.066206	-11.728797	-73.258193	1.025194			
15691	9.445952	-3.274600	1.580035	0.646976	-2.866713	-0.127190	-12.147732	-73.165929	0.851127			
15692	10.262628	-4.449551	1.578720	0.649311	-4.002820	0.730945	-12.459891	-73.075843	0.643627			
15693	10.553278	-5.267939	1.356821	0.761618	-4.838137	1.002864	-12.726671	-72.997160	0.480341			
15694	10.214123	-5.374244	1.331274	0.647856	-4.938893	0.683535	-12.960547	-72.941873	0.423129			
15695	9.486492	-4.913217	1.371808	0.479563	-4.471626	-0.025468	-13.202874	-72.914857	0.469003			
15696	8.642974	-4.060196	1.633372	0.160104	-3.572430	-0.809012	-13.476172	-72.913885	0.650087			
15697	8.163153	-3.222533	1.860590	-0.020996	-2.693103	-1.255216	-13.820170	-72.940225	0.946535			
15698	8.085463	-2.333735	1.997043	0.011006	-1.781659	-1.348955	-14.170102	-72.993420	1.285004			
15699	8.271375	-1.632001	2.110674	0.098101	-1.057733	-1.186821	-14.443999	-73.072528	1.551077			
15700	8.394311	-1.122458	2.047365	0.287606	-0.564552	-1.122773	-14.632333	-73.170892	1.739802			
15701	8.678721	-0.952463	1.950794	0.479353	-0.411128	-0.888891	-14.781499	-73.286557	1.869609			
15702	8.900390	-0.895958	1.858085	0.622499	-0.368970	-0.705081	-14.921263	-73.411728	1.992211			
15703	9.131601	-0.989911	1.843754	0.661340	-0.455611	-0.478851	-15.075201	-73.536421	2.122533			
15704	9.222529	-1.185783	1.903418	0.569749	-0.624398	-0.359138	-15.281897	-73.649319	2.321187			
15705	9.230315	-1.338862	1.807783	0.610966	-0.784646	-0.364388	-15.554828	-73.745234	2.584105			
15706	9.177425	-1.448784	1.698179	0.660697	-0.903313	-0.434234	-15.901328	-73.823917	2.953254			
15707	9.051523	-1.383841	1.751080	0.578764	-0.812965	-0.543629	-16.310087	-73.878788	3.398577			
15708	8.797310	-1.272498	1.713526	0.559299	-0.697741	-0.804448	-16.768621	-73.919776	3.919937			
15709	8.775762	-1.204412	1.815739	0.465056	-0.588212	-0.801627	-17.245209	-73.959675	4.477962			
15710	8.912233	-1.062337	1.779007	0.559737	-0.433420	-0.690181	-17.735660	-74.002466	5.072064			
15711	9.084798	-1.079780	1.774123	0.600030	-0.424769	-0.522559	-18.242239	-74.046241	5.678123			
15712	9.299766	-1.009971	1.802498	0.637863	-0.321313	-0.312976	-18.740972	-74.091821	6.295772			
15713	9.545064	-1.038164	1.800626	0.692090	-0.318856	-0.073716	-19.213984	-74.129017	6.887638			
15714	9.642544	-0.984145	1.842707	0.682618	-0.231469	0.027190	-19.653068	-74.155293	7.464057			
15715	9.711187	-0.978738	1.841079	0.697874	-0.203639	0.093176	-20.036056	-74.175593	7.992462			
15716	9.757403	-0.997646	1.883925	0.661872	-0.192351	0.151061	-20.384415	-74.185771	8.506467			
15717	9.738795	-0.925150	1.990313	0.567653	-0.082826	0.153870	-20.687047	-74.186293	8.986600			
15718	9.641639	-0.810401	1.984486	0.567694	0.039815	0.047954	-20.970373	-74.173873	9.470357			
15719	9.536599	-0.682274	2.011131	0.538605	0.180884	-0.059020	-21.229563	-74.150027	9.945645			
15720	9.390576	-0.556472	2.029909	0.506711	0.315277	-0.207639	-21.464608	-74.110397	10.427069			
15721	9.331297	-0.482187	2.132919	0.409707	0.418007	-0.246479	-21.640906	-74.068751	10.876696			
15722	9.241369	-0.429807	2.124274	0.406837	0.472565	-0.341081	-21.728418	-74.017011	11.280637			
15723	9.161415	-0.356839	2.131538	0.395725	0.546817	-0.424040	-21.716990	-73.964350	11.611056			
15724	9.153585	-0.308341	1.956228	0.573087	0.564829	-0.481955	-21.640808	-73.912680	11.907919			
15725	9.229775	-0.342519	1.820472	0.722739	0.512812	-0.440662	-21.506551	-73.866177	12.159037			
15726	9.367932	-0.363088	1.792076	0.789298	0.496221	-0.313619	-21.356558	-73.823916	12.412336			
15727	9.502953	-0.306630	1.882853	0.752075	0.574802	-0.166483	-21.215110	-73.784438	12.666276			
15728	9.486964	-0.114344	1.829255	0.828489	0.756182	-0.215629	-21.105961	-73.738025	12.940062			
15729	9.440385	0.090339	1.778764	0.893888	0.950407	-0.294772	-21.018764	-73.684587	13.206523			
15730	9.360529	0.342709	1.733022	0.949515	1.191799	-0.409584	-20.942594	-73.630094	13.468349			
15731	9.191366	0.603849	1.696083	0.970565	1.437986	-0.608735	-20.894766	-73.579832	13.713805			
15732	9.231773	0.824120	1.771098	0.934782	1.673220	-0.573201	-20.862683	-73.534791	13.940537			
15733	9.259979	0.974141	1.858193	0.875519	1.839030	-0.539043	-20.847310	-73.492778	14.124043			
15734	9.342655	0.975727	1.877101	0.880970	1.852732	-0.455763	-20.849053	-73.455376	14.277631			
15735	9.461520	0.805580	1.915840	0.861444	1.701761	-0.315230	-20.889895	-73.420300	14.414507			
15736	9.554496	0.552134	1.771668	1.002279	1.445636	-0.239933	-20.980359	-73.387847	14.569746			
15737	9.647290	0.160342	1.538667	1.215136	1.044586	-0.174447	-21.146466	-73.355149	14.781709			
15738	9.641464	-0.307383	1.697987	1.017426	0.611589	-0.090225	-21.360667	-73.333846	15.051792			
15739	9.568086	-0.745899	1.821116	0.836284	0.200207	-0.082239	-21.643641	-73.327883	15.404253			
15740	9.656831	-1.033862	1.882557	0.770570	-0.055239	0.049889	-21.963974	-73.339584	15.830767			
15741	9.690566	-1.049982	1.983183	0.674860	-0.040947	0.111294	-22.269385	-73.365932	16.296450			
15742	9.639246	-0.989183	2.320852	0.332486	0.067027	0.145467	-22.522934	-73.416645	16.754925			
15743	9.635744	-0.779189	2.608317	0.058440	0.314780	0.195084	-22.722798	-73.504762	17.168416			
15744	9.565455	-0.528519	2.670122	-0.022949	0.567978	0.116242	-22.940620	-73.643897	17.570128			
15745	9.658966	-0.217878	2.971951	-0.296607	0.917282	0.249424	-23.199609	-73.837154	17.972726			
15746	10.088246	0.009446	3.431796	-0.650503	1.226607	0.752449	-23.479262	-74.070585	18.318943			
15747	10.920619	0.235203	3.556221	-0.586744	1.533038	1.556887	-23.747471	-74.336874	18.541985			
15748	11.805288	0.122102	3.589622	-0.457307	1.497266	2.427161	-24.019063	-74.626085	18.613324			
15749	12.600150	-0.763283	3.132115	0.051086	0.636777	3.177621	-24.364127	-74.913483	18.596884			
15750	12.910486	-2.091656	2.011297	1.026010	-0.777070	3.357128	-24.867536	-75.168249	18.618414			
15751	13.029120	-3.434903	1.099591	1.733016	-2.199994	3.413113	-25.542448	-75.375158	18.802680			
15752	12.941307	-4.694249	0.682276	1.911785	-3.491634	3.383223	-26.306456	-75.516256	19.165351			
15753	12.430343	-5.870674	0.629347	1.656494	-4.679372	3.022171	-27.023813	-75.566389	19.635979			
15754	11.479702	-6.594854	0.538446	1.414428	-5.457525	2.178155	-27.580264	-75.521838	20.140753			
15755	9.988739	-6.554640	0.422359	1.193630	-5.533655	0.716812	-27.975181	-75.406728	20.686271			
15756	8.627375	-6.166413	0.853825	0.537520	-5.188669	-0.540479	-28.237949	-75.287728	21.290821			
15757	7.470465	-5.249052	1.314036	-0.031991	-4.316697	-1.660882	-28.213279	-75.163167	21.789411			
15758	6.379468	-4.088196	1.468664	-0.273512	-3.255245	-2.820101	-27.906435	-75.047489	22.129476			
15759	5.670544	-2.980804	1.697638	-0.522968	-2.216055	-3.588728	-27.342205	-74.984958	22.292953			
15760	5.547011	-2.176132	2.117551	-0.867087	-1.415164	-3.710702	-26.526366	-74.994513	22.256497			
15761	5.997147	-1.442670	2.563935	-1.129041	-0.645304	-3.260628	-25.482720	-75.081715	21.996895			
15762	6.643143	-1.056527	3.063033	-1.435076	-0.217858	-2.565444	-24.257491	-75.226358	21.525493			
15763	7.765451	-0.862887	3.534080	-1.622190	0.038590	-1.392293	-22.875189	-75.403500	20.833164			
15764	8.857424	-0.927616	3.958579	-1.785482	0.011825	-0.231660	-21.444963	-75.580158	20.018174			
15765	9.965019	-1.068501	4.257241	-1.824347	-0.109453	0.921675	-20.034131	-75.735769	19.148201			
15766	10.963339	-1.149341	4.417344	-1.749469	-0.189377	1.931744	-18.745059	-75.840576	18.315702			
15767	11.548797	-1.179012	4.348155	-1.540200	-0.246540	2.485195	-17.722970	-75.879026	17.624704			
15768	11.671510	-1.182532	4.000995	-1.160573	-0.291757	2.524181	-17.097342	-75.849173	17.191872			
15769	11.473619	-1.209146	3.581745	-0.781167	-0.356583	2.237103	-16.847000	-75.778049	17.023682			
15770	11.420522	-1.139857	3.590682	-0.781048	-0.295037	2.184123	-16.738735	-75.659805	16.975704			
15771	10.990323	-1.001850	3.403724	-0.672723	-0.185345	1.715071	-16.674671	-75.482314	16.929821			
15772	10.519917	-1.016269	3.355070	-0.702317	-0.225979	1.251377	-16.636297	-75.287907	16.885009			
15773	10.108742	-1.042091	3.539657	-0.945448	-0.272930	0.903344	-16.569715	-75.099485	16.798905			
15774	9.869244	-1.189379	3.547306	-0.976868	-0.429768	0.687832	-16.516368	-74.922197	16.693700			
15775	9.601060	-1.333204	3.627862	-1.088749	-0.584705	0.463101	-16.463977	-74.741897	16.564634			
15776	9.379361	-1.325618	3.614909	-1.101415	-0.584440	0.249244	-16.445056	-74.555333	16.452548			
15777	9.065326	-1.368720	3.503713	-1.043708	-0.640989	-0.074656	-16.471274	-74.365803	16.363830			
15778	8.852182	-1.394933	3.531645	-1.096715	-0.670279	-0.266623	-16.519388	-74.176857	16.309175			
15779	8.585288	-1.169502	3.501896	-1.111105	-0.453081	-0.544556	-16.593350	-73.984329	16.274574			
15780	8.403308	-1.115290	3.200474	-0.843387	-0.402531	-0.799969	-16.761576	-73.812677	16.299064			
15781	8.476719	-1.039809	3.201767	-0.804146	-0.305415	-0.732638	-16.938670	-73.666987	16.343597			
15782	8.533556	-0.963694	3.217623	-0.785649	-0.209261	-0.678011	-17.108434	-73.534598	16.386471			
15783	8.678409	-0.935723	3.181692	-0.695297	-0.156865	-0.549565	-17.250644	-73.423116	16.399478			
15784	8.922080	-0.973787	3.322070	-0.749349	-0.160531	-0.273264	-17.318042	-73.330348	16.352947			
15785	9.040631	-0.924406	3.543669	-0.915403	-0.089130	-0.101910	-17.281630	-73.242149	16.215746			
15786	9.159160	-0.832309	3.550665	-0.873219	0.015030	0.007058	-17.172802	-73.152833	15.987685			
15787	9.338178	-0.710267	3.666236	-0.914062	0.154637	0.201696	-16.997481	-73.036984	15.670648			
15788	9.395931	-0.449127	3.621891	-0.827962	0.417573	0.224413	-16.812554	-72.902935	15.301457			
15789	9.504007	-0.238968	3.563966	-0.711651	0.634386	0.295534	-16.679850	-72.766280	14.921665			
15790	9.437296	0.007794	3.496913	-0.633944	0.876832	0.193322	-16.613814	-72.632301	14.551545			
15791	9.413885	0.135695	3.473707	-0.588824	1.008486	0.154382	-16.611519	-72.519234	14.197655			
