// General information: 
//  MT Manager version: 2022.0.0 
//  XDA version: 2022.0.0 build 7085 rev 119802 built on 2022-11-08
// Device information: 
//  DeviceId: 00B492A5
//  ProductCode: MTW2-3A7G6
//  Firmware Version: 4.6.0
//  Hardware Version: 2.0.0
// Device settings: 
//  Filter Profile: human(46.1)
//  Option Flags: Orientation Smoother Disabled, Position/Velocity Smoother Disabled, Continuous Zero Rotation Update Disabled, AHS Disabled, ICC Disabled
// Coordinate system: ENU
PacketCounter	Acc_X	Acc_Y	Acc_Z	FreeAcc_E	FreeAcc_N	FreeAcc_U	Roll	Pitch	Yaw	Vel_E	Vel_N	Vel_U
09830	9.400054	-1.360215	-1.489003	-0.126470	0.043190	-0.199651	-141.392886	-77.902627	71.762048			
09831	9.465956	-1.337664	-1.531068	-0.086016	0.027241	-0.131277	-141.405021	-77.890160	71.784105			
09832	9.482828	-1.396690	-1.448833	-0.168528	0.088494	-0.120544	-141.401977	-77.879111	71.790642			
09833	9.464553	-1.445967	-1.508077	-0.194003	0.015424	-0.122228	-141.390504	-77.868115	71.786043			
09834	9.471497	-1.465617	-1.537710	-0.200388	-0.015516	-0.107975	-141.380150	-77.858310	71.782091			
09835	9.309391	-1.522963	-1.586414	-0.246339	-0.110871	-0.250893	-141.355010	-77.851300	71.765302			
09836	9.243798	-1.547391	-1.589393	-0.270845	-0.133728	-0.311259	-141.324222	-77.838791	71.755267			
09837	9.224377	-1.545358	-1.619538	-0.257960	-0.162659	-0.325477	-141.307279	-77.820525	71.771221			
09838	9.247613	-1.519110	-1.550312	-0.254579	-0.082322	-0.317535	-141.286000	-77.794086	71.794724			
09839	9.307784	-1.479588	-1.649898	-0.176060	-0.144375	-0.247420	-141.262516	-77.762514	71.818828			
09840	9.379542	-1.373542	-1.706694	-0.049549	-0.141216	-0.181860	-141.244538	-77.725852	71.850583			
09841	9.450826	-1.320894	-1.750994	0.022695	-0.143805	-0.111777	-141.227788	-77.685962	71.882509			
09842	9.463352	-1.257406	-1.796716	0.102202	-0.155665	-0.100344	-141.192572	-77.647583	71.898764			
09843	9.481087	-1.213917	-1.785673	0.143478	-0.121462	-0.090656	-141.138219	-77.610552	71.906968			
09844	9.433564	-1.193641	-1.776466	0.160234	-0.109911	-0.141339	-141.072733	-77.568358	71.916521			
09845	9.411351	-1.144127	-1.738739	0.195743	-0.056286	-0.176076	-141.008918	-77.521313	71.931371			
09846	9.402343	-1.132664	-1.715984	0.202517	-0.025715	-0.190323	-140.944907	-77.467235	71.940186			
09847	9.484575	-1.121975	-1.691627	0.214390	0.025450	-0.115730	-140.866124	-77.411438	71.919715			
09848	9.462777	-1.126357	-1.683394	0.211698	0.034979	-0.137947	-140.777254	-77.358032	71.875885			
09849	9.427409	-1.145836	-1.646820	0.183640	0.061853	-0.176119	-140.685817	-77.306259	71.812614			
09850	9.516637	-1.101837	-1.620920	0.227467	0.126421	-0.099806	-140.571347	-77.256425	71.711564			
09851	9.494387	-1.106834	-1.568430	0.208874	0.174342	-0.130001	-140.439368	-77.209988	71.584806			
09852	9.441012	-1.069835	-1.571993	0.247932	0.178246	-0.186932	-140.305759	-77.167135	71.449389			
09853	9.509532	-1.075364	-1.474678	0.218870	0.285212	-0.136271	-140.178344	-77.121813	71.324150			
09854	9.495125	-1.046130	-1.463399	0.247950	0.308136	-0.156762	-140.043277	-77.078367	71.199026			
09855	9.499811	-0.968052	-1.394904	0.302394	0.403853	-0.175533	-139.914360	-77.037648	71.086779			
09856	9.608274	-0.981044	-1.324638	0.279263	0.491413	-0.080444	-139.780588	-76.999091	70.970539			
09857	9.763967	-1.021014	-1.351703	0.270912	0.490320	0.081291	-139.619065	-76.961513	70.823886			
09858	9.846775	-1.012551	-1.279524	0.267226	0.579932	0.147919	-139.401921	-76.932283	70.616642			
09859	9.884930	-1.030217	-1.262018	0.257297	0.598701	0.184374	-139.149122	-76.914595	70.361072			
09860	9.857084	-1.070045	-1.200532	0.207072	0.633270	0.152475	-138.836424	-76.909035	70.029445			
09861	9.751262	-1.041388	-1.095064	0.199252	0.712396	0.027208	-138.479355	-76.914977	69.637763			
09862	9.687540	-1.072868	-1.170442	0.206196	0.612693	-0.017205	-138.106532	-76.925389	69.220476			
09863	9.641070	-1.108916	-1.131857	0.168671	0.618537	-0.063330	-137.706116	-76.936844	68.779656			
09864	9.701986	-1.078762	-1.174707	0.231609	0.594882	-0.001232	-137.302766	-76.948747	68.342893			
09865	9.722517	-1.040298	-1.147159	0.272897	0.629074	0.008478	-136.893941	-76.968483	67.898306			
09866	9.753584	-1.092009	-1.075247	0.215568	0.672916	0.035243	-136.443856	-77.003735	67.403957			
09867	9.797710	-1.128086	-0.985955	0.167588	0.737783	0.069993	-135.975038	-77.053980	66.888342			
09868	9.834349	-1.249403	-0.922992	0.049596	0.745167	0.115533	-135.473571	-77.118342	66.342778			
09869	9.842827	-1.294892	-0.744622	-0.042211	0.875579	0.104166	-134.912866	-77.196948	65.750191			
09870	9.859470	-1.305927	-0.604934	-0.086346	0.980935	0.102492	-134.296951	-77.287585	65.112324			
09871	9.902907	-1.286976	-0.475428	-0.095954	1.089935	0.124751	-133.632383	-77.386864	64.431835			
09872	9.847318	-1.298864	-0.347550	-0.142473	1.165000	0.056451	-132.924678	-77.498772	63.719190			
09873	9.802240	-1.223379	-0.273128	-0.087531	1.220692	-0.006704	-132.155963	-77.615021	62.951618			
09874	9.793095	-1.156385	-0.138756	-0.058104	1.333814	-0.041370	-131.339486	-77.741397	62.137546			
09875	9.848948	-1.067609	0.001314	-0.004132	1.469554	-0.015656	-130.468816	-77.876100	61.273317			
09876	9.878757	-1.007372	0.114873	0.031041	1.563225	-0.005902	-129.506201	-78.024092	60.330806			
09877	10.013347	-0.847545	0.366921	0.119530	1.832863	0.073980	-128.423945	-78.192418	59.282064			
09878	10.128094	-0.681643	0.596061	0.221023	2.073785	0.139626	-127.208061	-78.382985	58.088861			
09879	10.235842	-0.408873	0.931920	0.383370	2.441408	0.172318	-125.839770	-78.604555	56.702639			
09880	10.431780	-0.242723	1.227967	0.474449	2.741306	0.318874	-124.283477	-78.855774	55.057550			
09881	10.676218	0.087500	1.570641	0.711465	3.136758	0.488290	-122.504710	-79.137895	53.115588			
09882	10.941922	0.288425	1.875376	0.852495	3.441825	0.711194	-120.458711	-79.453351	50.811423			
09883	11.120756	0.543496	2.093302	1.073626	3.655196	0.856621	-118.083995	-79.800450	48.068270			
09884	11.303749	0.640477	2.205146	1.195520	3.697661	1.047513	-115.208372	-80.178024	44.714781			
09885	11.484968	0.494572	2.221454	1.132005	3.550275	1.286675	-111.740498	-80.568396	40.667382			
09886	11.705970	0.382264	2.160366	1.134826	3.329587	1.565652	-107.757958	-80.922937	36.093156			
09887	11.787405	0.225685	1.960082	1.122817	2.937103	1.717521	-103.151263	-81.239810	30.857873			
09888	11.410651	-0.118647	1.831926	0.845986	2.516922	1.435417	-98.117332	-81.492281	25.235927			
09889	10.972887	-0.367101	1.957709	0.564227	2.387054	1.066351	-93.497383	-81.666716	20.067035			
09890	11.046806	-1.048998	2.152705	-0.089955	2.267685	1.260481	-89.971003	-81.767455	16.048464			
09891	12.247937	-1.498064	2.358093	-0.369308	2.277207	2.536125	-85.695174	-81.805850	11.246897			
09892	11.709525	-2.438827	1.904577	-1.170266	1.421296	2.157928	-79.157734	-81.733290	4.260679			
09893	10.035509	-2.770135	0.886949	-1.416531	0.163705	0.537971	-72.740175	-81.530201	-2.379872			
09894	9.928262	-2.464516	0.174942	-0.923059	-0.586377	0.359708	-68.042524	-81.259407	-7.444027			
09895	10.310261	-3.205717	0.025359	-1.508090	-1.039348	0.827950	-64.113555	-80.951939	-11.873309			
09896	10.399343	-3.310913	0.904660	-1.778766	-0.326616	0.988009	-60.149976	-80.659020	-16.235678			
09897	10.106826	-3.184264	0.700920	-1.644948	-0.603130	0.661459	-55.855573	-80.404487	-20.739561			
09898	10.309451	-3.633393	-0.700109	-1.741205	-2.217194	0.771587	-51.271564	-80.174813	-25.366727			
09899	10.225754	-2.990439	-0.850452	-1.128471	-2.353262	0.551609	-46.498917	-79.914164	-30.174219			
09900	9.813685	-2.798760	-0.844614	-1.040129	-2.414019	0.083956	-42.019876	-79.574656	-34.788349			
09901	9.381979	-2.119552	-0.813684	-0.489852	-2.315788	-0.454710	-38.111600	-79.209563	-38.921346			
09902	9.590850	-1.587902	-1.255684	0.112886	-2.773966	-0.411982	-34.535383	-78.775561	-42.793247			
09903	9.315805	-0.605160	-1.186745	0.973201	-2.583142	-0.816173	-31.218391	-78.266243	-46.512073			
09904	9.024364	-0.298621	-0.252389	1.008969	-1.707589	-1.000393	-28.220873	-77.727704	-49.913929			
09905	8.756385	-0.016604	0.783407	1.018470	-0.734551	-1.111532	-25.466864	-77.211888	-52.916121			
09906	9.027734	0.499146	1.142684	1.463907	-0.447850	-0.828807	-23.194648	-76.740936	-55.441897			
09907	9.151187	0.286286	0.903233	1.293662	-0.856897	-0.744438	-21.348654	-76.263956	-57.623068			
09908	8.641420	-0.071743	0.835502	0.870303	-0.991279	-1.231512	-19.740326	-75.830009	-59.507946			
09909	8.120947	0.019248	0.699496	0.899063	-1.077975	-1.783455	-18.519170	-75.421131	-61.111056			
09910	7.817678	-0.001570	0.915381	0.791274	-0.878785	-2.030960	-17.544542	-75.072349	-62.448956			
09911	7.571786	0.265934	0.983471	1.001072	-0.766417	-2.277430	-16.787389	-74.782897	-63.571814			
09912	7.352784	0.301443	1.083714	0.984608	-0.657893	-2.469232	-16.238672	-74.584486	-64.479492			
09913	7.231189	0.436747	1.292533	1.065396	-0.439020	-2.544702	-15.916342	-74.442655	-65.192195			
09914	7.238983	0.510378	1.529065	1.103276	-0.224898	-2.482368	-15.894463	-74.386048	-65.679170			
09915	7.379374	0.581223	1.504520	1.197046	-0.285546	-2.360031	-16.249445	-74.353929	-65.960015			
09916	7.415922	-0.163441	1.181094	0.515992	-0.718093	-2.353755	-16.856797	-74.341807	-66.117987			
09917	7.359629	-0.581844	1.153347	0.112517	-0.780636	-2.382290	-17.703290	-74.342392	-66.150038			
09918	7.386342	-1.419258	0.866087	-0.673521	-1.144044	-2.358835	-18.593660	-74.367300	-66.117715			
09919	7.398058	-2.022605	0.909226	-1.262542	-1.136023	-2.278486	-19.522052	-74.422832	-66.020687			
09920	7.486422	-2.561792	0.942205	-1.779217	-1.130588	-2.128093	-20.437042	-74.534612	-65.843440			
09921	7.627072	-3.160254	1.114764	-2.357244	-0.991380	-1.884104	-21.269109	-74.687639	-65.618394			
09922	7.729761	-3.556461	1.624487	-2.750435	-0.492128	-1.613346	-22.003226	-74.866936	-65.381671			
09923	7.547743	-4.050844	2.031950	-3.264224	-0.025064	-1.636471	-22.651281	-75.055839	-65.146789			
09924	7.300956	-4.404179	2.473146	-3.646576	0.495956	-1.733484	-23.118306	-75.289854	-64.876448			
09925	7.332446	-3.943757	3.086813	-3.198608	1.153945	-1.610033	-23.513942	-75.557786	-64.583877			
09926	7.385269	-4.158633	3.216059	-3.415471	1.301168	-1.516855	-23.773293	-75.852346	-64.291813			
09927	7.467596	-3.978056	3.505632	-3.250961	1.608707	-1.403018	-23.832615	-76.165041	-64.031471			
09928	6.939339	-4.021045	3.946468	-3.390776	2.175799	-1.833579	-23.676862	-76.498828	-63.860863			
09929	6.765564	-4.157782	4.492423	-3.611368	2.753908	-1.899694	-23.179958	-76.891812	-63.859308			
09930	7.085551	-4.223650	4.603197	-3.720839	2.804323	-1.595386	-22.358982	-77.361802	-64.038683			
09931	7.766947	-4.000500	4.847257	-3.547109	2.931325	-0.944236	-21.225564	-77.912019	-64.282697			
09932	8.658167	-2.829922	5.233712	-2.455877	3.263738	-0.133904	-19.966397	-78.540032	-64.602340			
09933	9.837002	-1.876542	5.165707	-1.540394	3.136559	0.899903	-18.648176	-79.203950	-65.137710			
09934	11.392292	-0.678383	5.303582	-0.378524	3.224683	2.345778	-17.135409	-79.818108	-66.121549			
09935	12.731987	0.215138	5.891171	0.405152	3.773846	3.694637	-15.382634	-80.271879	-67.560125			
09936	13.338811	0.822979	6.921875	0.814494	4.815408	4.423218	-13.445600	-80.519121	-69.442423			
09937	13.163046	1.288925	7.886841	1.057754	5.852041	4.391661	-11.301651	-80.565181	-71.587778			
09938	11.983080	1.682174	8.155444	1.284892	6.316489	3.278746	-9.022620	-80.495297	-73.978668			
09939	10.946014	2.065847	7.497864	1.635831	5.843169	2.165706	-6.758608	-80.422717	-76.392585			
09940	9.894641	2.455602	6.395994	2.060308	4.944392	0.964621	-4.485059	-80.376030	-78.848893			
09941	8.874972	3.846962	4.470560	3.573170	3.366353	-0.354889	-2.203555	-80.405760	-81.243759			
09942	8.793454	5.149673	1.795590	5.113340	0.892999	-0.861479	-0.202089	-80.542792	-83.504571			
09943	9.199192	5.295965	-1.407578	5.556334	-2.288137	-0.950143	1.662172	-80.899298	-85.598470			
09944	9.181221	6.023283	-4.380535	6.522968	-5.080945	-1.363010	3.944566	-81.530428	-87.998540			
09945	9.617747	6.093962	-5.211922	6.613560	-5.854329	-0.936539	6.529261	-82.429268	-90.685560			
09946	12.605238	4.738387	-2.837333	4.949166	-3.906877	2.419812	8.131990	-83.299454	-92.681469			
09947	15.593629	2.000712	2.546039	1.690365	0.942603	5.995518	7.020668	-83.784065	-92.366416			
09948	17.174109	-3.206135	7.797236	-3.747296	5.663558	8.073036	2.064978	-83.803348	-88.937458			
09949	15.392734	-10.023287	7.380512	-10.171050	5.240973	6.340771	-5.653011	-83.419147	-83.122352			
09950	11.588902	-10.888017	0.571594	-10.669677	-0.868082	1.959108	-11.786383	-82.962375	-78.665771			
09951	7.706698	-7.774028	-5.889181	-7.704687	-6.619236	-2.648227	-15.913414	-82.658612	-76.283535			
09952	3.300919	-6.876490	-8.330480	-7.209610	-8.316980	-7.278681	-18.415663	-82.987288	-75.291216			
09953	3.197818	-7.762895	-8.982658	-8.259908	-8.758076	-7.313749	-19.508476	-83.985032	-74.428624			
09954	4.734322	-6.003399	-7.372623	-6.310159	-7.418339	-5.575012	-18.051135	-85.183109	-74.660329			
09955	6.891470	-3.908356	-5.504018	-3.951129	-5.867982	-3.254067	-14.225742	-86.218603	-76.630343			
09956	8.759489	-1.947751	-2.531409	-1.849464	-3.018258	-1.187179	-10.147506	-87.121147	-79.343968			
09957	9.887653	-1.014410	-0.829496	-0.932756	-1.263097	0.036977	-6.588624	-87.940867	-82.293678			
09958	9.694920	-0.477493	-1.397056	-0.415434	-1.684066	-0.160690	-2.548050	-88.757709	-85.969784			
09959	9.707750	1.689523	-2.148123	1.760995	-2.221631	-0.134380	12.006105	-89.709445	-99.808345			
09960	10.675694	4.237421	-2.178918	4.316988	-1.948456	0.875428	173.922535	-89.310390	99.096561			
09961	10.820614	5.447484	-1.585631	5.513347	-1.057436	1.038844	-179.466009	-88.513429	93.193866			
09962	10.339171	5.648308	-1.022897	5.698344	-0.302344	0.545067	-175.706405	-87.809695	89.856997			
09963	10.290170	5.344397	-0.995426	5.415156	-0.148344	0.487493	-173.126583	-87.168333	87.415834			
09964	10.211657	4.269812	-1.226267	4.382916	-0.356134	0.418414	-171.473574	-86.599968	85.596645			
09965	9.994860	2.783161	-1.215616	2.916086	-0.389816	0.210540	-170.588259	-86.139957	84.334592			
09966	9.723835	1.238915	-0.988053	1.370507	-0.221092	-0.058888	-170.275774	-85.707973	83.574480			
09967	9.593493	0.267685	-0.825816	0.398614	-0.059003	-0.188449	-170.369598	-85.282002	83.295894			
09968	9.811835	-0.639179	-0.790158	-0.502300	0.018891	0.038806	-170.775540	-84.882121	83.392187			
09969	9.742384	-1.301839	-0.681344	-1.169980	0.158797	-0.031141	-171.359260	-84.526978	83.843322			
09970	9.612933	-1.985242	-0.585255	-1.862401	0.277783	-0.161462	-172.143712	-84.141085	84.667195			
09971	9.936630	-2.037961	-0.139896	-1.942279	0.810056	0.111050	-173.016186	-83.787733	85.760983			
09972	9.795219	-2.160559	-0.071274	-2.084325	0.908881	-0.042901	-173.909620	-83.464346	86.886566			
09973	9.587182	-2.624164	-0.255830	-2.556104	0.717112	-0.230532	-174.642233	-83.187229	87.962994			
09974	9.229366	-2.340439	-0.273844	-2.287677	0.703197	-0.592828	-174.983554	-82.864456	88.921745			
09975	9.286247	-1.457215	-0.979702	-1.365601	0.103671	-0.461648	-175.048697	-82.518152	89.748560			
09976	9.206578	-0.788546	-1.934218	-0.615905	-0.750501	-0.422200	-174.905942	-82.157348	90.322718			
09977	9.276819	0.031941	-2.308940	0.249549	-0.975300	-0.305968	-174.760265	-81.778155	90.835434			
09978	9.345684	0.756432	-2.030724	0.950443	-0.544412	-0.281812	-174.659899	-81.367377	91.265357			
09979	9.603549	1.761245	-1.506105	1.888481	0.206907	-0.117912	-174.686922	-80.946381	91.804742			
09980	9.616026	2.381779	-1.234789	2.463541	0.636976	-0.159183	-174.790152	-80.557695	92.342943			
09981	9.511755	2.540779	-1.269065	2.615187	0.690269	-0.261597	-174.940390	-80.176390	92.905752			
09982	9.551383	2.550956	-1.488552	2.644123	0.560767	-0.187420	-175.090991	-79.825249	93.349147			
09983	9.411448	2.017572	-1.737953	2.143599	0.287407	-0.273902	-175.206015	-79.486047	93.739145			
09984	9.397952	1.612351	-1.745755	1.736948	0.281072	-0.279979	-175.260946	-79.154129	93.990762			
09985	9.416686	1.167817	-1.495672	1.252558	0.519415	-0.302911	-175.334457	-78.834372	94.204912			
09986	9.276815	0.737431	-1.380519	0.804864	0.590819	-0.457910	-175.417606	-78.531602	94.318113			
09987	9.379258	0.341980	-1.386284	0.406346	0.596288	-0.352862	-175.503905	-78.211334	94.424168			
09988	9.348378	-0.018846	-1.573545	0.071913	0.407430	-0.341830	-175.607200	-77.875375	94.484756			
09989	9.344159	-0.249870	-1.635799	-0.154817	0.367956	-0.331552	-175.709445	-77.519011	94.559693			
09990	9.386160	-0.519170	-1.883695	-0.392411	0.157493	-0.234654	-175.823760	-77.145782	94.606694			
09991	9.399876	-0.846455	-1.929629	-0.717661	0.129798	-0.207200	-175.885611	-76.760548	94.701327			
09992	9.386653	-1.071277	-1.607699	-0.994812	0.467178	-0.292534	-175.890487	-76.363025	94.739247			
09993	9.338359	-1.326155	-1.377257	-1.287081	0.702884	-0.394115	-175.886131	-75.957449	94.826399			
09994	9.362997	-1.477544	-1.171424	-1.474330	0.947992	-0.423949	-175.836518	-75.543040	94.889618			
09995	9.461627	-1.270474	-0.940496	-1.313880	1.291066	-0.398469	-175.739241	-75.108780	94.979372			
09996	9.503342	-1.006102	-0.784481	-1.083651	1.560664	-0.414241	-175.615154	-74.672250	95.020257			
09997	9.542839	-0.423129	-0.625468	-0.541269	1.885283	-0.443145	-175.464820	-74.231141	95.081083			
09998	9.644608	0.241629	-0.474502	0.082093	2.236271	-0.416205	-175.303907	-73.796701	95.079254			
09999	9.742305	0.922281	-0.411414	0.733863	2.509275	-0.373573	-175.118759	-73.366756	95.093332			
10000	9.938832	1.415847	-0.470048	1.220996	2.667492	-0.200243	-174.901205	-72.949319	95.061813			
10001	10.113199	1.827941	-0.559366	1.632208	2.780130	-0.038367	-174.671042	-72.556962	95.066526			
10002	10.192124	2.022984	-0.649180	1.833009	2.825804	0.038594	-174.446017	-72.195422	95.072754			
10003	10.280077	2.068976	-0.689772	1.878271	2.888988	0.115149	-174.277794	-71.874114	95.089432			
10004	10.212448	1.724486	-0.786069	1.554779	2.772446	0.075781	-174.156179	-71.593256	95.107587			
10005	10.210331	1.332365	-0.730015	1.155071	2.799815	0.055729	-174.072434	-71.351061	95.127726			
10006	10.117810	0.671713	-0.654966	0.490703	2.755785	-0.044627	-174.047447	-71.155803	95.167034			
10007	10.053124	-0.006091	-0.577016	-0.193269	2.710254	-0.116534	-174.072833	-71.000645	95.253740			
10008	9.974727	-0.653097	-0.540560	-0.840146	2.617538	-0.186861	-174.120154	-70.897221	95.380686			
10009	9.973261	-1.019308	-0.415568	-1.232553	2.675565	-0.221036	-174.165265	-70.826539	95.572455			
10010	10.196395	-1.152526	-0.261449	-1.410489	2.870085	-0.058905	-174.179798	-70.793257	95.770663			
10011	10.626877	-1.054744	-0.310358	-1.329596	2.984906	0.358932	-174.103574	-70.767762	95.962141			
10012	10.858822	-0.863844	-0.457502	-1.129483	2.959712	0.619662	-173.944890	-70.768944	96.131095			
10013	11.270026	-0.727507	-0.520647	-1.004340	3.058127	1.024885	-173.694086	-70.775579	96.304463			
10014	11.573160	-0.615036	-0.411193	-0.934681	3.272308	1.273508	-173.380759	-70.811917	96.473182			
10015	11.605595	-0.608295	-0.258636	-0.969154	3.409307	1.258179	-173.028582	-70.877415	96.643838			
10016	11.616222	-0.719970	-0.082365	-1.124514	3.526252	1.221927	-172.642697	-70.977495	96.801568			
10017	11.768157	-0.798671	0.146850	-1.266384	3.734151	1.304921	-172.208154	-71.134179	96.925550			
10018	12.385868	-0.491322	0.299670	-1.030702	4.100573	1.843367	-171.699060	-71.386666	96.935485			
10019	13.318420	0.133262	0.078675	-0.394205	4.288257	2.791246	-171.017692	-71.742488	96.757590			
10020	13.808033	0.843403	-0.212385	0.378722	4.278119	3.339179	-170.102972	-72.193094	96.408131			
10021	13.830895	1.357268	0.135643	0.815035	4.643554	3.261185	-169.080753	-72.731068	95.948816			
10022	12.649780	1.084613	0.579148	0.504262	4.512445	2.057905	-168.069167	-73.328442	95.403436			
10023	11.830009	-0.382202	0.332771	-0.761112	3.511829	1.469697	-167.238290	-73.951786	94.829877			
10024	11.703313	-3.159685	0.153346	-3.303920	2.354034	1.611610	-166.222278	-74.733597	94.083737			
10025	11.363194	-5.100290	2.197720	-5.696486	3.382194	0.960947	-164.753102	-75.828325	92.600157			
10026	10.802105	-6.528598	1.332761	-6.691523	1.821313	0.816777	-162.728806	-77.128565	90.326643			
10027	11.124253	-4.584119	-0.130626	-4.289646	0.873671	1.394844	-159.975332	-78.482175	87.585573			
10028	11.361404	-2.046448	-1.336063	-1.398756	0.276285	1.720508	-156.825410	-79.771997	84.775716			
10029	11.601999	-0.135077	-2.134597	0.763683	-0.109419	1.959333	-153.494710	-80.937110	82.210189			
10030	11.974422	1.262797	-2.478887	2.288875	-0.157694	2.264498	-149.855449	-82.026977	79.525657			
10031	11.862521	1.163241	-2.643426	2.324197	-0.564643	2.159597	-145.638440	-83.085596	76.272857			
10032	11.481131	1.513115	-2.505315	2.660303	-0.556142	1.719553	-140.499936	-84.095321	71.924111			
10033	11.055511	0.968033	-3.077066	2.410787	-1.524966	1.344744	-133.512792	-85.075273	65.341626			
10034	10.224037	0.263563	-3.709354	2.016310	-2.634033	0.548428	-124.557605	-85.911098	56.565265			
10035	10.382617	0.089878	-3.947959	1.987308	-3.097185	0.668153	-112.921144	-86.612006	44.964316			
10036	10.590841	0.291846	-4.130321	2.274710	-3.375144	0.805270	-95.752177	-87.147080	27.744277			
10037	10.757847	0.317664	-4.195097	2.346924	-3.619991	0.902488	-74.315211	-87.355399	6.260017			
10038	10.815975	0.481623	-3.503520	2.261558	-3.117532	0.894995	-52.237566	-87.120922	-15.878967			
10039	10.666303	0.883973	-2.670981	2.339552	-2.390520	0.698935	-35.790141	-86.576325	-32.307216			
10040	10.763665	2.081244	-1.236659	2.944911	-0.822427	0.787520	-24.342532	-85.768514	-44.059013			
10041	10.301265	1.504411	-1.244475	2.411506	-1.243671	0.314573	-16.872632	-84.767836	-52.129287			
10042	9.512913	0.517923	-1.200431	1.448154	-1.708547	-0.475367	-12.075250	-83.812297	-57.443748			
10043	9.344873	0.670952	-0.984098	1.513013	-1.612609	-0.655545	-8.609351	-82.943238	-61.340239			
10044	9.075964	0.336626	-1.579970	1.382279	-2.411878	-1.023326	-6.025738	-82.104980	-64.427873			
10045	8.580478	0.512450	-1.823510	1.585522	-2.662728	-1.590360	-3.981231	-81.306864	-67.008263			
10046	8.256361	0.709854	-1.951920	1.773749	-2.805941	-1.973022	-2.419147	-80.552002	-69.183030			
10047	7.973096	0.659793	-2.016139	1.703427	-2.960150	-2.302365	-1.191706	-79.848977	-71.056194			
10048	7.651595	0.694308	-2.063752	1.702013	-3.048781	-2.664603	-0.150545	-79.222518	-72.710892			
10049	7.366259	0.693545	-1.978635	1.629835	-3.013263	-2.962810	0.652406	-78.635668	-74.116069			
10050	7.138134	0.819008	-1.871277	1.679388	-2.918362	-3.195469	1.215881	-78.108462	-75.262643			
10051	6.792899	0.749981	-1.946141	1.588843	-3.013861	-3.576895	1.478717	-77.619244	-76.143996			
10052	6.580279	0.723379	-2.003639	1.541762	-3.096668	-3.823438	1.451098	-77.193125	-76.789826			
10053	6.424037	0.501554	-1.932542	1.276126	-3.107512	-3.984385	1.172847	-76.838563	-77.254009			
10054	6.216142	-0.153185	-2.035336	0.626953	-3.359117	-4.233303	0.694552	-76.518270	-77.577722			
10055	6.032930	-0.582570	-2.149834	0.195117	-3.553088	-4.455937	0.082825	-76.261226	-77.767957			
10056	5.932235	-1.223310	-2.392339	-0.416363	-3.912024	-4.622909	-0.542534	-76.084852	-77.857335			
10057	5.599544	-1.739392	-2.284037	-0.986746	-3.836782	-4.923660	-1.100195	-75.987344	-77.850809			
10058	5.194050	-2.185795	-2.145744	-1.490959	-3.685929	-5.279367	-1.625553	-76.009605	-77.750576			
10059	4.781576	-2.715228	-1.909554	-2.088531	-3.442691	-5.609334	-2.133237	-76.145534	-77.555115			
10060	4.827740	-3.118780	-1.586268	-2.547773	-3.190894	-5.467915	-2.636260	-76.410210	-77.263094			
10061	5.553266	-3.040418	-1.041075	-2.530552	-2.784360	-4.615555	-3.198147	-76.798518	-76.871771			
10062	6.605706	-2.808289	-0.387038	-2.358996	-2.297337	-3.422957	-3.919071	-77.273624	-76.341557			
10063	7.605926	-2.248224	0.566526	-1.910647	-1.427871	-2.227462	-4.800384	-77.776942	-75.719416			
10064	8.538046	-1.789590	1.997763	-1.631388	-0.082386	-1.013645	-5.692078	-78.225948	-75.107863			
10065	9.587984	-0.945525	4.299030	-1.084143	2.153380	0.458248	-6.521048	-78.618146	-74.559083			
10066	11.159426	-0.379413	7.066148	-0.820959	4.702566	2.508771	-7.356278	-78.902988	-74.166704			
10067	12.377104	-1.135012	8.841902	-1.677577	6.153937	4.042773	-8.190572	-79.008229	-74.054818			
10068	13.024099	-2.136639	10.071437	-2.672376	7.147546	4.931647	-8.927135	-79.013635	-74.172809			
10069	12.857018	-3.097019	11.359317	-3.643482	8.377836	5.035321	-9.459507	-79.071505	-74.450649			
10070	11.790219	-3.303893	11.623776	-3.826039	8.888331	4.021870	-9.514490	-79.294694	-74.920617			
10071	10.970292	-2.798552	10.941298	-3.284983	8.497769	3.028152	-8.805700	-79.645521	-75.675917			
10072	10.582110	-1.822242	9.936706	-2.321196	7.739126	2.383864	-7.419947	-80.037147	-76.625679			
10073	10.969930	-1.677679	8.216579	-2.126245	6.054501	2.413761	-5.858884	-80.460642	-77.485686			
10074	11.538497	-1.349924	5.965966	-1.659347	3.850854	2.555330	-4.328060	-80.897234	-78.289574			
10075	11.620431	-0.348471	2.950817	-0.381033	1.076848	2.127061	-2.719489	-81.271753	-79.448442			
10076	11.622646	1.335250	0.131645	1.598396	-1.400656	1.692483	-0.909907	-81.522261	-81.131726			
10077	12.053517	2.523047	-1.597024	2.961788	-2.961499	1.877501	0.814079	-81.662426	-82.907838			
10078	11.517277	3.337184	-1.937674	3.749869	-3.094796	1.318328	2.286795	-81.770826	-84.526566			
10079	8.898553	4.281011	-2.860287	4.718624	-3.489808	-1.371836	4.190618	-82.011993	-86.647124			
10080	8.899918	4.435878	-5.748790	5.191645	-6.259819	-1.701338	6.665325	-82.637156	-89.190372			
10081	13.474353	3.885606	-6.995035	4.759632	-8.003282	2.791861	8.044194	-83.590701	-90.678358			
10082	18.413127	1.445204	-3.322056	1.839608	-4.994814	8.182518	6.728190	-84.591429	-89.766663			
10083	21.514962	-1.332514	4.937050	-1.822157	2.813251	12.045977	2.343314	-85.153923	-86.210725			
10084	18.911406	-4.413310	12.207607	-5.360609	9.967513	10.138158	-3.107403	-84.358568	-82.193027			
10085	8.294788	-6.253257	9.241153	-6.761221	7.811993	-0.509144	-5.807967	-83.123176	-80.571765			
10086	2.331275	-2.961737	0.077590	-2.911999	-0.381387	-7.448891	-6.978302	-82.689791	-79.982809			
10087	-1.501180	0.372471	-10.755600	0.765620	-10.459336	-12.656235	-8.043940	-82.781103	-80.298406			
10088	-4.316611	-4.894636	-19.529695	-4.539123	-19.015390	-16.277888	-9.725116	-83.726035	-79.193457			
10089	0.691481	-6.050297	-18.378874	-5.446614	-18.555221	-10.739176	-9.826664	-85.429612	-77.497736			
10090	8.917184	-1.516531	-7.622822	-0.907094	-8.269062	-1.403529	-10.144691	-86.854828	-75.442664			
10091	12.729301	-0.716015	0.444472	-0.592090	-0.202553	2.929021	-10.706970	-87.669782	-74.443010			
10092	13.127612	-1.062381	2.631150	-1.145109	2.089007	3.405054	-12.641458	-88.289928	-72.766452			
10093	12.720829	-0.392781	2.094852	-0.452656	1.757828	2.957038	-17.323861	-88.856295	-68.257994			
10094	11.647093	1.297177	1.365227	1.270874	1.304560	1.844203	-34.676316	-89.384115	-50.904315			
10095	10.604238	2.197854	0.372617	2.234398	0.509577	0.778156	-102.854364	-89.589707	17.351842			
10096	9.649133	2.432749	-0.955556	2.569819	-0.687130	-0.176298	-144.555842	-89.190476	59.317546			
10097	8.780594	2.890866	-1.946948	3.116330	-1.537265	-1.028000	-154.830278	-88.648230	70.048241			
10098	8.723088	3.142844	-2.553354	3.448334	-2.000440	-1.060821	-158.339584	-88.012925	74.029554			
10099	9.200856	2.727721	-2.710605	3.088821	-2.053250	-0.556049	-159.594654	-87.315901	75.671913			
10100	9.745228	2.326706	-1.882943	2.640104	-1.123553	-0.030319	-159.986664	-86.660677	76.260548			
10101	9.879905	1.437382	-0.698323	1.649103	0.065289	0.058574	-160.627665	-86.134613	76.764945			
10102	9.723107	0.222417	0.054468	0.368341	0.752455	-0.123058	-161.929228	-85.696640	77.694011			
10103	9.619157	-0.873628	0.235371	-0.739926	0.893119	-0.220968	-163.697373	-85.253272	79.063930			
10104	9.611189	-1.514022	-0.329108	-1.329610	0.354719	-0.175194	-165.317372	-84.819067	80.462659			
10105	9.538353	-1.387076	-0.760922	-1.172811	0.007489	-0.215438	-166.408764	-84.402585	81.545842			
10106	9.364856	-1.257198	-1.103177	-1.019328	-0.269376	-0.358263	-167.132831	-84.014588	82.336723			
10107	9.214429	-1.237754	-1.258213	-0.988947	-0.376192	-0.490615	-167.572709	-83.653572	82.889582			
10108	8.856097	-1.441617	-1.252345	-1.194927	-0.370691	-0.839866	-167.877139	-83.247044	83.469077			
10109	9.083051	-0.986875	-1.069944	-0.753227	-0.056513	-0.644832	-168.091158	-82.780851	84.088358			
10110	9.288946	-0.746222	-1.233841	-0.489233	-0.096997	-0.425753	-168.239832	-82.317277	84.652264			
10111	9.122669	-0.472414	-1.300170	-0.207424	-0.083216	-0.588461	-168.375685	-81.873462	85.204074			
10112	9.056375	0.037701	-1.423191	0.314922	-0.080755	-0.650884	-168.653679	-81.410876	85.866314			
10113	9.148731	0.399643	-1.453598	0.676138	0.027666	-0.565340	-169.057500	-80.921455	86.584837			
10114	9.036860	0.580856	-1.366101	0.837922	0.201413	-0.695384	-169.408352	-80.435250	87.194834			
10115	8.844254	0.581186	-1.538773	0.855612	0.083821	-0.857983	-169.646160	-79.924280	87.722516			
10116	8.845591	0.715498	-1.808590	1.026182	-0.072976	-0.814446	-169.696954	-79.385581	88.111787			
10117	8.982745	0.722118	-1.848476	1.042702	0.007104	-0.672666	-169.630155	-78.832092	88.397658			
10118	9.111483	0.659222	-1.904793	0.995193	0.061933	-0.534382	-169.509641	-78.288696	88.589757			
10119	9.180128	0.515537	-1.960990	0.867913	0.090795	-0.451927	-169.409079	-77.761972	88.724904			
10120	9.209481	0.276552	-1.946329	0.634269	0.161319	-0.418525	-169.344398	-77.246873	88.833181			
10121	9.237970	0.116529	-1.770532	0.449611	0.396192	-0.424996	-169.349897	-76.739461	88.930876			
10122	9.241399	-0.241643	-1.632240	0.072498	0.555474	-0.441900	-169.446356	-76.230024	89.075978			
10123	9.304849	-0.558462	-1.462058	-0.272103	0.767128	-0.412339	-169.578590	-75.702211	89.280983			
10124	9.306355	-0.853034	-1.259107	-0.602525	1.000388	-0.455509	-169.714488	-75.157174	89.531938			
10125	9.329776	-1.052447	-0.997996	-0.851619	1.310346	-0.501113	-169.862921	-74.600756	89.825910			
10126	9.258668	-1.230811	-0.553664	-1.114280	1.770224	-0.693016	-169.983429	-74.043852	90.130062			
10127	9.341487	-1.113347	0.021595	-1.111832	2.440990	-0.795583	-170.061771	-73.496057	90.409382			
10128	9.622333	-0.814217	0.511378	-0.917091	3.115726	-0.704212	-170.037331	-72.969521	90.575285			
10129	9.703862	-0.157147	0.725451	-0.317574	3.534401	-0.750540	-169.876209	-72.483026	90.602238			
10130	10.026048	0.750279	0.542182	0.606065	3.696626	-0.466800	-169.538146	-72.037959	90.496399			
10131	10.378898	1.758422	0.313158	1.643362	3.847897	-0.148103	-169.076512	-71.651949	90.294118			
10132	10.517008	2.685235	-0.003990	2.624314	3.835774	-0.003644	-168.547426	-71.338106	90.029851			
10133	10.663271	3.256338	-0.330675	3.262517	3.745802	0.174459	-168.071413	-71.096153	89.766357			
10134	10.897052	3.113271	-0.696845	3.211723	3.498678	0.500787	-167.718156	-70.932676	89.533661			
10135	10.863043	2.681289	-0.883872	2.839409	3.257938	0.545874	-167.519985	-70.839643	89.381914			
10136	10.774615	1.943528	-0.881998	2.123610	3.099814	0.508600	-167.485144	-70.802098	89.321673			
10137	10.842024	1.118288	-0.491063	1.236071	3.327764	0.504256	-167.559990	-70.791341	89.368948			
10138	10.958516	0.331856	-0.010985	0.363819	3.656560	0.516714	-167.696652	-70.817787	89.464040			
10139	11.264632	-0.720138	0.116045	-0.697918	3.667783	0.840213	-167.774917	-70.840847	89.584202			
10140	11.861573	-1.273647	0.244390	-1.270574	3.866320	1.404086	-167.658385	-70.889350	89.648910			
10141	12.267519	-1.575401	0.879739	-1.701150	4.509522	1.611764	-167.307670	-70.952121	89.651931			
10142	12.521316	-1.560206	1.636723	-1.850022	5.266764	1.621252	-166.801457	-71.054486	89.538791			
10143	12.669724	-1.753834	1.965126	-2.107686	5.535058	1.692965	-166.095411	-71.244953	89.260751			
10144	13.198597	-2.000653	2.024421	-2.345346	5.640723	2.228275	-165.126801	-71.526450	88.787852			
10145	14.193564	-1.650217	2.108973	-1.988612	6.021558	3.164726	-163.842906	-71.897600	88.038820			
10146	14.502584	-1.418952	1.964640	-1.673471	5.923094	3.540688	-162.325472	-72.372946	86.971562			
10147	14.514722	-2.300373	1.138701	-2.240511	4.803558	3.941143	-160.476400	-72.995672	85.663182			
10148	13.987665	-2.762197	2.541694	-2.987348	5.628498	3.192480	-157.977017	-73.800170	83.928110			
10149	12.564764	-4.001225	1.986249	-3.972850	4.156709	2.218902	-155.225013	-74.792769	81.649008			
10150	12.287034	-4.058380	0.132943	-3.393352	2.070331	2.501881	-151.935178	-76.035692	78.684747			
10151	12.051936	-3.189760	-1.989545	-1.831312	-0.045050	2.677940	-148.135463	-77.361907	75.282826			
10152	13.183986	-2.228797	-2.776810	-0.499268	-0.618041	3.820090	-143.984824	-78.664883	71.767157			
10153	13.640694	-0.970075	-3.402730	1.023585	-1.098425	4.198857	-139.581665	-79.905844	68.195905			
10154	13.483655	0.400900	-3.724054	2.499830	-1.317339	3.893002	-134.868231	-81.074495	64.391263			
10155	12.949404	2.225681	-3.669382	4.222812	-1.011518	3.119625	-129.634212	-82.175407	60.032238			
10156	12.526164	2.814891	-3.726396	4.806390	-1.150726	2.608427	-123.513604	-83.188891	54.439350			
10157	12.030444	1.818001	-3.497996	3.791742	-1.579165	2.162131	-115.716204	-84.078293	46.829577			
10158	11.396295	0.479672	-2.818051	2.280531	-1.717100	1.584361	-105.603898	-84.802190	36.712028			
10159	10.768304	-0.441710	-2.870952	1.414266	-2.362175	0.995158	-93.450368	-85.294965	24.407484			
10160	10.339401	-0.864632	-3.459054	1.210261	-3.295358	0.545281	-79.057109	-85.522151	9.838876			
10161	9.816683	-1.193420	-3.464390	0.870122	-3.627997	-0.021340	-64.888561	-85.464340	-4.581015			
10162	9.564955	-0.977140	-3.010198	0.894251	-3.313784	-0.340597	-52.036677	-85.163334	-17.626334			
10163	9.156361	-0.898518	-2.158009	0.638920	-2.650794	-0.764707	-41.846536	-84.692772	-28.156754			
10164	9.274434	-0.732810	-2.240299	0.824303	-2.846834	-0.714100	-33.023510	-84.049723	-37.375183			
10165	8.600084	-0.798338	-2.085593	0.643347	-2.855156	-1.423412	-25.760569	-83.246929	-45.098464			
10166	8.206570	-0.824603	-2.054490	0.559204	-2.958386	-1.863975	-20.191856	-82.521806	-50.914656			
10167	8.582919	0.136775	-1.782142	1.389908	-2.564362	-1.545173	-15.655261	-81.865457	-55.603234			
10168	8.348341	0.583948	-1.912910	1.810518	-2.647985	-1.850050	-11.899405	-81.169449	-59.600928			
10169	7.974675	1.019946	-1.997696	2.192656	-2.663242	-2.281113	-8.814857	-80.522177	-62.953278			
10170	7.715940	1.428633	-1.844256	2.483420	-2.467606	-2.551809	-6.308772	-79.894821	-65.817026			
10171	7.509451	1.147298	-2.044608	2.225704	-2.816158	-2.812473	-4.282355	-79.323859	-68.334507			
10172	7.367212	0.942315	-2.342479	2.064603	-3.227470	-3.032498	-2.699723	-78.838780	-70.477942			
10173	7.614159	1.621973	-3.103900	2.892864	-3.881257	-2.971160	-1.585271	-78.423315	-72.338275			
10174	7.390310	1.467413	-3.278491	2.713971	-4.143337	-3.256448	-1.015831	-77.956043	-73.862995			
10175	7.142201	1.207296	-3.268587	2.380033	-4.247848	-3.532373	-0.765281	-77.497544	-75.085402			
10176	7.115689	0.855007	-3.193484	1.955159	-4.342063	-3.576879	-0.895440	-77.076694	-75.983413			
10177	6.844494	0.118120	-3.146228	1.149981	-4.474551	-3.861632	-1.316093	-76.676841	-76.612513			
10178	6.875928	-0.744473	-2.895707	0.198740	-4.472318	-3.798023	-1.918216	-76.311002	-77.036786			
10179	6.488970	-1.550020	-2.384865	-0.758234	-4.077182	-4.068271	-2.498703	-75.995904	-77.421820			
10180	6.434259	-2.538110	-2.247319	-1.801821	-4.111535	-4.090739	-3.045725	-75.755139	-77.743210			
10181	6.077675	-3.015378	-1.927412	-2.379067	-3.785700	-4.357969	-3.376943	-75.605875	-78.099000			
10182	5.799075	-3.520744	-1.858069	-2.934305	-3.708330	-4.605446	-3.449351	-75.573878	-78.510586			
10183	5.694310	-3.745463	-1.597555	-3.222783	-3.441433	-4.638139	-3.242508	-75.682013	-78.988080			
10184	5.817676	-3.676048	-0.980040	-3.248034	-2.846327	-4.365872	-2.743905	-75.908879	-79.502296			
10185	6.020379	-3.237361	-0.142041	-2.931049	-2.004750	-3.970131	-2.089601	-76.267634	-80.048565			
10186	6.481931	-3.076326	0.377110	-2.842004	-1.553403	-3.399330	-1.445246	-76.765298	-80.557478			
10187	7.059532	-2.770404	1.176283	-2.651806	-0.815570	-2.657401	-0.690991	-77.367982	-81.137498			
10188	7.817321	-1.981185	2.120018	-2.009953	0.116720	-1.720971	0.123944	-78.007202	-81.782362			
10189	8.742599	-1.208724	3.674127	-1.479769	1.627228	-0.509204	0.914368	-78.608718	-82.392498			
10190	9.883171	-0.333971	5.698762	-0.918127	3.587313	0.983228	1.408017	-79.126378	-82.828366			
10191	11.131280	0.045618	6.851573	-0.694712	4.620893	2.394502	1.391013	-79.532642	-83.055892			
10192	12.802422	0.305539	7.362308	-0.431907	4.944459	4.100022	0.825006	-79.880208	-83.191257			
10193	14.566730	-0.114959	7.914832	-0.782313	5.207516	5.907208	0.065619	-80.112288	-83.562042			
10194	14.674786	-0.586074	9.473878	-1.280521	6.712938	6.272770	-0.224392	-80.083854	-84.455027			
10195	12.465881	-0.533502	11.218991	-1.291381	8.800623	4.415056	0.322593	-79.873239	-85.853517			
10196	9.936320	0.251732	11.408882	-0.510013	9.468032	1.979369	1.908802	-79.821802	-87.622634			
10197	10.160041	1.616157	9.721913	0.909225	7.893193	1.901555	4.128536	-80.057014	-89.569358			
10198	11.138469	1.649646	6.792517	1.069378	4.911000	2.338951	6.311718	-80.365787	-91.454656			
10199	11.474813	1.365270	4.955504	0.856407	3.083435	2.346703	8.043898	-80.544787	-93.010175			
10200	10.038128	1.736044	3.512220	1.313276	1.956747	0.702058	9.262634	-80.561411	-94.182156			
10201	9.180633	2.639228	1.581790	2.364563	0.283175	-0.427582	10.219065	-80.588097	-95.179567			
10202	9.878654	4.142579	-0.264801	3.989516	-1.510787	0.016865	11.079025	-80.725258	-96.273072			
10203	11.037227	4.508106	-2.401203	4.476159	-3.770456	0.848297	11.225086	-80.981205	-97.198577			
10204	10.500394	2.717790	-4.320990	2.768084	-5.690025	-0.000656	11.841047	-81.417972	-98.675207			
10205	10.979414	1.334415	-6.060567	1.374219	-7.475490	0.251316	13.773090	-82.144797	-101.236902			
10206	15.046859	0.117942	-6.563714	-0.029210	-8.392309	4.296364	15.620589	-83.078171	-103.676319			
10207	20.071654	-1.159267	-2.829294	-1.624469	-5.039942	9.787606	15.105303	-83.952350	-104.080289			
10208	22.358736	-3.239181	4.037691	-3.766087	1.814574	12.753237	11.230783	-84.494031	-101.730531			
10209	18.898988	-6.621396	9.088879	-6.696607	7.389218	9.787287	5.005692	-84.224467	-97.489271			
10210	11.756116	-9.232927	13.282807	-8.584803	12.405547	3.312171	-0.302946	-82.958289	-93.811853			
10211	1.960741	-6.729056	5.497864	-6.283279	5.713678	-7.125130	-2.303970	-81.924284	-92.791596			
10212	-4.290189	-3.769068	-8.158049	-4.490243	-7.074235	-15.193873	-2.329299	-81.770021	-93.492429			
10213	-10.216782	-7.240850	-27.733690	-9.845917	-25.193587	-23.752005	-0.220436	-82.286928	-95.427151			
10214	-5.802513	-9.120156	-28.421770	-11.190261	-26.743603	-18.977004	5.458977	-84.111336	-98.704371			
10215	6.853714	-2.044364	-13.050402	-2.563935	-13.499418	-4.102633	12.879040	-86.156164	-103.360112			
10216	20.013053	4.020481	4.593787	3.674281	3.514385	10.482916	22.850410	-87.332946	-111.984773			
10217	18.309426	5.811633	5.829136	5.396110	5.181206	8.815912	30.621034	-87.717357	-120.121409			
10218	15.857659	4.457555	2.312491	4.113179	1.855906	6.197283	39.897170	-88.063169	-129.755649			
10219	12.789422	5.346822	1.983304	5.059979	1.715760	3.131157	51.350307	-88.371235	-141.188701			
10220	10.093500	5.001786	1.524268	4.775196	1.402488	0.407382	65.308161	-88.651086	-155.032347			
10221	8.719507	3.982432	-0.316014	3.805132	-0.330309	-1.014943	86.897965	-88.865771	-176.169248			
10222	8.019181	3.783037	-2.486848	3.681912	-2.382750	-1.715321	119.310773	-88.894769	152.159521			
10223	8.582081	3.690294	-3.704124	3.677170	-3.449957	-1.119911	151.509243	-88.534606	120.693412			
10224	9.748951	3.293127	-3.275192	3.322726	-2.851949	0.058331	168.568159	-87.930301	104.117331			
10225	9.746367	2.118163	-1.922169	2.136091	-1.427462	0.014394	175.671870	-87.392820	97.053709			
10226	9.288775	0.243628	-0.532665	0.221040	-0.066406	-0.508347	177.689036	-86.970548	94.593066			
10227	9.041820	-1.778189	-0.175757	-1.808983	0.272591	-0.779414	177.595505	-86.584444	93.918256			
10228	9.008506	-3.100256	-0.356572	-3.131455	0.145982	-0.809144	176.779934	-86.227063	93.976509			
10229	8.708405	-3.629634	-1.073146	-3.661188	-0.504072	-1.066078	176.366983	-85.838492	93.955301			
10230	8.787323	-3.119838	-1.178721	-3.156860	-0.524606	-0.975353	176.759515	-85.386578	93.640678			
10231	9.027109	-2.018501	-0.791694	-2.055824	-0.048398	-0.759469	177.561503	-84.918102	93.219533			
10232	9.272839	-1.429473	-0.475578	-1.465228	0.356554	-0.540105	178.519027	-84.474049	92.774439			
10233	9.372520	-0.938039	-0.154826	-0.975338	0.755113	-0.473187	179.531021	-84.058956	92.388785			
10234	9.273182	-0.310645	-0.112206	-0.344860	0.866976	-0.580671	-179.562820	-83.668068	92.128837			
10235	9.226523	0.008605	-0.427860	-0.007669	0.624159	-0.597380	-178.793169	-83.277282	92.005895			
10236	9.225832	0.550944	-0.914662	0.567060	0.239697	-0.545721	-178.172111	-82.868754	92.027105			
10237	9.242049	0.933109	-1.400299	0.988951	-0.137330	-0.471939	-177.667347	-82.443099	92.093829			
10238	9.290598	1.175689	-1.579597	1.253758	-0.207027	-0.401142	-177.209283	-81.990545	92.134206			
10239	9.575044	1.335132	-1.499525	1.412822	0.012485	-0.131999	-176.753294	-81.526409	92.101346			
10240	9.783578	1.238023	-1.306731	1.304742	0.311477	0.044221	-176.301900	-81.077285	92.011467			
10241	9.831475	1.382881	-1.068802	1.431218	0.651401	0.048312	-175.877303	-80.642859	91.903017			
10242	9.760150	1.411214	-0.935406	1.450302	0.853826	-0.050816	-175.548914	-80.226838	91.829758			
10243	9.621123	1.104066	-1.058769	1.162534	0.751761	-0.169614	-175.241543	-79.819153	91.767376			
10244	9.512837	0.840091	-1.297599	0.932101	0.543678	-0.235699	-174.944006	-79.395766	91.705971			
10245	9.389271	0.494584	-1.640309	0.634797	0.220127	-0.292091	-174.681967	-78.969453	91.615139			
10246	9.280167	0.050510	-1.960682	0.239235	-0.091587	-0.331009	-174.417554	-78.518782	91.506312			
10247	9.171178	-0.215438	-2.137172	0.003822	-0.240031	-0.396411	-174.198940	-78.039687	91.449792			
10248	9.107570	-0.487503	-1.926206	-0.287816	-0.002646	-0.495371	-174.057749	-77.542281	91.453521			
10249	9.057380	-0.945965	-1.515016	-0.794211	0.407813	-0.624183	-174.003438	-77.020321	91.541465			
10250	9.010364	-1.336728	-0.830279	-1.273617	1.091225	-0.821058	-173.967100	-76.460157	91.692636			
10251	9.158125	-1.524305	-0.183087	-1.553594	1.808643	-0.838123	-173.920853	-75.882194	91.876521			
10252	9.250152	-1.581443	0.422387	-1.703503	2.487221	-0.915728	-173.832867	-75.315813	92.044524			
10253	9.450050	-1.488169	0.693996	-1.662065	2.889210	-0.818846	-173.661063	-74.779460	92.162211			
10254	9.665955	-1.236931	0.798687	-1.440038	3.155076	-0.671031	-173.341336	-74.289578	92.188207			
10255	9.830871	-0.861032	0.663095	-1.055714	3.193953	-0.511566	-172.856934	-73.854250	92.138443			
10256	9.878570	-0.297997	0.550361	-0.485230	3.249202	-0.475410	-172.249674	-73.479978	92.033736			
10257	9.862249	0.184551	0.328010	0.027732	3.170236	-0.466343	-171.544455	-73.152612	91.901155			
10258	9.945818	0.735605	0.105322	0.611186	3.135705	-0.364671	-170.771804	-72.858752	91.752966			
10259	9.957719	1.330128	-0.020941	1.222965	3.184793	-0.363507	-169.995829	-72.611493	91.577605			
10260	9.862848	1.530038	-0.258609	1.473809	3.025225	-0.412724	-169.230963	-72.392382	91.393332			
10261	10.087248	2.013054	-0.376810	1.977219	3.133126	-0.209522	-168.469650	-72.186807	91.213218			
10262	10.372196	2.263998	-0.423207	2.239782	3.280822	0.041581	-167.759226	-72.020926	91.000846			
10263	10.414894	2.005069	-0.444731	2.003567	3.260965	0.088816	-167.063708	-71.883604	90.773756			
10264	10.562186	1.989447	-0.253393	1.955770	3.515817	0.157054	-166.376782	-71.771802	90.494481			
10265	10.643523	1.528759	-0.055539	1.475571	3.646404	0.194865	-165.689987	-71.669002	90.179493			
10266	12.057424	1.614183	0.201483	1.512374	4.373572	1.439518	-164.958020	-71.578621	89.773489			
10267	12.940201	1.520259	0.204554	1.451787	4.648138	2.274034	-164.212901	-71.569896	89.227006			
10268	12.800752	1.526207	0.234198	1.484653	4.631941	2.128177	-163.457450	-71.621117	88.701903			
10269	12.844664	1.331015	1.285929	1.046775	5.549553	1.871373	-162.771323	-71.713318	88.275611			
10270	12.709304	0.508940	2.715497	-0.111074	6.581369	1.404818	-162.191254	-71.897730	87.874034			
10271	13.085350	0.050734	3.219265	-0.659164	6.993408	1.687306	-161.587900	-72.193883	87.305714			
10272	14.483545	-0.557322	2.589562	-1.004599	6.604486	3.308273	-160.822514	-72.646622	86.460306			
10273	15.661072	-1.179232	2.647390	-1.521578	6.706874	4.552789	-159.693100	-73.370896	85.200529			
10274	14.942879	-2.628335	3.036706	-2.939639	6.278299	4.020355	-157.900455	-74.393518	83.361523			
10275	13.880259	-3.652315	2.879907	-3.804088	5.317630	3.284503	-155.437501	-75.632324	80.874349			
10276	12.860075	-3.755729	1.610062	-3.486294	3.539250	2.732719	-152.289852	-77.098266	77.622702			
10277	12.599560	-3.692798	-0.138443	-2.864129	1.496776	2.913214	-148.347115	-78.638533	73.701165			
10278	13.692675	-3.268783	-1.219139	-2.016749	0.387933	4.166847	-143.668158	-80.152663	69.282722			
10279	14.591779	-2.640046	-2.885857	-0.830606	-1.320295	5.212913	-138.440015	-81.579967	64.605075			
10280	15.027630	-1.743412	-4.328401	0.528829	-2.817747	5.658899	-132.408814	-82.904398	59.492819			
10281	15.013877	0.208733	-4.732572	2.570118	-3.020587	5.422692	-125.018466	-84.151746	53.179533			
10282	14.433293	2.096578	-3.640260	4.012369	-1.794316	4.562255	-114.444225	-85.323869	43.297237			
10283	13.413223	1.119361	-2.960125	2.808327	-1.848468	3.552107	-99.680346	-86.173265	28.631308			
10284	12.461912	-1.150316	-2.598588	0.485337	-2.575380	2.697303	-79.840904	-86.628569	8.793751			
10285	11.985164	-1.812620	-2.728819	-0.133926	-3.198919	2.192247	-57.478911	-86.599578	-13.597003			
10286	11.390335	-2.847261	-3.715736	-0.835784	-4.727536	1.527445	-38.366050	-86.075052	-32.784810			
10287	10.444147	-3.152042	-3.978663	-1.101759	-5.275249	0.473151	-25.715407	-85.364068	-45.374432			
10288	11.113581	-1.239890	-1.853666	0.048796	-2.902166	1.144312	-16.681646	-84.528963	-54.397538			
10289	10.214959	-0.291720	-2.079717	0.946091	-2.966741	0.139891	-9.640997	-83.408332	-61.830775			
10290	10.173530	-0.405246	-2.172699	0.833022	-3.324846	0.017460	-4.380291	-82.226873	-67.416428			
10291	10.010061	0.507625	-1.637540	1.485755	-2.740286	-0.147303	-0.220330	-81.136297	-71.806915			
10292	10.420737	1.311635	-1.638495	2.222853	-2.776260	0.204460	3.085135	-79.997733	-75.413261			
10293	9.741467	1.321882	-1.379799	2.076468	-2.639155	-0.471044	5.383919	-78.850987	-78.151692			
10294	9.047780	1.490147	-1.599286	2.226671	-2.867136	-1.241888	6.950804	-77.778346	-80.318788			
10295	8.063682	0.872833	-1.909381	1.639641	-3.299697	-2.339290	7.811686	-76.774913	-81.904533			
10296	7.438176	1.210068	-1.729130	1.851990	-3.044643	-2.951276	8.239655	-75.838103	-83.111006			
10297	7.093432	0.704093	-2.430122	1.485302	-3.876448	-3.529119	8.152785	-74.967201	-84.064634			
10298	6.665173	0.170432	-2.827923	0.990806	-4.378353	-4.129604	7.725107	-74.099349	-84.747491			
10299	6.107017	-0.374237	-2.957352	0.409848	-4.556223	-4.787417	7.001363	-73.309667	-85.169430			
10300	5.996527	-0.766895	-2.749319	-0.079789	-4.474249	-4.905633	6.157297	-72.607467	-85.414722			
10301	5.999672	-1.259266	-2.460261	-0.671133	-4.342325	-4.880348	5.133409	-71.956520	-85.551053			
10302	5.631124	-2.007098	-1.895354	-1.556021	-3.850532	-5.113504	4.097995	-71.341893	-85.615585			
10303	5.573107	-2.420651	-1.554905	-2.048545	-3.590531	-5.095884	3.151030	-70.734109	-85.603691			
10304	5.405029	-2.516578	-1.509991	-2.178742	-3.518855	-5.263156	2.192207	-70.166217	-85.560803			
10305	5.580964	-3.203594	-1.684285	-2.861566	-3.825039	-5.183711	1.422881	-69.668628	-85.569075			
10306	5.420882	-3.318038	-1.227746	-3.043162	-3.359687	-5.191612	0.956290	-69.236397	-85.637729			
10307	5.072228	-3.258951	-0.700299	-3.051243	-2.748296	-5.343299	0.786184	-68.887509	-85.798813			
10308	4.611925	-2.774959	-0.131511	-2.635820	-2.021708	-5.575627	0.825256	-68.642580	-86.052393			
10309	4.338714	-2.337474	0.311814	-2.248714	-1.479265	-5.672577	0.921681	-68.535904	-86.334817			
10310	4.321977	-2.215904	0.523650	-2.151226	-1.262376	-5.612384	1.058061	-68.582121	-86.635979			
10311	4.377352	-2.055330	0.731019	-2.013520	-1.063189	-5.484257	1.285229	-68.799525	-86.953103			
10312	4.438193	-2.006930	0.823096	-1.980000	-0.971903	-5.392536	1.607575	-69.197501	-87.202184			
10313	4.890205	-1.458393	1.428734	-1.479897	-0.490878	-4.747998	1.944744	-69.771857	-87.244814			
10314	5.752341	-0.412776	2.251667	-0.499901	0.122167	-3.643041	2.165125	-70.482308	-87.042801			
10315	6.885301	0.587381	2.733865	0.466124	0.372155	-2.405278	2.055281	-71.262268	-86.558922			
10316	8.500624	0.802217	2.984066	0.693905	0.227352	-0.797468	1.558138	-72.060689	-85.812036			
10317	10.417181	0.700317	3.560845	0.606353	0.311618	1.197358	0.696259	-72.785526	-84.893155			
10318	12.137484	0.041936	4.857090	-0.075991	1.107584	3.213335	-0.471884	-73.330529	-83.948232			
10319	13.426758	-0.879730	6.947743	-1.065059	2.761594	5.038588	-1.673423	-73.670846	-83.220748			
10320	14.292468	-2.241859	9.451863	-2.502923	4.893519	6.571006	-2.619304	-73.923218	-82.743028			
10321	14.829495	-3.390226	11.575068	-3.727789	6.778896	7.666991	-2.893522	-74.188375	-82.553397			
10322	13.914337	-3.255361	11.978187	-3.701785	7.492069	6.856066	-2.245768	-74.469561	-82.772751			
10323	12.223901	-2.495773	10.312244	-3.008976	6.448164	4.725520	-0.932856	-74.772360	-83.359380			
10324	10.352450	-1.879188	9.043709	-2.508098	5.809545	2.534331	0.798448	-75.111278	-84.279087			
10325	9.258834	-1.674985	7.823394	-2.365577	4.981361	1.110898	2.613581	-75.572224	-85.371618			
10326	9.568650	-1.652547	5.595265	-2.193746	2.829013	0.807082	4.352015	-76.102671	-86.536125			
10327	9.947746	-0.043448	3.033839	-0.347012	0.560737	0.566519	6.088720	-76.513538	-87.792760			
10328	9.838713	2.064732	0.661109	2.011605	-1.351394	-0.033765	7.409565	-76.664921	-89.002873			
10329	9.047907	3.781603	-1.553143	3.980168	-3.035716	-1.238317	8.634899	-76.791705	-90.293595			
10330	9.294176	5.763699	-3.911851	6.230459	-5.062601	-1.418925	10.098610	-77.098354	-91.847344			
10331	9.853063	8.058417	-5.018268	8.573172	-5.901645	-0.931651	12.340843	-77.651367	-94.393723			
10332	8.659656	6.898486	-4.826856	7.302397	-5.588698	-1.982229	14.752126	-78.365458	-97.412347			
10333	8.414463	2.417239	-2.404841	2.458980	-3.659846	-1.876302	17.312228	-79.301656	-100.151365			
10334	13.998300	1.727277	2.235185	0.949151	-0.025116	4.435936	19.475480	-80.400836	-102.069020			
10335	21.781719	1.693779	7.342479	0.035375	3.965509	12.891725	18.103661	-81.065001	-101.130878			
10336	20.020546	-0.123387	6.383758	-1.345994	3.172956	10.916545	13.613614	-80.929521	-98.302295			
10337	12.344903	-4.229195	1.058131	-4.528110	-1.206534	2.411887	8.158478	-80.637390	-95.421763			
10338	6.742409	-7.273089	-4.921067	-7.216264	-6.136070	-4.082137	3.703124	-80.564854	-93.365309			
10339	1.471136	-9.150205	-10.786160	-9.171270	-10.862232	-10.169003	3.126047	-81.035071	-93.630563			
10340	0.739529	-9.815823	-14.285036	-9.792464	-14.245750	-11.265110	4.792834	-82.129969	-94.130868			
10341	5.043826	-5.113637	-7.761689	-4.923643	-8.475710	-5.844922	6.851834	-83.416069	-94.144032			
10342	9.989131	-0.875054	1.247888	-1.031040	0.125692	0.238437	9.033307	-84.305004	-95.287727			
10343	11.060287	-0.458001	2.947827	-0.759492	1.868843	1.463773	11.519320	-84.895563	-98.291480			
10344	12.221914	-1.374819	0.611804	-1.588026	-0.462054	2.389848	15.259084	-85.510997	-102.828281			
10345	13.023255	0.241356	-0.897532	0.024331	-1.793836	3.119747	21.557619	-86.155084	-109.075343			
10346	11.665507	3.486964	-1.040893	3.259413	-1.535076	1.863918	29.470656	-86.746730	-116.309511			
10347	9.419404	5.457481	-1.329135	5.282855	-1.419780	-0.307483	38.476438	-87.323952	-124.718674			
10348	8.439383	4.827257	-1.986298	4.731166	-1.909220	-1.301541	50.966299	-87.927645	-136.647834			
10349	9.408240	4.572253	-1.569814	4.442187	-1.357733	-0.309791	72.191367	-88.434741	-157.118190			
10350	10.375463	4.660829	-0.495352	4.436096	-0.103326	0.671903	100.400919	-88.681440	175.240212			
10351	10.240462	3.407928	-0.001199	3.169584	0.407351	0.495940	125.452028	-88.669061	150.343875			
10352	9.493227	1.705708	0.205905	1.497130	0.524899	-0.296610	144.244298	-88.476558	131.433660			
10353	9.121985	0.102345	0.171335	-0.067283	0.405112	-0.697800	157.082112	-88.091023	118.395914			
10354	9.273418	-1.046516	-0.207281	-1.166008	0.014422	-0.551269	164.323662	-87.573950	110.988579			
10355	9.371120	-1.586837	-0.731078	-1.656346	-0.456966	-0.436261	167.888487	-87.028630	107.389214			
10356	9.051579	-1.546417	-1.287533	-1.564815	-0.935406	-0.721149	169.696539	-86.514401	105.700657			
10357	8.873728	-1.048091	-1.377143	-1.063777	-0.912904	-0.881135	170.699178	-86.040796	104.891922			
10358	8.904012	-0.869111	-1.390991	-0.890220	-0.839705	-0.841974	171.576143	-85.612029	104.213561			
10359	8.948048	-0.906086	-1.017533	-0.967940	-0.406444	-0.822610	172.629639	-85.195437	103.430722			
10360	9.144949	-0.661442	-0.397139	-0.793935	0.315137	-0.675111	173.902860	-84.757115	102.506286			
10361	9.228046	-0.292032	-0.215823	-0.449564	0.611567	-0.608766	175.031419	-84.323032	101.727140			
10362	8.974899	-0.110477	-0.533016	-0.228426	0.362621	-0.831536	175.908308	-83.903079	101.176580			
10363	8.826269	0.316360	-1.015825	0.255348	-0.007277	-0.926219	176.574358	-83.451717	100.877533			
10364	8.885564	0.611331	-1.406999	0.594340	-0.271865	-0.819415	177.081090	-82.976471	100.752358			
10365	8.946543	0.726865	-1.585734	0.728521	-0.342643	-0.733328	177.545217	-82.480204	100.751832			
10366	9.128519	0.953655	-1.522489	0.936311	-0.138838	-0.557380	178.001567	-81.994829	100.744696			
10367	9.161594	0.786827	-1.549670	0.771636	-0.102861	-0.520280	178.491347	-81.533448	100.649941			
10368	9.141099	0.577490	-1.438038	0.547271	0.049553	-0.557491	179.076268	-81.079159	100.450662			
10369	9.202313	0.476126	-1.458270	0.449574	0.100509	-0.494797	179.673440	-80.627756	100.241345			
10370	9.268976	0.311621	-1.431984	0.283104	0.186051	-0.434717	-179.711696	-80.178230	100.010431			
10371	9.200476	0.213524	-1.508206	0.203362	0.160299	-0.490591	-179.198329	-79.719939	99.858106			
10372	9.205515	0.152342	-1.519804	0.144607	0.215340	-0.484946	-178.792908	-79.263306	99.753101			
10373	9.120104	0.084546	-1.530725	0.079428	0.251197	-0.568408	-178.502395	-78.809926	99.692746			
10374	9.004918	0.052223	-1.619847	0.063450	0.211288	-0.665772	-178.266450	-78.347174	99.649685			
10375	9.162347	0.115506	-1.588441	0.107701	0.362343	-0.520666	-178.032212	-77.857243	99.609861			
10376	9.253497	0.087626	-1.732623	0.099571	0.319690	-0.403959	-177.761286	-77.349784	99.534477			
10377	9.212234	-0.074191	-1.851853	-0.038914	0.248588	-0.419275	-177.488009	-76.832898	99.482741			
10378	9.206384	-0.282193	-1.809443	-0.255750	0.331272	-0.435299	-177.193963	-76.291738	99.456318			
10379	9.207489	-0.504853	-1.799683	-0.480102	0.383076	-0.437526	-176.859988	-75.728862	99.425135			
10380	9.269603	-0.649511	-1.640517	-0.661614	0.608062	-0.419576	-176.511404	-75.162650	99.380614			
10381	9.284849	-0.636951	-1.427072	-0.701046	0.905439	-0.467170	-176.192267	-74.606588	99.302249			
10382	9.288735	-0.540405	-1.158147	-0.671464	1.268920	-0.547038	-175.887254	-74.057045	99.184564			
10383	9.530121	-0.241054	-0.887543	-0.456371	1.743793	-0.409535	-175.577028	-73.514621	99.052702			
10384	9.755489	0.054612	-0.719750	-0.221424	2.120178	-0.265661	-175.239441	-72.985843	98.910079			
10385	9.924241	0.376631	-0.730967	0.081831	2.322122	-0.129347	-174.871155	-72.475341	98.800399			
10386	10.138787	0.615329	-0.659844	0.282183	2.595510	0.025609	-174.461395	-71.996352	98.721279			
10387	10.186859	0.683921	-0.584148	0.322055	2.778511	0.023810	-174.073181	-71.566586	98.690496			
10388	10.172088	0.433068	-0.311612	0.005655	3.034680	-0.089196	-173.683551	-71.182578	98.685979			
10389	10.225406	0.315483	0.032530	-0.206663	3.398649	-0.165632	-173.356112	-70.848330	98.714961			
10390	10.178803	-0.004865	0.325650	-0.600075	3.619159	-0.312399	-173.065790	-70.559493	98.764677			
10391	10.297752	-0.143650	0.575599	-0.818703	3.891120	-0.295104	-172.768464	-70.304938	98.843006			
10392	10.284818	-0.059635	0.686672	-0.782023	4.044856	-0.363877	-172.464183	-70.098589	98.945081			
10393	10.120309	-0.101716	0.663423	-0.823791	3.983832	-0.521750	-172.160140	-69.935782	99.080146			
10394	10.061050	-0.185122	0.584248	-0.895730	3.888260	-0.556371	-171.845531	-69.807598	99.264185			
10395	10.101177	-0.506573	0.596164	-1.228215	3.830677	-0.514131	-171.554793	-69.710860	99.499788			
10396	9.945470	-0.836760	0.667695	-1.575613	3.744972	-0.672067	-171.268879	-69.647590	99.759309			
10397	10.544859	-1.185226	0.872650	-2.026622	4.020310	-0.164361	-170.920182	-69.590468	100.019751			
10398	11.975873	-1.226213	1.149815	-2.261224	4.730640	1.084792	-170.425220	-69.584681	100.188959			
10399	12.652304	-0.809688	1.439864	-2.023181	5.331040	1.602051	-169.776842	-69.654867	100.251714			
10400	13.319809	-0.536170	2.100501	-2.047217	6.191968	2.001925	-168.956543	-69.815551	100.217980			
10401	13.163935	-0.364060	3.174194	-2.271464	7.071737	1.515484	-168.119642	-70.144968	100.113368			
10402	12.535409	-1.763704	3.617493	-3.705804	6.645616	0.931376	-167.284921	-70.568529	99.914954			
10403	12.236302	-2.562568	4.381651	-4.709885	6.801411	0.533750	-166.306507	-71.051633	99.494866			
10404	13.492759	-3.367764	4.515521	-5.536782	6.882720	1.838733	-165.061450	-71.648930	98.682016			
10405	14.785227	-3.951435	5.417999	-6.399053	7.644015	3.000672	-163.067206	-72.719352	97.099822			
10406	14.315959	-4.142853	3.726365	-5.728258	5.652219	3.272336	-159.972319	-74.107108	94.757701			
10407	17.074291	-1.050834	1.244495	-1.752600	5.097285	6.469454	-156.223118	-75.621512	92.090648			
10408	17.991959	2.375010	-2.307245	3.091600	3.229835	7.926051	-152.311693	-77.325990	89.438350			
10409	16.802358	5.076687	-5.193977	7.001310	1.277583	7.051731	-148.906156	-79.018054	87.680101			
10410	16.287384	7.513824	-6.694966	9.963066	0.802622	6.516726	-146.950668	-80.619780	87.487499			
10411	17.196404	8.188699	-6.128652	10.276834	1.554396	7.283967	-146.394392	-82.237606	88.104872			
10412	16.825397	6.353562	-5.322443	8.286231	0.848213	6.991760	-145.390967	-83.876907	87.081156			
10413	15.507577	1.843461	-5.330969	4.468188	-2.150266	5.925554	-141.474173	-85.445845	82.295396			
10414	14.404477	0.099488	-4.273664	2.443072	-2.694128	4.765368	-131.861524	-86.867706	71.570138			
10415	13.865938	0.330763	-3.478264	2.269285	-2.347111	4.108443	-106.903015	-88.019983	45.367641			
10416	12.829227	0.266677	-2.404675	1.714618	-1.863497	2.994241	-56.715723	-88.223718	-5.959866			
10417	12.559468	0.616460	-1.268041	1.544448	-1.052086	2.686360	-24.967957	-87.345704	-38.508943			
10418	12.333694	0.890224	-0.482168	1.495794	-0.563022	2.458420	-11.684132	-85.988285	-52.765555			
10419	11.274344	-0.203100	-0.442867	0.514326	-1.273421	1.387903	-5.568417	-84.434510	-60.033662			
10420	11.066553	-1.112320	-1.525132	0.155289	-2.916870	1.026696	-2.068911	-82.933830	-64.639895			
10421	11.088651	-1.275620	-1.350993	-0.062693	-3.113968	0.990194	0.354592	-81.392611	-68.334914			
10422	10.139482	-1.476774	-1.916337	-0.122312	-3.850003	-0.126708	1.868884	-79.835326	-71.330590			
10423	8.733788	-2.112056	-2.771066	-0.570363	-4.847210	-1.775698	2.869327	-78.396699	-73.776525			
10424	8.231270	-2.622389	-2.813896	-1.152107	-5.123430	-2.398620	3.843351	-77.085692	-75.842230			
10425	8.819054	-2.101560	-2.179334	-0.883107	-4.662833	-1.786714	4.834748	-75.790069	-77.565248			
10426	9.181706	-2.207834	-2.017929	-1.066556	-4.803086	-1.503685	5.715027	-74.543737	-79.147804			
10427	9.372955	-1.800993	-1.030756	-0.990334	-4.003518	-1.144018	6.605371	-73.297941	-80.532911			
10428	8.854827	-1.240907	-0.982924	-0.524197	-3.836876	-1.693911	7.384872	-72.096512	-81.631593			
10429	8.683719	0.488791	0.065037	0.835280	-2.540867	-1.536605	7.980594	-70.903502	-82.438870			
10430	7.786703	0.884669	-0.121744	1.221297	-2.493454	-2.483398	7.802161	-69.618678	-82.888572			
10431	6.713392	-0.240841	-1.715359	0.470432	-3.993741	-4.164954	7.220202	-68.410958	-83.260813			
10432	6.512011	-0.334912	-1.955804	0.395502	-4.273523	-4.528504	6.674106	-67.292166	-83.605125			
10433	6.464259	0.074458	-2.132262	0.799516	-4.428115	-4.704868	6.189251	-66.249895	-83.898986			
10434	6.056993	0.015858	-1.411229	0.552319	-3.725262	-4.863403	5.763854	-65.329160	-84.188086			
10435	6.134545	-0.055832	-1.186208	0.423345	-3.647629	-4.757214	5.491958	-64.573855	-84.467454			
10436	5.956275	0.256950	-1.110546	0.695168	-3.513135	-4.918743	5.270499	-63.895229	-84.685493			
10437	6.019747	0.428875	-0.313439	0.719517	-2.868090	-4.542439	5.043861	-63.302544	-84.863407			
10438	5.954189	0.595753	0.021802	0.822490	-2.571301	-4.472331	4.801998	-62.787782	-84.983529			
10439	5.777237	0.557463	0.323377	0.728844	-2.278148	-4.514528	4.593856	-62.397184	-85.094707			
10440	6.018416	0.686269	0.126171	0.895132	-2.577067	-4.402920	4.330874	-62.107600	-85.221899			
10441	5.758672	0.660802	-0.051160	0.882752	-2.642237	-4.729297	4.018066	-61.897896	-85.356789			
10442	5.255740	0.108951	-0.362722	0.355432	-2.773360	-5.346327	3.651525	-61.784776	-85.490166			
10443	4.906150	-0.308691	-0.502048	-0.062258	-2.789812	-5.734610	3.338103	-61.812450	-85.652097			
10444	4.773465	-0.657101	-0.708493	-0.398767	-2.942885	-5.952625	3.037549	-61.973080	-85.813117			
10445	4.526381	-1.085609	-1.005282	-0.811424	-3.119519	-6.307352	2.801713	-62.253556	-85.964319			
10446	4.231811	-1.633601	-1.216769	-1.352018	-3.206436	-6.658625	2.706835	-62.665070	-86.005521			
10447	4.450569	-1.602154	-0.796018	-1.362457	-2.904900	-6.247122	2.679545	-63.139270	-85.945107			
10448	4.518202	-1.977032	-0.693691	-1.740283	-2.857493	-6.123510	2.633949	-63.680769	-85.745550			
10449	4.515048	-2.406337	-0.710125	-2.154597	-2.890924	-6.113971	2.632706	-64.321411	-85.405316			
10450	4.701950	-1.896182	-0.663483	-1.632979	-2.833492	-5.882230	2.591179	-65.064315	-85.010345			
10451	4.556837	-2.277656	-1.189449	-1.934713	-3.251878	-6.200340	2.449217	-65.941150	-84.523994			
10452	5.025043	-2.133986	-0.633144	-1.826976	-2.866340	-5.493949	2.369237	-66.994912	-83.950092			
10453	6.175271	-1.797408	0.139107	-1.536094	-2.479348	-4.078914	2.247590	-68.164511	-83.305526			
10454	7.868972	-1.121522	1.016318	-0.913794	-2.065794	-2.124607	2.107586	-69.431837	-82.645445			
10455	10.049883	-0.692499	1.873517	-0.529588	-1.769575	0.265675	2.023080	-70.768477	-82.087143			
10456	12.418884	-0.501417	3.232373	-0.486698	-0.976633	2.982992	2.135742	-72.188219	-81.855527			
10457	15.330823	-0.339906	6.264551	-0.803043	1.359210	6.676343	2.796393	-73.587000	-82.314854			
10458	17.744137	0.581370	11.026309	-0.777386	5.734561	10.268794	3.936408	-74.774217	-83.526600			
10459	18.836697	0.935734	14.845145	-1.200387	9.494522	12.198153	5.264842	-75.619732	-85.127293			
10460	16.388187	1.487742	15.763165	-0.984847	11.303420	9.948951	6.887045	-76.071372	-86.809804			
10461	11.303474	3.160221	14.301207	0.684733	11.525609	4.643023	8.987390	-76.364207	-88.501266			
10462	8.076336	4.609078	12.223709	2.261177	10.659138	1.011085	11.124013	-76.919676	-89.952873			
10463	7.921259	3.960565	9.869687	1.895952	8.474554	0.208519	12.907379	-77.804826	-91.074262			
10464	9.723550	1.949891	5.685634	0.662368	3.881805	0.918768	14.261038	-78.894507	-91.914014			
10465	12.780390	0.694976	2.137751	0.121490	-0.134131	3.162395	15.345250	-80.040597	-92.443131			
10466	15.105927	0.906363	-0.673926	0.920041	-2.916089	5.023335	16.341544	-81.107296	-92.978746			
10467	14.070186	2.639352	-4.580482	3.495693	-5.843478	3.586710	18.618924	-82.159017	-95.038572			
10468	13.582493	4.966727	-5.149659	5.808026	-5.543095	3.271830	23.044895	-83.279130	-99.887713			
10469	17.565272	5.074176	-2.771871	5.149048	-3.418237	7.616098	28.265094	-84.403772	-105.928706			
10470	22.949290	3.664679	3.727096	2.187218	2.443110	13.494508	31.926296	-85.408454	-110.668161			
10471	24.708317	-0.409260	11.799297	-3.134736	9.697253	15.603844	26.830217	-85.667785	-107.691737			
10472	17.711550	-5.819846	13.400465	-7.939289	10.993092	8.713306	14.552824	-84.784245	-97.751885			
10473	7.214721	-5.746948	6.610966	-6.494812	5.193712	-2.091148	7.057338	-83.770121	-91.199393			
10474	1.650702	-0.871145	-5.356620	-0.333521	-5.566856	-8.775454	4.553814	-83.440781	-88.981303			
10475	-2.453246	2.321070	-14.988751	3.566299	-14.356276	-13.964086	3.461404	-83.242694	-89.397694			
10476	-7.337508	-5.161874	-24.094331	-3.537167	-23.370475	-19.928380	5.364026	-83.455753	-91.797751			
10477	-2.667887	-8.515219	-16.631919	-7.270722	-16.826205	-14.311798	13.930069	-84.598671	-99.296888			
10478	7.799069	-3.462211	-7.224000	-2.863808	-8.116616	-2.677682	19.565976	-86.127543	-103.144330			
10479	20.579600	2.516619	5.524919	1.538881	4.681716	11.069470	25.956143	-87.541651	-108.686799			
10480	17.502126	3.390121	4.105425	2.618386	3.788862	7.892123	30.136206	-87.661598	-113.928136			
10481	12.074615	-0.777295	-0.613789	-0.923951	-1.125726	2.214619	31.778727	-87.702999	-116.952386			
10482	8.332427	-1.181905	-1.872604	-1.179125	-2.223448	-1.566579	40.476966	-88.095831	-125.832193			
10483	8.244693	1.032205	-0.449803	0.904505	-0.527106	-1.557655	60.652187	-88.609079	-145.414008			
10484	8.652573	1.431251	-0.809912	1.332448	-0.731130	-1.137429	93.637937	-88.891651	-177.832215			
10485	8.992685	0.844355	-2.236372	0.912600	-2.081721	-0.789677	130.488529	-88.767926	146.048796			
10486	9.826429	1.745100	-2.286731	1.841849	-1.874407	0.083021	154.475735	-88.282384	122.936926			
10487	10.239830	2.794794	-1.418193	2.795827	-0.716380	0.499670	165.038803	-87.726648	112.842266			
10488	9.794116	1.778239	-0.765389	1.714863	-0.113586	0.021865	169.054162	-87.251510	108.709280			
10489	9.377138	0.022891	-0.559780	-0.052944	-0.086568	-0.419403	170.357452	-86.783479	107.031966			
10490	9.130658	-1.089003	-0.529647	-1.171671	-0.131052	-0.677880	170.873505	-86.272335	106.129870			
10491	8.896371	-1.666342	-0.713711	-1.738030	-0.312094	-0.906920	171.168723	-85.749637	105.615155			
10492	8.697159	-1.649011	-1.278149	-1.667455	-0.803528	-1.062433	171.644716	-85.236819	105.257272			
10493	8.755765	-1.135933	-1.641945	-1.123836	-1.022262	-0.961629	172.587376	-84.694756	104.746032			
10494	9.250949	-0.754701	-1.717679	-0.745425	-0.922074	-0.448205	173.885441	-84.125427	104.033614			
10495	9.471701	-0.638682	-1.537522	-0.652618	-0.618958	-0.237964	175.304877	-83.577362	103.262457			
10496	9.379871	-0.523256	-1.175519	-0.579165	-0.170651	-0.364275	176.775181	-83.060627	102.460028			
10497	9.223076	-0.469120	-0.884654	-0.559008	0.184469	-0.554135	178.087970	-82.571458	101.729264			
10498	9.162804	-0.111990	-0.872524	-0.201686	0.324177	-0.615698	179.043984	-82.134388	101.145440			
10499	8.610393	-0.846860	-1.107028	-0.866740	-0.039077	-1.133494	179.733949	-81.671323	100.703767			
10500	8.696638	-0.812153	-1.597721	-0.744121	-0.422470	-0.974642	-179.539614	-81.101636	100.491884			
10501	9.070033	0.290009	-1.876549	0.384825	-0.330595	-0.559977	-178.724875	-80.464016	100.383667			
10502	9.384642	1.303164	-1.975629	1.392282	-0.056512	-0.235107	-177.983812	-79.854530	100.235713			
10503	9.368008	1.682771	-2.110899	1.794565	0.005303	-0.230116	-177.352691	-79.287433	100.068436			
10504	9.423949	2.008946	-2.027379	2.094541	0.278540	-0.195452	-176.734780	-78.723772	99.875186			
10505	9.599084	2.248457	-1.876482	2.287456	0.621093	-0.060768	-176.212342	-78.169198	99.701671			
10506	9.643860	1.917348	-1.621254	1.901025	0.900388	-0.071881	-175.870245	-77.633813	99.572806			
10507	9.639628	1.339507	-1.387529	1.276642	1.081341	-0.125476	-175.654012	-77.103486	99.537239			
10508	9.599234	0.938168	-0.927526	0.767586	1.503501	-0.271442	-175.545266	-76.578255	99.589187			
10509	9.524593	0.381644	-0.706910	0.161684	1.647395	-0.398733	-175.516094	-76.059450	99.711213			
10510	9.282653	-0.142236	-0.763373	-0.340257	1.491645	-0.624147	-175.495589	-75.551964	99.852204			
10511	9.124312	-0.686135	-0.863006	-0.853347	1.303017	-0.754979	-175.464098	-75.053251	99.996426			
10512	9.023898	-1.197711	-0.999173	-1.325745	1.096414	-0.818055	-175.379114	-74.568766	100.107811			
10513	9.046944	-1.614533	-0.802145	-1.792008	1.249613	-0.850314	-175.243464	-74.101266	100.206477			
10514	9.147046	-1.899178	-0.592940	-2.135993	1.461372	-0.816660	-175.047797	-73.657317	100.281770			
10515	9.267018	-1.801617	-0.372799	-2.114812	1.782122	-0.778655	-174.782435	-73.227057	100.351776			
10516	9.387560	-1.282776	-0.171656	-1.683825	2.195847	-0.749358	-174.443760	-72.810763	100.399180			
10517	9.495269	-0.533827	-0.254731	-0.956672	2.411935	-0.659710	-174.029242	-72.408742	100.403294			
10518	9.638693	0.490173	-0.432551	0.060174	2.640188	-0.519834	-173.509424	-72.011224	100.336760			
10519	9.827213	1.492948	-0.792621	1.107465	2.728943	-0.286037	-172.900400	-71.611397	100.206616			
10520	9.981071	2.329972	-1.088973	1.984088	2.835086	-0.103855	-172.242543	-71.229131	100.036797			
10521	10.127554	2.634880	-1.221408	2.307293	2.937822	0.038543	-171.627563	-70.869571	99.865549			
10522	10.236425	2.452128	-1.137743	2.104171	3.070134	0.098823	-171.101450	-70.546334	99.705339			
10523	10.217606	1.938065	-0.860604	1.533182	3.216386	-0.004522	-170.717219	-70.265627	99.559059			
10524	10.065148	1.202931	-0.608530	0.768032	3.209082	-0.208714	-170.432183	-70.032282	99.415919			
10525	9.993698	0.446630	-0.501398	0.024145	3.080931	-0.282103	-170.191714	-69.827270	99.295158			
10526	9.810855	-0.137477	-0.374976	-0.556071	2.978100	-0.472773	-169.928706	-69.650867	99.188345			
10527	9.839030	-0.535502	-0.431670	-0.913061	2.838131	-0.411045	-169.638061	-69.492431	99.099797			
10528	10.525139	-0.684799	-0.454623	-1.079442	3.031324	0.242163	-169.256245	-69.355352	98.977103			
10529	10.928429	-0.438016	-0.557236	-0.826101	3.183427	0.633184	-168.785290	-69.249013	98.815677			
10530	11.858846	-0.030494	-0.311496	-0.562826	3.878843	1.384096	-168.259823	-69.158997	98.639111			
10531	12.406235	0.628626	0.480962	-0.231335	5.001436	1.565944	-167.741891	-69.114058	98.463005			
10532	12.415380	1.238336	1.008537	0.166776	5.677229	1.342290	-167.246856	-69.154937	98.261970			
10533	12.152150	1.097691	1.846359	-0.234634	6.255546	0.822244	-166.874276	-69.266190	98.070959			
10534	13.094625	0.919179	2.377607	-0.622767	6.959133	1.551712	-166.341912	-69.463153	97.793172			
10535	14.344478	1.303571	2.338584	-0.281735	7.441945	2.736006	-165.618847	-69.812532	97.298709			
10536	15.067437	1.240400	1.494309	-0.010042	6.841924	3.751438	-164.643660	-70.323892	96.553341			
10537	15.053368	0.358425	0.688882	-0.453208	5.688213	4.138757	-163.486378	-70.987737	95.666316			
10538	15.347888	-1.162686	2.221363	-2.344729	6.395683	4.167162	-162.235716	-71.837259	94.538400			
10539	14.416239	-2.514163	4.508043	-4.301449	7.405840	2.880346	-161.090596	-73.067055	92.981975			
10540	12.779114	-3.070523	2.511989	-3.909047	4.702222	2.088671	-159.591696	-74.585419	91.103933			
10541	13.063662	-1.023220	-0.737059	-0.695117	2.267310	3.095189	-157.640809	-76.193245	89.305875			
10542	13.772855	1.088425	-2.910312	2.171929	0.863576	4.111069	-155.669536	-77.787818	87.880187			
10543	13.885919	1.439563	-4.309691	3.113353	-0.598829	4.449269	-153.861781	-79.259505	86.888452			
10544	14.364110	2.275725	-4.441012	4.008163	-0.617020	4.842545	-152.337105	-80.638618	86.339692			
10545	14.561566	3.252346	-3.939507	4.735394	-0.059985	4.874006	-151.194434	-82.054365	85.408520			
10546	13.697965	0.629440	-3.693497	2.248885	-1.384343	4.140323	-149.295740	-83.521054	83.090249			
10547	12.562747	-0.930746	-2.823248	0.465590	-1.692422	2.976759	-146.117150	-84.899987	79.464697			
10548	11.618278	-1.220595	-2.357160	0.007875	-1.758866	1.974190	-140.766896	-86.164049	73.600498			
10549	11.221383	-1.567535	-2.722780	-0.175912	-2.515178	1.563941	-130.895623	-87.302067	63.183695			
10550	11.290823	-1.502309	-3.403484	0.138191	-3.371655	1.586001	-107.795858	-88.280432	39.638660			
10551	11.373744	-1.908225	-4.157091	0.031879	-4.480753	1.597836	-59.524357	-88.573949	-9.018757			
10552	11.031293	-1.601927	-3.151903	-0.071348	-3.680702	1.170586	-23.514310	-87.942484	-45.288023			
10553	11.541391	-0.190651	-2.408296	0.979457	-2.726639	1.617146	-8.121412	-86.984242	-60.955823			
10554	11.167787	0.065938	-3.101169	1.440903	-3.510517	1.138807	-0.398406	-85.817846	-69.202455			
10555	10.391422	0.174968	-2.665184	1.346832	-3.250723	0.322879	3.830470	-84.676629	-73.957229			
10556	10.148028	0.726533	-2.148697	1.659857	-2.780951	0.068305	6.342015	-83.523716	-77.078375			
10557	9.627206	0.297327	-2.189039	1.227544	-3.113000	-0.519569	8.066124	-82.398523	-79.418019			
10558	8.963786	1.201062	-1.633923	1.863057	-2.419351	-1.144714	9.233205	-81.220162	-81.312995			
10559	8.158089	0.950402	-2.346171	1.788207	-3.234642	-2.112137	9.628707	-80.131286	-82.709233			
10560	7.495276	-0.055648	-2.307239	0.756659	-3.531317	-2.851300	9.499428	-79.124164	-83.532240			
10561	7.112159	0.430557	-2.297022	1.174176	-3.449021	-3.272945	9.243203	-78.141600	-84.191775			
10562	6.402928	-0.158110	-2.539614	0.612167	-3.796280	-4.095657	8.561320	-77.284221	-84.549673			
10563	6.309860	-0.780432	-2.928492	0.053920	-4.375441	-4.349062	7.705399	-76.516907	-84.648025			
10564	6.150575	-0.642419	-2.946557	0.146659	-4.393723	-4.559360	6.709874	-75.800345	-84.551741			
10565	6.190804	-0.489182	-2.956038	0.259800	-4.444594	-4.570462	5.471861	-75.135494	-84.314443			
10566	6.266342	-0.977101	-3.095678	-0.234624	-4.743767	-4.592910	4.091842	-74.532402	-84.022058			
10567	6.356951	-1.681078	-2.967206	-0.993368	-4.805858	-4.525177	2.797296	-73.979546	-83.749944			
10568	6.318008	-2.234015	-2.806466	-1.605424	-4.754083	-4.558604	1.745042	-73.466681	-83.563071			
10569	6.106753	-2.367624	-2.766582	-1.784048	-4.693579	-4.778864	0.907408	-73.006902	-83.463935			
10570	5.747838	-2.595503	-2.751327	-2.053739	-4.617172	-5.142800	0.249166	-72.601128	-83.423338			
10571	5.189466	-2.743436	-2.692733	-2.249552	-4.421053	-5.677284	-0.223078	-72.286767	-83.376835			
10572	4.656460	-2.660268	-2.474669	-2.221490	-4.048832	-6.130899	-0.645108	-72.066237	-83.217789			
10573	4.200931	-2.983996	-2.182849	-2.591272	-3.670680	-6.476777	-1.079326	-71.972155	-82.879184			
10574	4.100549	-3.010489	-1.795836	-2.653781	-3.276315	-6.447309	-1.474048	-72.008903	-82.476163			
10575	4.336870	-3.083132	-1.820582	-2.702014	-3.375363	-6.216209	-1.946370	-72.212339	-81.885057			
10576	4.935967	-2.670588	-1.470529	-2.282810	-3.167389	-5.521467	-2.555420	-72.539943	-81.099170			
10577	5.588751	-2.472676	-1.365096	-2.042222	-3.213430	-4.841298	-3.341248	-72.984442	-80.095810			
10578	6.617350	-1.666309	-0.580857	-1.242988	-2.627061	-3.611363	-4.201866	-73.524596	-78.896846			
10579	7.966160	-0.415822	1.177269	-0.096600	-1.105449	-1.826037	-5.109383	-74.080199	-77.650060			
10580	9.780655	0.582761	3.097518	0.801444	0.466199	0.421312	-6.235515	-74.614007	-76.355558			
10581	11.983109	0.712326	5.055639	0.873932	1.913518	3.041672	-7.716762	-75.163746	-74.982197			
10582	14.633796	-0.529635	8.107875	-0.452016	4.183528	6.387802	-9.604293	-75.665701	-73.624129			
10583	17.049851	-1.417054	13.435796	-1.559873	8.804444	10.018277	-11.301222	-75.959082	-72.876761			
10584	17.373538	-2.759914	16.656477	-2.896303	11.843410	11.121292	-12.288007	-76.081118	-73.025104			
10585	14.303282	-3.735945	14.586401	-3.756695	10.530992	7.688439	-11.704865	-76.090170	-74.092671			
10586	10.193303	-2.049757	11.276555	-2.181194	8.404308	2.831430	-9.914552	-76.157963	-75.465072			
10587	8.445419	-0.095784	9.375746	-0.374919	7.127807	0.593532	-7.925552	-76.373166	-76.555058			
10588	8.749214	-0.099365	7.295597	-0.356623	5.063231	0.386257	-6.185009	-76.660258	-77.299084			
10589	8.852720	0.689726	5.536863	0.469425	3.466139	0.049716	-4.428211	-76.961266	-78.029861			
10590	8.129852	2.475397	3.519271	2.344794	1.961462	-1.137376	-2.588829	-77.204435	-79.151362			
10591	7.516434	3.928584	1.100314	4.019769	0.009750	-2.264031	-0.799040	-77.386517	-80.712160			
10592	7.497854	4.239037	-0.372670	4.487055	-1.336633	-2.573520	0.840063	-77.585986	-82.244531			
10593	8.010894	4.551126	-1.161981	4.880905	-2.113997	-2.200567	2.572398	-77.976528	-83.634803			
10594	8.708122	4.458763	-2.523070	4.978836	-3.477233	-1.738322	4.658966	-78.659507	-84.991264			
10595	8.832594	5.732698	-4.109840	6.476658	-4.647008	-1.798789	7.226490	-79.591140	-86.825653			
10596	10.515699	7.498073	-5.493411	8.419573	-5.809185	-0.203398	8.950867	-80.706508	-88.919828			
10597	15.776250	4.976982	-5.910757	5.889478	-7.329939	5.025601	8.299521	-82.122855	-89.804886			
10598	23.475110	2.352998	0.099745	2.357281	-2.544663	13.523485	5.135219	-83.439280	-88.558679			
10599	26.527896	-0.177233	9.095057	-0.882364	6.015755	17.564091	-0.187586	-83.704408	-85.542041			
10600	21.946056	-5.846922	14.520767	-6.313822	11.490693	13.739495	-5.742889	-82.625176	-82.477238			
10601	10.643252	-12.052980	7.311758	-11.944645	5.540992	1.961231	-9.948181	-81.462076	-79.642873			
10602	5.507775	-8.904645	-2.439216	-8.719258	-3.316504	-4.469194	-12.429058	-81.049120	-77.144610			
10603	2.227265	-5.078170	-11.099137	-4.963724	-11.351433	-9.145190	-13.287476	-80.758093	-76.500497			
10604	-3.573037	-3.259824	-16.904421	-3.515329	-16.132484	-15.856815	-12.513024	-80.847836	-78.286427			
10605	-7.948788	-5.763241	-16.375365	-6.267383	-14.927279	-19.934161	-9.819817	-81.706677	-81.183685			
10606	0.597286	-5.359037	-10.615455	-5.389297	-10.593971	-10.500604	-6.310832	-83.184025	-83.005354			
10607	10.396467	-0.686448	-1.662606	-0.500488	-2.754554	0.359716	-4.658979	-84.782598	-82.594348			
10608	21.066680	5.835389	7.470596	5.634381	6.051517	11.757604	-2.099792	-85.952778	-84.679016			
10609	16.680145	3.009964	1.321600	3.026838	0.324778	6.913532	-0.695805	-86.257379	-87.298833			
10610	11.984332	1.019608	-1.866308	1.098069	-2.566451	2.034411	0.944154	-86.696704	-89.442684			
10611	9.193497	3.332994	-2.869943	3.418542	-3.227481	-0.770541	4.003109	-87.458915	-91.864753			
10612	8.041088	5.547265	-2.309363	5.627677	-2.366967	-1.844729	7.174307	-88.214998	-94.317099			
10613	7.590982	4.353564	-2.432318	4.468414	-2.379455	-2.271964	4.766216	-88.953169	-91.413472			
10614	8.486900	2.884185	-2.704495	3.062784	-2.612357	-1.359693	-37.751232	-89.679524	-48.380481			
10615	9.852193	2.878725	-2.087112	3.081273	-1.853076	0.024913	-131.887975	-89.268527	46.145302			
10616	9.867247	2.667391	-1.131323	2.852790	-0.791348	0.035758	-141.520227	-88.632758	55.615554			
10617	8.812100	0.656393	-0.952930	0.849802	-0.696951	-0.993178	-146.040450	-88.121224	59.388788			
10618	8.336151	-1.856899	-1.500136	-1.632806	-1.314919	-1.398782	-151.632383	-87.599711	64.014788			
10619	8.677742	-3.600911	-1.927954	-3.370722	-1.672754	-0.990840	-157.710778	-87.003383	69.305513			
10620	8.960451	-3.884834	-1.967556	-3.670870	-1.563633	-0.684104	-162.232617	-86.366118	73.385487			
10621	8.966902	-3.360272	-2.042208	-3.157396	-1.503408	-0.667364	-165.140818	-85.727017	76.207515			
10622	9.127062	-2.401289	-1.891354	-2.199342	-1.220514	-0.521879	-166.863308	-85.104321	78.120851			
10623	9.419226	-1.428896	-1.418179	-1.226530	-0.608997	-0.278602	-167.868035	-84.499382	79.445601			
10624	9.524694	-0.813012	-0.868930	-0.616841	0.058595	-0.234006	-168.438375	-83.914428	80.358360			
10625	9.513952	-0.492119	-0.579931	-0.300883	0.444674	-0.283526	-168.841294	-83.390974	81.128202			
10626	9.292609	-0.282296	-0.186611	-0.109217	0.896419	-0.557895	-169.189437	-82.948624	81.724849			
10627	9.124727	-0.835012	-0.415573	-0.654753	0.695915	-0.690343	-169.554561	-82.481294	82.464644			
10628	9.156256	-0.822563	-0.835590	-0.619590	0.356867	-0.609419	-169.727294	-81.976203	83.307592			
10629	9.138186	-0.513118	-1.420364	-0.267369	-0.126676	-0.555309	-169.741923	-81.433485	84.210435			
10630	9.137391	0.412290	-1.782586	0.697239	-0.320683	-0.525620	-169.660078	-80.863775	85.025748			
10631	9.257879	0.965855	-2.017198	1.286555	-0.377405	-0.383389	-169.603887	-80.308745	85.659453			
10632	9.377622	1.026220	-2.168351	1.378014	-0.393413	-0.239807	-169.481103	-79.756285	86.087950			
10633	9.467311	1.285876	-2.099389	1.641291	-0.174313	-0.170817	-169.374243	-79.193980	86.483932			
10634	9.663338	1.436741	-1.615333	1.741209	0.461554	-0.075759	-169.275715	-78.620584	86.787915			
10635	9.792755	1.373294	-1.123596	1.617603	1.060974	-0.050345	-169.277058	-78.083296	87.056569			
10636	9.700853	1.060627	-0.939351	1.280779	1.277270	-0.177270	-169.324130	-77.541042	87.321271			
10637	9.735531	0.829959	-0.871550	1.039727	1.417551	-0.161903	-169.393608	-76.970117	87.648509			
10638	9.695417	0.628966	-1.056618	0.861914	1.303545	-0.165400	-169.501128	-76.389106	87.999974			
10639	9.583214	0.088428	-1.177627	0.337420	1.183292	-0.235748	-169.651114	-75.812832	88.382696			
10640	9.544172	-0.408534	-1.202156	-0.158603	1.174444	-0.257687	-169.801517	-75.235206	88.779987			
10641	9.456516	-1.013302	-0.980251	-0.801541	1.366133	-0.383802	-169.956791	-74.663575	89.206727			
10642	9.446212	-1.364710	-0.331887	-1.266299	2.013516	-0.563628	-170.094751	-74.104367	89.631679			
10643	9.385125	-1.546225	0.360617	-1.577102	2.704788	-0.823932	-170.247414	-73.574009	90.024788			
10644	9.322761	-1.750769	0.825048	-1.875139	3.165996	-1.030912	-170.343289	-73.069501	90.349561			
10645	9.351960	-1.566784	0.811592	-1.707215	3.259249	-1.035732	-170.225619	-72.588598	90.559480			
10646	9.449052	-0.708085	0.584309	-0.832173	3.286530	-0.945151	-169.811640	-72.133269	90.612927			
10647	9.634598	0.620981	0.115936	0.557678	3.211469	-0.724260	-169.189913	-71.710533	90.524757			
10648	9.949256	1.701224	-0.371580	1.718288	3.135058	-0.366090	-168.382515	-71.323412	90.315328			
10649	10.173893	2.784491	-0.762900	2.871840	3.140882	-0.131254	-167.503176	-70.982405	90.074941			
10650	10.314582	3.619687	-1.104210	3.777396	3.129047	0.018471	-166.740475	-70.681923	89.834232			
10651	10.676571	3.449459	-1.462943	3.710615	2.953080	0.460504	-166.220779	-70.450758	89.597461			
10652	10.530631	2.536583	-1.560177	2.860501	2.666553	0.408343	-165.861757	-70.263280	89.444953			
10653	10.335121	1.711581	-1.278163	2.000899	2.713281	0.187930	-165.672736	-70.112006	89.393586			
10654	10.005219	0.571274	-0.642333	0.743620	2.953436	-0.243594	-165.612902	-70.000795	89.410036			
10655	9.953338	-0.418073	-0.183860	-0.328409	3.151046	-0.365966	-165.578770	-69.897322	89.469382			
10656	10.413581	-0.951034	0.091301	-0.912701	3.455398	0.014960	-165.470226	-69.803539	89.503678			
10657	11.040950	-0.943262	0.076048	-0.899250	3.672311	0.603817	-165.221358	-69.724471	89.478826			
10658	11.826510	-0.702543	0.266515	-0.706156	4.181902	1.252753	-164.799054	-69.669452	89.386912			
10659	12.037172	-0.334132	0.844216	-0.490011	4.869601	1.222019	-164.253195	-69.649743	89.264880			
10660	11.898638	-0.179895	1.520338	-0.516718	5.465809	0.854051	-163.643812	-69.682510	89.130112			
10661	12.519147	-0.347988	1.965182	-0.795527	6.022542	1.314223	-162.998072	-69.791138	88.928717			
10662	14.178647	-0.549880	1.822942	-0.928167	6.372117	2.962043	-162.177188	-70.023851	88.511534			
10663	15.206380	-0.234186	1.418922	-0.464791	6.362205	4.065614	-161.078202	-70.414455	87.789664			
10664	15.409789	-0.505118	0.630963	-0.425811	5.521733	4.590137	-159.809405	-70.978433	86.761093			
10665	14.052579	-2.713902	0.403335	-2.404300	4.105847	3.691394	-158.230865	-71.704062	85.394688			
10666	13.632776	-5.093610	3.276369	-5.440639	5.734760	2.837932	-156.404455	-72.578152	83.621051			
10667	12.367940	-6.809340	3.086293	-6.950737	4.483834	2.037730	-154.060454	-73.738456	81.318228			
10668	12.962460	-5.133741	0.800358	-4.519443	2.709372	3.119515	-150.795779	-75.106490	78.455708			
10669	14.045115	-2.743470	-2.043315	-1.184803	0.657998	4.578807	-147.145637	-76.501257	75.554947			
10670	14.307856	-0.404562	-3.694534	1.695734	-0.491847	4.863776	-143.484092	-77.862743	72.978671			
10671	14.125488	2.004785	-4.624784	4.371729	-0.931303	4.503412	-139.533290	-79.165069	70.440971			
10672	13.899492	3.591820	-5.442867	6.226733	-1.406883	4.150349	-135.611509	-80.344034	67.838245			
10673	14.118254	3.245614	-4.403093	5.576794	-0.750964	4.243552	-132.222795	-81.542680	65.587839			
10674	13.926836	3.250698	-3.391486	5.179020	-0.116183	3.941665	-127.582684	-82.738688	61.139563			
10675	12.499855	-0.046518	-3.089897	1.965153	-1.613755	2.809567	-120.598346	-83.846555	53.676417			
10676	11.566638	-1.756253	-3.087367	0.336891	-2.653745	1.987351	-111.036364	-84.780933	43.616672			
10677	11.125822	-1.827576	-3.425233	0.365832	-3.279797	1.499249	-99.068535	-85.470755	31.316949			
10678	11.035490	-1.487678	-3.395029	0.653396	-3.373172	1.309844	-83.398663	-85.908506	15.298077			
10679	10.852601	-1.302261	-3.172646	0.715318	-3.351867	1.040327	-64.817735	-85.972740	-3.769036			
10680	10.194218	-1.569499	-2.753225	0.251696	-3.301891	0.335942	-47.356471	-85.609138	-21.659425			
10681	10.207602	-0.603177	-2.233404	0.954998	-2.714191	0.250243	-32.948468	-84.882492	-36.429600			
10682	8.400024	-0.943977	-2.177349	0.472928	-2.887329	-1.588947	-24.787210	-84.211008	-44.926561			
10683	9.912104	-0.316076	-2.556480	1.280760	-3.298072	-0.202042	-18.115871	-83.422831	-51.835405			
10684	8.589332	-0.135492	-2.016440	1.152891	-2.785821	-1.520003	-13.091520	-82.562099	-57.294564			
10685	8.717841	-0.416725	-2.690902	1.093324	-3.680713	-1.525944	-9.074874	-81.746779	-61.633421			
10686	8.302294	0.774066	-2.315935	2.034665	-3.035407	-1.968268	-5.613552	-80.846453	-65.465633			
10687	7.774489	0.905019	-2.517964	2.151491	-3.251212	-2.573853	-3.099918	-80.047036	-68.526579			
10688	7.537483	1.153762	-2.635603	2.365231	-3.377007	-2.877922	-1.282595	-79.277075	-71.001970			
10689	7.353404	1.220263	-2.644731	2.373211	-3.460769	-3.108553	-0.073112	-78.524385	-73.014788			
10690	7.025803	1.097012	-2.626398	2.181472	-3.537079	-3.472963	0.669655	-77.825092	-74.646652			
10691	6.842979	1.206489	-2.759067	2.260333	-3.704670	-3.725046	1.037102	-77.175313	-75.977627			
10692	6.584075	1.187293	-2.807275	2.185428	-3.803054	-4.033420	1.015597	-76.566300	-77.020548			
10693	6.295220	1.088584	-2.673862	1.988017	-3.731410	-4.327468	0.622421	-75.994557	-77.791924			
10694	6.142531	0.411818	-2.803628	1.289862	-4.051256	-4.551199	-0.253408	-75.443977	-78.247467			
10695	6.237536	-0.958948	-3.369194	-0.009464	-4.942167	-4.640450	-1.289696	-74.928658	-78.526195			
10696	6.038535	-1.779450	-3.267297	-0.915866	-4.969128	-4.835330	-2.286664	-74.467151	-78.662020			
10697	5.999271	-2.457138	-3.214582	-1.651831	-5.026501	-4.876310	-3.123647	-74.091800	-78.705736			
10698	5.906323	-2.952268	-3.124678	-2.200683	-4.988125	-4.950626	-3.702877	-73.798729	-78.755851			
10699	5.362391	-2.961955	-2.622311	-2.331530	-4.358542	-5.343689	-4.003235	-73.618085	-78.911817			
10700	4.949736	-3.135102	-2.373441	-2.575565	-4.019576	-5.668848	-4.252899	-73.584232	-79.002182			
10701	4.741048	-3.402902	-1.940181	-2.915757	-3.564812	-5.736904	-4.348271	-73.685421	-79.137515			
10702	4.989397	-3.076009	-1.416323	-2.645886	-3.073168	-5.349870	-4.346060	-73.933230	-79.280163			
10703	5.617375	-3.066939	-0.803465	-2.677371	-2.625642	-4.564439	-4.477210	-74.300176	-79.246298			
10704	6.383163	-3.107640	-0.171853	-2.750799	-2.184789	-3.640873	-4.564186	-74.776504	-79.151561			
10705	7.144794	-2.461138	0.412116	-2.138975	-1.688997	-2.752463	-4.589448	-75.383166	-78.988419			
10706	8.206413	-0.911789	1.734784	-0.702681	-0.419005	-1.415312	-4.575802	-76.081397	-78.792899			
10707	9.621918	0.846166	3.726298	0.867361	1.489298	0.395679	-4.635335	-76.815285	-78.588950			
10708	12.091451	1.544257	5.908001	1.409979	3.269864	3.256760	-4.999724	-77.464755	-78.358649			
10709	14.567260	0.627603	7.775010	0.435508	4.571271	6.060627	-5.766413	-77.829719	-78.223900			
10710	16.293122	-1.152247	9.289966	-1.288722	5.573460	8.086197	-6.754223	-77.853762	-78.385946			
10711	15.520635	-2.897424	11.076866	-3.003138	7.355884	7.761436	-7.465041	-77.665642	-79.022892			
10712	12.625180	-2.864285	12.286519	-2.948737	9.144820	5.228318	-7.429335	-77.357481	-80.156616			
10713	9.732075	-2.185429	11.219820	-2.232089	8.728443	2.195875	-6.440170	-77.137724	-81.534417			
10714	8.954085	0.121886	9.288270	0.066917	7.091245	0.965589	-4.651250	-77.238883	-83.021518			
10715	9.856504	1.269849	6.775482	1.215988	4.523895	1.265425	-2.643723	-77.512488	-84.545821			
10716	9.736827	1.246091	4.982474	1.152377	2.851244	0.757300	-0.411723	-77.766340	-86.188220			
10717	8.826039	1.964595	3.627990	1.823696	1.813986	-0.415699	2.048419	-77.971623	-88.029662			
10718	7.879030	3.133251	2.322271	2.983754	0.855304	-1.587457	4.401188	-78.058517	-90.031303			
10719	7.425927	3.834775	0.995003	3.717867	-0.269558	-2.266541	6.578720	-78.130932	-92.004865			
10720	7.927827	4.690701	-0.337375	4.618901	-1.575795	-1.992902	8.685248	-78.320467	-93.921647			
10721	8.379099	4.826013	-1.750356	4.817968	-2.975874	-1.781880	10.942136	-78.679123	-95.861384			
10722	8.591217	5.984639	-3.342620	6.066823	-4.378093	-1.761481	13.632143	-79.277154	-98.286329			
10723	9.473559	8.182120	-4.075583	8.234838	-4.980900	-0.830363	15.560623	-80.091976	-100.790460			
10724	11.600755	5.023302	-5.510370	5.007405	-6.953727	0.992061	16.297088	-81.121146	-103.214080			
10725	15.495036	1.479576	-4.028460	1.100833	-6.106893	5.019729	15.570645	-82.287346	-104.456963			
10726	19.745015	-0.279369	0.639088	-0.883994	-1.778108	9.844341	12.583904	-83.241517	-103.456449			
10727	21.722495	-2.857121	6.248138	-3.146108	3.866778	12.417918	6.215437	-83.613216	-99.119097			
10728	20.256438	-7.807599	9.421020	-7.406129	7.577786	11.347055	-1.506644	-83.306242	-93.339330			
10729	15.932560	-12.920939	7.185359	-12.210914	6.379778	6.998164	-7.586680	-82.740968	-88.405030			
10730	10.120538	-10.323724	5.573146	-9.565241	5.259202	1.183060	-11.395409	-81.855094	-85.277581			
10731	3.285400	-5.909984	-0.376854	-5.865076	-0.131645	-6.429354	-13.421175	-81.098379	-84.234517			
10732	-2.284390	-2.816584	-8.157083	-3.995506	-7.229059	-13.198522	-13.248505	-81.075180	-85.571639			
10733	-9.751173	-5.065107	-21.174915	-8.370411	-18.488573	-22.351427	-9.961389	-82.031311	-89.079034			
10734	-5.933090	-7.562493	-20.034694	-10.323679	-17.896251	-17.988539	-4.872825	-84.005874	-92.415191			
10735	6.674170	-5.362365	-15.514643	-6.930574	-15.409153	-4.478416	-0.883674	-86.061903	-93.458621			
10736	20.621239	2.357269	0.615027	2.311325	-0.644020	10.811956	2.741212	-87.709215	-95.224001			
10737	19.294125	5.556364	4.836979	5.677253	3.882249	9.661100	10.374741	-88.204956	-103.419837			
10738	14.890210	1.640544	2.634653	1.696924	2.114886	5.153888	10.779319	-88.521500	-104.826815			
10739	10.912338	2.621375	3.335905	2.790358	2.914676	1.178069	10.851627	-89.014632	-104.915222			
10740	9.426552	4.618895	2.482765	4.746211	2.058974	-0.347450	9.009096	-89.600236	-102.588841			
10741	8.923416	5.129128	-1.117343	5.058038	-1.432876	-0.893865	-137.302263	-89.847798	44.279298			
10742	8.786141	4.801613	-3.896784	4.655204	-4.051799	-1.018033	-153.015533	-89.179904	60.727272			
10743	9.562117	4.908636	-4.830697	4.834846	-4.819069	-0.207388	-153.931856	-88.404065	62.266380			
10744	10.121198	4.290682	-3.779566	4.345705	-3.592001	0.353160	-153.657062	-87.733373	62.204978			
10745	9.494686	2.292756	-2.202988	2.423264	-1.897300	-0.284485	-154.263680	-87.251538	62.508223			
10746	8.888928	-0.056217	-1.046779	0.110389	-0.634027	-0.885345	-156.641321	-86.855784	64.174202			
10747	8.768300	-2.067242	-0.680569	-1.887542	-0.109614	-0.978425	-160.055933	-86.498037	66.674169			
10748	8.456281	-3.294510	-0.951021	-3.145786	-0.221769	-1.249934	-163.614916	-86.117777	69.407726			
10749	8.563450	-3.609338	-1.351955	-3.496930	-0.483372	-1.110694	-166.269061	-85.654785	71.583983			
10750	8.762386	-3.089758	-1.429175	-2.982802	-0.497712	-0.911944	-167.851877	-85.184011	73.141777			
10751	8.838688	-2.203598	-1.199816	-2.073565	-0.267235	-0.865823	-168.811815	-84.728073	74.331796			
10752	8.858700	-1.977848	-0.901871	-1.815981	0.073601	-0.874101	-169.362917	-84.285686	75.217566			
10753	8.956810	-1.862782	-0.506592	-1.660601	0.524261	-0.817227	-169.558604	-83.820511	75.917594			
10754	9.184053	-1.329059	-0.478145	-1.108884	0.602583	-0.606778	-169.548953	-83.329558	76.542205			
10755	9.351124	-0.674509	-0.723212	-0.450282	0.409745	-0.429167	-169.495856	-82.864247	77.092474			
10756	9.269595	-0.434513	-1.229010	-0.217761	-0.041090	-0.454531	-169.520684	-82.396667	77.702376			
10757	9.313357	-0.036918	-1.592063	0.187232	-0.331511	-0.371867	-169.619718	-81.904175	78.437214			
10758	9.529887	0.545045	-1.705362	0.790616	-0.339321	-0.154368	-169.750834	-81.398930	79.183593			
10759	9.606408	0.972851	-1.669828	1.236077	-0.205909	-0.094311	-169.858190	-80.915800	79.793285			
10760	9.617304	1.263070	-1.585568	1.539978	-0.031385	-0.105539	-169.891185	-80.450343	80.230924			
10761	9.681637	1.496300	-1.566714	1.787904	0.086652	-0.054469	-169.862310	-79.988254	80.537879			
10762	9.641295	1.612355	-1.800962	1.920601	-0.062530	-0.060536	-169.781762	-79.528780	80.749529			
10763	9.620459	1.546978	-2.111423	1.876056	-0.287242	-0.024850	-169.724951	-79.072783	80.937199			
10764	9.514088	1.218444	-2.316305	1.563884	-0.430285	-0.079430	-169.736056	-78.607110	81.122570			
10765	9.404535	0.723111	-2.456879	1.081493	-0.517047	-0.139690	-169.814013	-78.127519	81.332300			
10766	9.373330	0.223394	-2.287354	0.585742	-0.284796	-0.183752	-169.956405	-77.628849	81.574472			
10767	9.291309	-0.360090	-1.997545	-0.002343	0.051689	-0.302430	-170.153092	-77.114500	81.833149			
10768	9.282730	-0.912099	-1.776475	-0.556995	0.339132	-0.340045	-170.387469	-76.572421	82.131520			
10769	9.398414	-1.524894	-1.375985	-1.176268	0.829064	-0.300738	-170.616094	-76.022632	82.418708			
10770	9.513375	-2.001063	-1.050399	-1.657475	1.250211	-0.257534	-170.813392	-75.470067	82.697391			
10771	9.403406	-2.201157	-0.705640	-1.871854	1.638259	-0.454337	-170.945840	-74.920396	82.973071			
10772	9.289141	-1.940951	-0.172646	-1.635490	2.214346	-0.729378	-170.985507	-74.369860	83.219885			
10773	9.156094	-1.356968	0.470537	-1.084445	2.896782	-1.076047	-170.923990	-73.820726	83.417636			
10774	9.335834	-0.414800	0.781580	-0.152558	3.360080	-1.059020	-170.702448	-73.273798	83.504535			
10775	9.579185	0.637840	0.607659	0.919175	3.389203	-0.856983	-170.351713	-72.762213	83.481645			
10776	9.781753	1.494371	-0.030764	1.828593	2.962975	-0.550228	-169.869600	-72.297284	83.378528			
10777	9.981493	2.330387	-0.710221	2.730613	2.505515	-0.229852	-169.291392	-71.879634	83.255651			
10778	10.289022	3.071060	-0.963539	3.517911	2.489854	0.069014	-168.737065	-71.517898	83.149830			
10779	10.503530	3.117265	-0.989448	3.590654	2.610570	0.252709	-168.335632	-71.238789	83.078053			
10780	10.430520	2.595072	-0.929629	3.074031	2.661668	0.180311	-168.096731	-71.029864	83.055096			
10781	10.363287	1.753617	-0.853935	2.232214	2.686122	0.137387	-168.011269	-70.876869	83.107576			
10782	10.272164	0.732759	-0.724032	1.200112	2.726325	0.071914	-168.011856	-70.763668	83.223269			
10783	10.015208	-0.220568	-0.542394	0.219109	2.754986	-0.168557	-168.036437	-70.690525	83.400810			
10784	9.693211	-0.887321	-0.411538	-0.477104	2.727895	-0.472131	-168.018090	-70.633685	83.606569			
10785	9.926028	-1.246654	-0.226842	-0.852949	2.953275	-0.289963	-167.911633	-70.577195	83.789888			
10786	10.505729	-1.085879	-0.025022	-0.700168	3.352941	0.178191	-167.666171	-70.526819	83.885995			
10787	10.854191	-0.739574	-0.122447	-0.333861	3.412825	0.512843	-167.249711	-70.488577	83.889949			
10788	11.548044	-0.287343	0.091376	0.116661	3.893745	1.062669	-166.665522	-70.446644	83.827817			
10789	11.798152	0.065304	0.547576	0.418046	4.445792	1.121693	-166.028376	-70.444593	83.739809			
10790	11.728942	-0.126460	0.693646	0.204497	4.531131	1.026697	-165.377216	-70.483957	83.662659			
10791	12.078724	-0.510219	0.866689	-0.191231	4.741418	1.340310	-164.697778	-70.581294	83.582163			
10792	12.600525	-0.703538	0.818410	-0.356483	4.803691	1.880696	-163.931392	-70.784325	83.401020			
10793	13.396220	-0.172348	0.804285	0.205119	5.068388	2.613259	-163.022284	-71.095776	83.050722			
10794	13.886637	0.603762	0.873927	0.990203	5.329088	3.016434	-161.948794	-71.525481	82.506013			
10795	13.848945	0.746130	0.415476	1.242310	4.805197	3.144471	-160.789935	-72.039795	81.781020			
10796	13.778404	0.185304	0.547218	0.704118	4.661943	3.146698	-159.530025	-72.775098	80.743463			
10797	12.896065	-2.562922	1.488041	-2.163241	4.605289	2.401999	-158.276301	-73.736917	79.313040			
10798	12.814815	-5.994142	1.335818	-5.432490	3.605579	2.813289	-156.577987	-74.935423	77.330627			
10799	13.222663	-6.667374	0.467701	-5.832095	2.473162	3.580251	-154.032805	-76.344806	74.719548			
10800	13.075266	-4.767800	-1.181212	-3.601509	0.825846	3.656692	-150.953449	-77.765678	72.022377			
10801	13.240576	-2.819524	-2.765413	-1.320339	-0.691947	3.923254	-147.762736	-79.121180	69.658883			
10802	13.167750	-0.801692	-3.793430	0.911305	-1.643376	3.784470	-144.406725	-80.396939	67.539568			
10803	13.043566	0.950916	-4.034090	2.710924	-1.793702	3.481692	-140.737455	-81.598141	65.053789			
10804	12.960860	0.308634	-3.618192	2.020816	-1.816012	3.369996	-136.589552	-82.770817	62.129919			
10805	12.212260	1.175225	-2.851082	2.623165	-1.183936	2.449515	-131.285665	-83.920873	57.730439			
10806	11.332626	0.015125	-2.666207	1.420429	-1.647316	1.624154	-123.895873	-84.891321	50.620082			
10807	10.702581	-1.523217	-3.031811	0.028217	-2.712837	1.081909	-113.053671	-85.747343	39.810399			
10808	10.383495	-2.268969	-3.546375	-0.550501	-3.660599	0.762495	-98.294085	-86.377176	25.067246			
10809	10.479715	-2.327646	-3.455773	-0.624595	-3.807301	0.784226	-79.335941	-86.701801	6.203201			
10810	10.346638	-1.956542	-2.993648	-0.407852	-3.474642	0.560318	-59.103956	-86.626750	-13.918654			
10811	10.292232	-1.111258	-2.448492	0.237706	-2.919925	0.413425	-41.072617	-86.174567	-31.885899			
10812	9.808881	-0.961417	-2.526245	0.370156	-3.134913	-0.140434	-28.465197	-85.532658	-44.429958			
10813	9.992158	-0.442008	-2.334854	0.809400	-2.993755	-0.021395	-18.918381	-84.795341	-53.781430			
10814	9.946746	0.494130	-2.280792	1.666205	-2.843327	-0.142108	-11.426366	-83.943992	-61.140864			
10815	9.491693	0.601341	-2.315817	1.730562	-2.984564	-0.652371	-5.934729	-83.010366	-66.668270			
10816	9.056234	0.538584	-2.231220	1.593641	-3.042770	-1.124573	-1.667974	-82.133420	-70.982426			
10817	8.795119	0.780402	-2.044294	1.722344	-2.905209	-1.402345	1.608568	-81.343706	-74.318738			
10818	8.440817	1.294926	-1.822142	2.096865	-2.626280	-1.753624	4.179479	-80.518514	-77.106205			
10819	8.170055	1.522424	-2.146882	2.355778	-2.956446	-2.106543	5.926911	-79.753555	-79.403417			
10820	7.747117	1.234655	-2.249012	2.045425	-3.188007	-2.584167	7.049078	-79.008776	-81.234322			
10821	7.569889	1.005556	-2.519840	1.844297	-3.586624	-2.855864	7.690642	-78.330966	-82.551818			
10822	7.385487	1.492056	-2.684220	2.303288	-3.683975	-3.097135	8.036037	-77.720090	-83.674976			
10823	7.054409	1.401035	-2.915801	2.210945	-3.959948	-3.515177	7.819958	-77.101841	-84.455942			
10824	6.717225	0.532102	-3.269686	1.376441	-4.512604	-3.995837	7.285033	-76.528794	-85.028971			
10825	6.404279	-0.025405	-2.974289	0.698293	-4.347947	-4.292831	6.540101	-76.013423	-85.390438			
10826	6.231652	-0.540842	-2.840358	0.107859	-4.329307	-4.479899	5.718396	-75.544136	-85.548163			
10827	5.944104	-1.076737	-2.798105	-0.479963	-4.347084	-4.793393	4.756258	-75.101362	-85.526759			
10828	5.828311	-1.647141	-2.408419	-1.145897	-4.058099	-4.842640	3.654131	-74.699081	-85.320826			
10829	5.454896	-2.474101	-2.264511	-2.022544	-3.947531	-5.194102	2.575369	-74.367054	-85.032593			
10830	4.996686	-2.890771	-1.994139	-2.501832	-3.614696	-5.573018	1.652796	-74.143636	-84.701573			
10831	4.603038	-3.120059	-1.809164	-2.773181	-3.347055	-5.900850	1.015555	-74.065889	-84.453486			
10832	4.432033	-2.918835	-1.434461	-2.627093	-2.903914	-5.954473	0.652976	-74.144899	-84.359129			
10833	4.718388	-2.856059	-1.191902	-2.588039	-2.720671	-5.600704	0.277316	-74.380543	-84.201738			
10834	5.435498	-2.737021	-0.887794	-2.484556	-2.574222	-4.810260	-0.138299	-74.753524	-84.000385			
10835	6.279461	-2.735210	-0.643924	-2.485424	-2.509303	-3.909015	-0.605307	-75.260306	-83.727907			
10836	7.033600	-2.455960	-0.288745	-2.220253	-2.261545	-3.064207	-1.007713	-75.884899	-83.394921			
10837	7.889756	-1.681028	0.880280	-1.535058	-1.178862	-1.932198	-1.253472	-76.594761	-83.050501			
10838	9.282377	-0.809510	3.044251	-0.846035	0.794787	-0.079424	-1.300662	-77.378845	-82.773665			
10839	11.677571	-0.006293	5.595584	-0.258977	2.981964	2.785513	-1.308047	-78.134184	-82.663838			
10840	14.440149	0.440693	8.237945	-0.018422	5.203306	5.982836	-1.554363	-78.736219	-82.658471			
10841	17.592139	0.651419	10.254452	0.122660	6.739511	9.412886	-2.101623	-79.176369	-82.739387			
10842	19.691662	0.322872	13.071153	-0.239415	9.171011	11.971511	-2.803949	-79.259327	-83.234291			
10843	16.202650	-2.780683	14.163642	-3.218706	10.653498	8.815279	-3.226265	-78.777821	-84.185636			
10844	10.074110	-3.464946	12.173310	-3.771526	9.774005	2.513143	-2.385930	-78.262058	-85.358314			
10845	7.556496	-0.822521	9.505303	-1.101868	7.715901	-0.465076	-1.056505	-78.093346	-86.285107			
10846	7.574044	-0.358962	6.777748	-0.593106	5.050264	-1.004987	-0.028210	-78.145188	-86.963211			
10847	7.819292	-0.666837	4.703827	-0.848243	2.965012	-1.198691	0.966630	-78.284122	-87.546401			
10848	7.604215	0.052249	2.708652	-0.061757	1.123568	-1.819118	2.084950	-78.519827	-88.168699			
10849	7.328791	1.027669	0.228032	1.043823	-1.139105	-2.571702	3.437539	-78.876198	-89.033148			
10850	7.920977	2.078529	-2.085739	2.252630	-3.369414	-2.397538	4.999685	-79.377450	-90.088628			
10851	9.022129	2.381910	-3.419845	2.665847	-4.752240	-1.501516	6.797106	-79.998882	-91.252782			
10852	9.543523	3.065342	-3.735585	3.380519	-4.951479	-0.953672	8.974566	-80.714995	-92.711200			
10853	10.133403	4.197258	-3.263044	4.442454	-4.309392	-0.187638	11.025429	-81.441969	-94.397886			
10854	11.591894	3.140893	-4.079385	3.437465	-5.306937	1.182619	12.065709	-82.216733	-95.780019			
10855	14.699554	0.356258	-4.962684	0.686432	-6.716921	4.160086	11.548706	-83.190204	-95.860423			
10856	18.364728	-1.118539	-3.428157	-0.963339	-5.504978	8.048565	8.340959	-84.193390	-93.449542			
10857	20.254816	-2.019382	0.924828	-2.113635	-1.161373	10.420075	1.748988	-84.866023	-87.990035			
10858	18.674823	-2.277891	5.774520	-2.433370	3.975539	9.306602	-5.808952	-84.954898	-81.872603			
10859	14.291597	-2.443671	7.867544	-2.417628	6.482550	5.162035	-10.953634	-84.566215	-78.358771			
10860	8.996172	-2.070682	6.801536	-1.863960	5.903949	-0.161554	-13.514347	-84.112103	-77.402713			
10861	5.177527	-2.005627	3.676891	-1.768712	3.184852	-4.238100	-14.890481	-83.841226	-77.750474			
10862	2.659532	-3.344280	-1.993078	-3.396486	-2.070812	-7.281960	-15.372808	-83.779010	-78.641702			
10863	1.048257	-5.160740	-8.090396	-5.712141	-7.774377	-9.470630	-13.397260	-83.949402	-80.780898			
10864	-0.380702	-5.292443	-12.317451	-6.076111	-11.865569	-11.281529	-8.960181	-84.709065	-84.162331			
10865	0.343758	-5.185448	-14.358069	-5.802087	-14.105392	-10.529827	-7.997828	-86.237442	-83.829954			
10866	6.588852	-5.624381	-13.100959	-5.794722	-13.306148	-3.811072	-18.139721	-88.084956	-72.038092			
10867	12.990208	-2.469895	-8.032276	-2.233422	-8.283432	3.061395	-74.849482	-89.226735	-13.775016			
10868	12.492773	0.831634	-3.439729	1.100362	-3.354347	2.682364	-131.419892	-88.956276	43.488550			
10869	11.304050	0.368034	-0.884085	0.560719	-0.663858	1.498460	-145.395841	-88.371202	57.431990			
10870	12.303272	1.448962	2.027336	1.583053	2.434859	2.399765	-149.881978	-87.768637	61.861348			
10871	13.006335	3.754793	4.407171	3.870328	5.005420	2.940819	-149.887567	-87.380031	61.575162			
10872	12.246693	4.658351	5.188013	4.815873	5.788202	2.099500	-148.028609	-87.247874	59.012829			
10873	10.792411	3.681285	3.921828	3.916357	4.393328	0.711985	-146.477862	-87.222785	56.624200			
10874	9.621512	2.329683	1.126436	2.590099	1.524081	-0.313302	-147.608332	-87.069817	57.343524			
10875	8.981449	1.803178	-1.762449	2.049236	-1.337499	-0.810737	-151.896016	-86.640290	62.050783			
10876	9.294371	2.306310	-4.340707	2.605197	-3.765466	-0.348144	-157.099075	-85.966337	68.170408			
10877	9.744770	2.497106	-5.144365	2.881439	-4.358945	0.204995	-161.204643	-85.227608	73.173150			
10878	9.996273	2.357388	-4.373942	2.758957	-3.414698	0.450862	-163.755422	-84.627853	76.154914			
10879	9.693313	0.983798	-2.781823	1.311390	-1.802652	0.071478	-165.615418	-84.127547	77.873696			
10880	9.550460	-0.293283	-1.188166	-0.047528	-0.196468	-0.186286	-167.302778	-83.674600	79.107684			
10881	9.602739	-1.310447	-0.032479	-1.112136	1.007329	-0.237782	-168.920639	-83.298083	80.054377			
10882	9.554234	-2.318600	0.603282	-2.138616	1.695336	-0.348290	-170.471159	-82.985195	80.905312			
10883	9.306308	-3.182482	0.926309	-3.009841	2.061025	-0.631941	-171.877869	-82.719278	81.685390			
10884	9.059669	-3.935629	0.673370	-3.771455	1.852523	-0.848083	-172.976272	-82.451418	82.503265			
10885	8.943850	-3.939114	-0.067076	-3.790986	1.151171	-0.878669	-173.528422	-82.140176	83.315467			
10886	8.899919	-2.874330	-0.943400	-2.733315	0.296411	-0.823725	-173.493993	-81.780625	84.085387			
10887	8.852131	-1.490716	-1.933093	-1.324666	-0.648549	-0.749368	-173.108513	-81.376381	84.721739			
10888	8.947763	0.062688	-2.615940	0.280737	-1.209474	-0.573245	-172.683122	-80.920298	85.191879			
10889	9.250996	0.417918	-2.895412	0.686790	-1.345440	-0.228508	-172.235135	-80.498081	85.448527			
10890	9.254598	0.942046	-2.736713	1.233911	-1.078144	-0.255543	-171.795577	-80.068581	85.715517			
10891	9.408512	1.770297	-2.310482	2.057595	-0.490240	-0.194079	-171.466606	-79.650198	85.976425			
10892	9.530701	1.966125	-1.890766	2.234940	0.044266	-0.154663	-171.328848	-79.267823	86.277891			
10893	9.523107	1.853151	-1.806215	2.120732	0.195126	-0.176814	-171.298028	-78.892061	86.635948			
10894	9.535421	1.756865	-1.775336	2.024569	0.297210	-0.170337	-171.316098	-78.500254	87.011158			
10895	9.548934	1.389633	-2.006676	1.683314	0.116135	-0.102258	-171.377814	-78.105471	87.394513			
10896	9.513347	0.942331	-2.180222	1.257256	-0.029987	-0.088332	-171.440591	-77.709196	87.768555			
10897	9.415654	0.579618	-2.220926	0.900743	-0.058181	-0.163444	-171.516277	-77.331000	88.121051			
10898	9.388346	0.194004	-1.972448	0.487112	0.199340	-0.231879	-171.631194	-76.968129	88.445076			
10899	9.430185	-0.259150	-1.681693	-0.002129	0.498353	-0.243206	-171.804970	-76.617689	88.761606			
10900	9.435374	-0.656274	-1.358783	-0.442888	0.823380	-0.303277	-172.012329	-76.265745	89.052293			
10901	9.524360	-1.155553	-1.022874	-0.988433	1.166866	-0.286086	-172.247969	-75.910868	89.342602			
10902	9.386359	-1.582291	-0.770313	-1.453513	1.383430	-0.475991	-172.468997	-75.546692	89.632658			
10903	9.199076	-1.746438	-0.374659	-1.676557	1.752731	-0.761155	-172.638280	-75.177777	89.931211			
10904	9.121199	-1.706398	0.006202	-1.695504	2.156924	-0.948107	-172.703986	-74.796811	90.189234			
10905	9.289343	-1.433534	0.305807	-1.473310	2.574037	-0.888346	-172.595280	-74.421500	90.362790			
10906	9.495395	-0.884163	0.287077	-0.932724	2.735153	-0.720087	-172.271490	-74.055464	90.413712			
10907	9.726320	0.004865	0.047489	-0.020692	2.745117	-0.481706	-171.776243	-73.719918	90.378105			
10908	9.860861	1.082308	-0.120357	1.071629	2.834173	-0.365929	-171.209521	-73.431916	90.298054			
10909	10.005420	1.947502	-0.327696	1.962138	2.865046	-0.223639	-170.650108	-73.204915	90.211025			
10910	10.157915	2.518445	-0.498298	2.556972	2.891029	-0.072168	-170.139708	-73.024496	90.162127			
10911	10.310784	2.837152	-0.845428	2.933776	2.706303	0.144480	-169.734066	-72.912643	90.154103			
10912	10.262059	2.568095	-0.961706	2.692301	2.566099	0.137009	-169.449451	-72.872494	90.173334			
10913	9.987948	1.794241	-1.081385	1.954470	2.248793	-0.052013	-169.284721	-72.882804	90.260083			
10914	9.929945	1.018459	-1.025982	1.179694	2.144203	-0.081068	-169.174223	-72.933292	90.413080			
10915	9.872589	0.281147	-1.067602	0.459868	1.943135	-0.081317	-169.097939	-73.015870	90.617873			
10916	9.845334	-0.353569	-1.214037	-0.137904	1.660967	-0.027411	-169.020380	-73.125403	90.844318			
10917	10.335035	-0.917981	-1.299211	-0.678159	1.590098	0.500179	-168.871445	-73.241576	91.045947			
10918	11.108407	-1.172093	-1.401623	-0.908001	1.638231	1.288065	-168.619392	-73.368496	91.182161			
10919	11.121043	-1.366705	-1.642619	-1.038824	1.344022	1.383652	-168.258980	-73.499209	91.273005			
10920	10.859218	-1.583234	-1.565062	-1.252903	1.263082	1.128675	-167.774586	-73.605221	91.341292			
10921	11.402299	-1.674359	-1.183797	-1.418675	1.716929	1.556422	-167.207418	-73.729282	91.332361			
10922	12.559699	-1.820887	-1.490631	-1.470284	1.677771	2.769312	-166.481037	-73.901504	91.133496			
10923	13.390399	-1.606904	-1.912834	-1.120287	1.510903	3.678251	-165.485612	-74.134393	90.704000			
10924	13.183943	-1.448200	-1.903861	-0.911489	1.433965	3.478305	-164.241916	-74.412582	90.132926			
10925	12.779122	-1.355854	-1.292854	-0.929599	1.837860	2.937726	-162.909039	-74.728678	89.514915			
10926	12.026281	-1.953459	-0.543265	-1.665726	2.080029	2.088591	-161.662791	-75.108737	88.819345			
10927	11.573033	-3.313245	-0.493694	-2.933217	1.521564	1.773350	-160.490424	-75.554778	87.988936			
10928	11.746493	-4.608091	0.174772	-4.309363	1.691001	1.926702	-159.032680	-76.145844	86.573071			
10929	11.605354	-6.385970	0.607404	-6.060648	1.423831	1.895138	-157.273786	-76.954331	84.279621			
10930	11.141237	-8.463028	-0.434970	-7.652357	-0.381997	1.901871	-154.269765	-77.901213	81.096962			
10931	10.916860	-6.369123	-1.535484	-5.204210	-1.102099	1.754249	-149.760673	-78.820345	77.385437			
10932	11.622481	-3.115317	-1.978745	-1.784481	-0.697555	2.229910	-144.612337	-79.690897	73.235429			
10933	10.857570	-1.555895	-3.814599	0.406774	-2.294982	1.563609	-139.057007	-80.528839	68.843735			
10934	9.961550	0.346573	-4.832391	2.656434	-2.906558	0.540873	-133.740665	-81.182885	65.125878			
10935	9.530445	2.716646	-5.776634	5.325791	-3.032962	-0.116588	-129.773212	-81.658604	62.636697			
10936	10.002708	4.150705	-4.975419	6.449064	-1.712802	0.062157	-126.076235	-82.241841	59.612016			
10937	8.996339	2.014052	-4.593982	4.321039	-2.418475	-0.780916	-120.881263	-82.733119	54.316350			
10938	8.517065	-0.679634	-3.756513	1.529589	-2.885775	-1.069413	-115.011693	-83.116127	48.255592			
10939	8.550872	-1.326748	-3.304070	0.802562	-2.838281	-1.032414	-108.611059	-83.422177	41.846507			
10940	8.638847	-1.449129	-3.483304	0.814465	-3.159394	-0.968680	-101.705597	-83.649617	34.944100			
10941	8.885822	-1.867379	-3.478819	0.496426	-3.423613	-0.725448	-94.251013	-83.817787	27.508903			
10942	8.985456	-2.434069	-3.437812	0.015821	-3.727483	-0.615644	-86.720332	-83.916178	20.131949			
10943	9.710586	-2.201405	-3.068254	0.199990	-3.390882	0.036997	-79.957205	-83.927598	13.649397			
10944	10.272989	-1.625070	-2.969586	0.795396	-3.173854	0.496822	-73.216501	-83.859015	7.326183			
10945	9.431957	-0.669604	-1.787775	1.133081	-1.827812	-0.432891	-67.187535	-83.777253	1.447810			
10946	9.136326	-0.502226	-1.852650	1.297397	-1.914218	-0.767864	-62.048315	-83.701831	-3.636927			
10947	8.985475	-0.159039	-2.293279	1.779823	-2.257449	-0.994594	-57.030763	-83.655058	-8.455165			
10948	9.015726	0.895852	-1.632941	2.462990	-1.297918	-1.037670	-51.853635	-83.642964	-13.410033			
10949	8.823629	1.272911	-1.465072	2.697754	-1.061872	-1.255985	-46.824322	-83.629045	-18.400059			
10950	8.820337	1.009273	-1.831040	2.587637	-1.580929	-1.270207	-42.301098	-83.616977	-22.950100			
10951	8.755157	1.092228	-1.698688	2.573977	-1.490371	-1.334223	-38.369180	-83.614371	-26.898496			
10952	8.953744	1.399764	-1.580012	2.796709	-1.326689	-1.149939	-34.842454	-83.549524	-30.584911			
10953	8.834780	1.526140	-1.664358	2.912745	-1.413181	-1.287965	-31.996515	-83.414798	-33.837444			
10954	8.810777	1.358883	-1.815302	2.801653	-1.691482	-1.323823	-29.997451	-83.231363	-36.461373			
10955	9.161880	1.755732	-1.417222	3.029538	-1.282536	-0.969200	-28.164998	-82.938601	-39.199996			
10956	8.819358	1.285221	-2.053501	2.791847	-2.131301	-1.368061	-26.921752	-82.575376	-41.707762			
10957	8.805156	0.452413	-2.221810	2.047965	-2.694335	-1.373645	-26.126373	-82.253755	-43.815362			
10958	8.599247	0.192307	-2.101250	1.703974	-2.737474	-1.566398	-25.515620	-81.947433	-45.768060			
10959	8.450625	-0.446619	-1.970717	1.001724	-2.873747	-1.674262	-25.063256	-81.698370	-47.468378			
10960	8.489464	-0.709251	-1.708716	0.635313	-2.756454	-1.597348	-24.721802	-81.485888	-48.983080			
10961	8.468308	-0.913284	-1.725278	0.400825	-2.865852	-1.618245	-24.526341	-81.265247	-50.359103			
10962	8.348173	-1.125910	-1.742115	0.144638	-2.953756	-1.735014	-24.536435	-81.067613	-51.591340			
10963	8.282511	-1.201650	-1.549300	-0.026586	-2.797126	-1.774064	-24.720243	-80.934387	-52.675130			
10964	8.308390	-1.352144	-1.234040	-0.284738	-2.530600	-1.695096	-25.008703	-80.916497	-53.625987			
10965	8.394328	-1.270181	-0.850793	-0.317473	-2.137251	-1.558411	-25.270009	-81.035012	-54.515381			
10966	8.369210	-0.822946	-0.447839	0.002233	-1.629837	-1.550435	-25.567539	-81.307558	-55.292571			
10967	8.338219	-0.239456	0.012187	0.457447	-1.041384	-1.548952	-25.927598	-81.703886	-55.974667			
10968	8.336490	0.188941	0.254964	0.802179	-0.692044	-1.537728	-26.512604	-82.225388	-56.509840			
10969	8.604539	0.256849	0.140425	0.853998	-0.765383	-1.279926	-27.454941	-82.850951	-56.790846			
10970	8.923933	0.474039	-0.408992	1.084076	-1.243371	-1.020282	-28.799171	-83.576447	-56.731656			
10971	9.459897	1.069505	-1.144394	1.688248	-1.896272	-0.566287	-30.648656	-84.315801	-56.257188			
10972	10.080155	1.722757	-1.989887	2.323824	-2.688542	-0.019451	-33.275467	-84.959592	-55.241188			
10973	10.497738	1.671184	-2.536147	2.199315	-3.231493	0.392543	-36.825980	-85.389435	-53.669974			
10974	10.387447	0.655603	-2.366992	1.078312	-3.024321	0.366774	-41.446426	-85.623254	-51.326984			
10975	10.255202	-0.948166	-1.488493	-0.548905	-2.011287	0.382242	-46.756621	-85.702966	-48.336936			
10976	10.006447	-2.424646	-0.293171	-1.925121	-0.582837	0.289139	-51.646246	-85.657543	-45.691799			
10977	9.435619	-3.790959	0.666137	-3.131937	0.698581	-0.140730	-55.786763	-85.562781	-43.692464			
10978	8.883583	-4.935529	1.561708	-4.050218	1.954964	-0.566777	-59.992193	-85.520781	-41.448570			
10979	8.838720	-5.715344	2.628118	-4.483540	3.327599	-0.511283	-64.060259	-85.532539	-39.103962			
10980	8.966344	-6.361208	3.211636	-4.839543	4.203304	-0.321512	-67.133648	-85.571306	-37.538350			
10981	8.507880	-6.929489	3.052074	-5.343648	4.363119	-0.750500	-68.722502	-85.648992	-37.194778			
10982	8.252963	-7.229709	2.495613	-5.725392	4.048773	-1.013019	-69.777330	-85.801590	-37.055129			
10983	8.831627	-7.141465	1.522968	-5.854656	3.172093	-0.486508	-70.710718	-86.001327	-36.779387			
10984	9.300064	-7.296843	0.492128	-6.279126	2.303841	-0.053505	-73.007615	-86.220123	-34.815811			
10985	9.810357	-7.194158	-0.866273	-6.576562	1.014601	0.408309	-77.163491	-86.430701	-30.398835			
10986	9.708029	-6.669112	-3.018519	-6.728224	-1.214397	0.241668	-81.801265	-86.606956	-24.632213			
10987	9.528615	-5.138853	-4.462726	-5.617270	-3.144515	-0.031408	-86.269235	-86.753214	-18.041153			
10988	10.553853	-2.032307	-4.286929	-2.373322	-3.856404	0.835543	-92.637470	-86.857086	-9.125932			
10989	13.181527	1.137220	-2.184428	1.423598	-2.426723	3.298387	-98.438569	-86.836792	-1.561725			
10990	13.556363	1.145356	-0.077764	1.875479	-0.277054	3.659451	-99.877949	-86.723935	0.412150			
10991	12.194032	0.178194	1.246795	1.088440	1.195092	2.339170	-98.498976	-86.637266	-1.179852			
10992	10.934994	0.139702	2.146440	1.152551	2.057510	1.079460	-95.594891	-86.597565	-4.652397			
10993	9.622971	0.683304	1.761612	1.560406	1.539327	-0.254073	-92.059482	-86.600326	-8.857693			
10994	8.988064	1.776188	0.524237	2.362055	0.075943	-0.945347	-89.803574	-86.646726	-11.679323			
10995	8.929613	3.200737	-1.144931	3.399098	-1.874353	-1.081915	-89.700424	-86.768369	-12.189758			
10996	9.126005	4.505986	-2.704420	4.327658	-3.680881	-0.945665	-91.719347	-86.942954	-10.449781			
10997	9.282384	4.919310	-4.012245	4.426807	-5.038148	-0.786025	-94.660226	-87.110624	-7.631052			
10998	9.013137	4.653235	-5.083456	3.906541	-5.995709	-1.008090	-99.345402	-87.221145	-2.878093			
10999	9.282357	4.477387	-5.139294	3.744416	-5.958386	-0.696881	-106.580902	-87.207587	4.554180			
11000	9.991159	4.336829	-3.918393	3.918256	-4.663026	0.030490	-113.345080	-87.082193	11.426588			
11001	10.470844	3.720067	-2.411355	3.665182	-3.007487	0.522373	-117.252242	-86.933731	15.143877			
11002	10.509279	2.861994	-1.490438	3.025292	-1.911571	0.582064	-119.470408	-86.798371	16.802806			
11003	10.442508	1.929406	-1.115787	2.192303	-1.350598	0.549901	-120.891573	-86.674823	17.315844			
11004	10.043736	1.077010	-1.138344	1.331828	-1.192026	0.194196	-121.767067	-86.551452	16.987573			
11005	9.365092	0.181835	-1.276334	0.387606	-1.113832	-0.433126	-122.350187	-86.400773	16.202348			
11006	9.236541	-0.669347	-1.781545	-0.577735	-1.342668	-0.496091	-123.703348	-86.157117	16.189144			
11007	9.738497	-1.179591	-2.093206	-1.115130	-1.423642	0.053446	-125.815194	-85.806304	16.931975			
11008	10.259104	-1.383344	-1.864649	-1.175208	-1.062704	0.585816	-127.356279	-85.466547	17.123332			
11009	10.060016	-1.400782	-1.072120	-0.902298	-0.263014	0.357463	-128.119136	-85.203468	16.542282			
11010	9.438595	-1.581029	-0.934932	-1.032510	-0.035845	-0.252711	-129.206886	-84.934448	16.388767			
11011	9.100553	-1.328327	-0.484184	-0.613490	0.320033	-0.629017	-130.676018	-84.637497	16.770114			
11012	8.978525	-1.414233	-0.656204	-0.726376	0.244116	-0.732106	-132.418160	-84.311534	17.556271			
11013	8.959238	-1.620530	-1.099909	-1.053532	-0.014550	-0.702627	-134.309989	-83.935948	18.643877			
11014	9.071294	-1.752976	-1.453710	-1.265059	-0.206065	-0.548177	-136.181816	-83.526836	19.828334			
11015	9.245678	-1.560679	-1.667417	-1.120837	-0.409379	-0.364188	-137.865085	-83.118504	20.836901			
11016	9.144757	-1.089714	-1.542627	-0.612882	-0.451969	-0.506058	-139.544706	-82.705738	21.758006			
11017	9.133076	-0.784156	-1.378094	-0.226752	-0.388278	-0.553936	-141.233446	-82.297836	22.532119			
11018	9.200933	-0.881607	-1.689276	-0.411970	-0.546344	-0.441488	-142.821874	-81.905440	23.132985			
11019	9.274230	-1.050230	-1.851158	-0.590168	-0.534571	-0.330779	-144.162487	-81.518599	23.562016			
11020	9.350376	-1.030399	-1.717334	-0.456246	-0.364179	-0.268092	-145.278096	-81.138088	23.833302			
11021	9.121608	-1.110435	-1.518428	-0.411924	-0.113748	-0.508956	-146.176803	-80.773361	23.911360			
11022	8.839893	-1.192594	-1.372431	-0.400388	0.086099	-0.797066	-147.058383	-80.389277	23.986901			
11023	8.677022	-1.167942	-1.381993	-0.361549	0.103677	-0.957021	-147.897038	-79.984722	24.072181			
11024	8.842242	-0.960650	-1.588295	-0.227302	-0.119313	-0.781384	-148.757891	-79.558816	24.244473			
11025	9.245725	-0.728868	-1.748463	-0.010137	-0.302428	-0.379775	-149.494908	-79.141096	24.323764			
11026	9.674820	-0.747637	-2.004259	-0.045933	-0.417631	0.086871	-150.093559	-78.750136	24.284244			
11027	10.191601	-0.766954	-2.134211	0.003070	-0.428385	0.619379	-150.458906	-78.422626	24.042123			
11028	10.351265	-0.733257	-2.093143	0.121448	-0.371586	0.766284	-150.703258	-78.184107	23.663602			
11029	10.243905	-0.808207	-1.968196	0.141009	-0.216703	0.646647	-150.885456	-78.040692	23.181586			
11030	10.341987	-1.083700	-1.776732	0.075272	0.126394	0.735592	-151.118649	-77.938041	22.749207			
11031	9.704694	-1.272472	-1.424379	0.027776	0.480871	0.066437	-151.537581	-77.915744	22.559284			
11032	9.585761	0.613013	0.055116	2.367922	0.424333	-0.513306	-151.919180	-77.770715	22.401550			
11033	10.832448	-1.353716	-3.080692	-0.795831	-0.597322	1.486641	-152.105740	-77.550135	22.244597			
11034	10.241579	-0.962730	-2.816314	-0.440332	-0.698339	0.820597	-151.482641	-77.663721	21.822295			
11035	9.410734	0.402462	-0.430574	1.900579	0.157158	-0.578383	-151.682016	-77.719699	21.711161			
