// General information: 
//  MT Manager version: 2022.0.0 
//  XDA version: 2022.0.0 build 7085 rev 119802 built on 2022-11-08
// Device information: 
//  DeviceId: 00B492A8
//  ProductCode: MTW2-3A7G6
//  Firmware Version: 4.6.0
//  Hardware Version: 2.0.0
// Device settings: 
//  Filter Profile: human(46.1)
//  Option Flags: Orientation Smoother Disabled, Position/Velocity Smoother Disabled, Continuous Zero Rotation Update Disabled, AHS Disabled, ICC Disabled
// Coordinate system: ENU
PacketCounter	Acc_X	Acc_Y	Acc_Z	FreeAcc_E	FreeAcc_N	FreeAcc_U	Roll	Pitch	Yaw	Vel_E	Vel_N	Vel_U
09830	9.419056	1.394961	-1.787264	-0.222306	-0.146256	-0.128265	135.886266	-75.913291	146.696372			
09831	9.412799	1.411988	-1.804937	-0.200109	-0.156273	-0.128276	135.987472	-75.903717	146.658594			
09832	9.472630	1.544449	-1.777859	-0.089827	-0.087728	-0.052510	136.073485	-75.894336	146.633085			
09833	9.410841	1.590222	-1.733528	-0.041675	-0.038719	-0.112449	136.166394	-75.884308	146.588403			
09834	9.510030	1.597554	-1.681187	-0.064537	0.030351	-0.024217	136.245415	-75.878613	146.552863			
09835	9.505805	1.606584	-1.625352	-0.065641	0.088668	-0.036644	136.308801	-75.873091	146.531046			
09836	9.534918	1.620870	-1.618483	-0.058411	0.104957	-0.007233	136.369411	-75.871148	146.513071			
09837	9.572797	1.536349	-1.663950	-0.136505	0.048857	0.023294	136.440631	-75.870619	146.492411			
09838	9.591570	1.656450	-1.676990	-0.020753	0.069315	0.064007	136.512742	-75.874808	146.477936			
09839	9.619146	1.677496	-1.742270	0.009678	0.017384	0.105834	136.591909	-75.881124	146.461077			
09840	9.605646	1.826159	-1.701346	0.149076	0.091704	0.110378	136.646261	-75.893497	146.472576			
09841	9.565276	1.956428	-1.799536	0.305370	0.022789	0.110351	136.658573	-75.913188	146.509400			
09842	9.511937	2.051610	-1.727918	0.395042	0.105424	0.061753	136.637979	-75.933883	146.573451			
09843	9.422217	2.081564	-1.687139	0.435878	0.137951	-0.027571	136.640879	-75.953917	146.617618			
09844	9.458087	2.186760	-1.724606	0.539778	0.131560	0.031241	136.678883	-75.965305	146.615115			
09845	9.549295	2.151696	-1.763346	0.498615	0.098741	0.120582	136.728205	-75.977938	146.593333			
09846	9.492438	2.180288	-1.569973	0.500148	0.284358	0.035858	136.787696	-76.000716	146.569945			
09847	9.369525	2.203041	-1.482949	0.532706	0.358847	-0.095281	136.913224	-76.014543	146.464598			
09848	9.525510	2.100352	-1.429454	0.396657	0.413274	0.029163	137.204924	-76.003400	146.181423			
09849	9.715736	1.953734	-1.154355	0.165820	0.677298	0.140146	137.465426	-76.012426	145.921757			
09850	9.755707	1.809923	-0.723388	-0.062867	1.067577	0.078179	137.663932	-76.047141	145.706842			
09851	9.799539	1.734134	-0.621247	-0.155802	1.159924	0.089556	137.980023	-76.060254	145.356622			
09852	9.875545	1.635254	-0.984033	-0.176791	0.808099	0.211507	138.367623	-76.086168	144.998519			
09853	9.863135	1.706835	-1.159655	-0.053643	0.663651	0.241972	138.732723	-76.147603	144.715547			
09854	9.983064	1.716627	-1.127490	-0.056589	0.717621	0.353993	139.045270	-76.231990	144.472549			
09855	10.002972	1.529713	-1.015833	-0.242938	0.779287	0.324622	139.221668	-76.358649	144.340367			
09856	9.752249	1.488067	-1.053230	-0.203163	0.687603	0.082556	139.285963	-76.526902	144.300028			
09857	9.619060	1.327624	-1.333329	-0.245069	0.348921	-0.020609	139.471782	-76.685233	144.130513			
09858	9.743621	0.948502	-1.627698	-0.539410	-0.018961	0.096693	139.750199	-76.846630	143.925582			
09859	9.684101	0.940734	-1.437870	-0.547655	0.144949	0.006337	140.065470	-77.021396	143.726817			
09860	9.731804	1.177669	-0.959844	-0.403416	0.656746	0.006785	140.295127	-77.233154	143.592204			
09861	9.562149	1.346965	-0.563883	-0.265371	1.033246	-0.198700	140.199811	-77.522226	143.742947			
09862	8.994693	1.553486	-0.674034	0.090172	0.871533	-0.702021	139.849813	-77.828639	144.135559			
09863	8.991987	1.634663	-0.949828	0.260257	0.590611	-0.646804	139.489425	-78.092648	144.569835			
09864	9.160290	1.507827	-1.109891	0.173083	0.391231	-0.472818	139.105853	-78.344241	145.061496			
09865	9.011382	1.474400	-1.372122	0.251687	0.083888	-0.582786	138.878549	-78.566374	145.399698			
09866	9.059058	1.662989	-1.536644	0.488583	-0.044833	-0.487853	138.763584	-78.772925	145.537080			
09867	8.829858	1.455100	-1.965743	0.452011	-0.554701	-0.678369	138.755373	-78.960881	145.542377			
09868	8.767072	1.504745	-2.081647	0.559941	-0.673704	-0.719195	138.882824	-79.106025	145.454317			
09869	8.796547	1.262064	-2.288674	0.391861	-0.936193	-0.692379	139.195665	-79.202054	145.223013			
09870	8.950123	1.197429	-2.067292	0.272651	-0.721578	-0.581371	139.636547	-79.276424	144.910674			
09871	8.910016	1.094536	-1.882501	0.153553	-0.567221	-0.659281	140.232980	-79.319593	144.422218			
09872	9.004375	0.903848	-1.978576	-0.004367	-0.684987	-0.574657	140.960758	-79.327608	143.782799			
09873	9.119771	0.712177	-2.087462	-0.164630	-0.807896	-0.466294	141.761727	-79.309677	143.106548			
09874	9.266769	0.707728	-1.971767	-0.206203	-0.659430	-0.337228	142.599498	-79.268398	142.454643			
09875	9.443059	0.695336	-1.997514	-0.225583	-0.642841	-0.159671	143.438466	-79.220987	141.835565			
09876	9.485120	0.769822	-1.675422	-0.229522	-0.286065	-0.156985	144.250900	-79.182633	141.308855			
09877	9.345392	1.034711	-1.384259	-0.019705	0.072694	-0.309140	145.110378	-79.133257	140.763309			
09878	9.302508	1.087930	-1.387735	0.048529	0.106799	-0.345258	146.054498	-79.071929	140.154058			
09879	9.236928	1.228435	-1.397963	0.205057	0.160456	-0.393754	147.064847	-79.002220	139.538400			
09880	9.129923	1.352338	-1.380775	0.343827	0.234244	-0.489724	148.126069	-78.917832	138.874696			
09881	8.920714	1.262898	-1.473518	0.324987	0.130238	-0.690045	149.217426	-78.821799	138.188824			
09882	8.959082	1.258371	-1.540217	0.342779	0.109746	-0.642561	150.284919	-78.699246	137.562141			
09883	9.096762	1.437901	-1.581115	0.509622	0.187014	-0.484036	151.265603	-78.559833	137.014208			
09884	9.103200	1.647750	-1.631956	0.723203	0.249042	-0.449920	152.099927	-78.412312	136.578405			
09885	9.117710	1.738750	-1.637682	0.805776	0.316415	-0.427148	152.832471	-78.247836	136.186902			
09886	9.273302	1.579907	-1.706239	0.649498	0.263084	-0.277999	153.536024	-78.060919	135.798358			
09887	9.494646	1.555234	-1.834231	0.626672	0.210692	-0.040575	154.218933	-77.866022	135.415264			
09888	9.542534	1.422095	-1.844686	0.491285	0.205178	-0.004448	154.887985	-77.678565	135.003751			
09889	9.560961	1.346589	-1.600970	0.331016	0.448726	-0.041438	155.511921	-77.484113	134.589499			
09890	9.684915	1.247205	-1.490316	0.173564	0.576021	0.046931	156.086403	-77.277133	134.148629			
09891	9.794742	1.042286	-1.597037	-0.008977	0.462581	0.155245	156.620002	-77.080817	133.691231			
09892	9.701216	0.959600	-1.508124	-0.109599	0.537069	0.036592	157.095999	-76.899612	133.227023			
09893	9.552627	0.604422	-1.433719	-0.450032	0.489188	-0.157034	157.492644	-76.722808	132.749856			
09894	9.578030	0.271095	-1.389442	-0.787315	0.448085	-0.173083	157.816698	-76.559031	132.303615			
09895	9.571144	0.099380	-1.197500	-1.017427	0.592394	-0.238529	158.068144	-76.406958	131.930213			
09896	9.535854	-0.141916	-1.255343	-1.227550	0.476258	-0.284059	158.259809	-76.250505	131.589779			
09897	9.663893	-0.413614	-1.552038	-1.418208	0.160133	-0.120749	158.400278	-76.082181	131.275459			
09898	9.697377	-0.709650	-1.814677	-1.631524	-0.147247	-0.058093	158.545208	-75.901850	130.971385			
09899	9.770504	-0.694826	-1.978494	-1.594699	-0.246470	0.049159	158.710923	-75.700481	130.675740			
09900	9.802891	-0.588662	-1.880576	-1.548558	-0.079565	0.065333	158.898865	-75.496513	130.399416			
09901	9.776374	-0.270481	-1.712472	-1.315272	0.212156	0.026426	159.080604	-75.292917	130.153930			
09902	9.547865	0.097833	-1.527805	-1.006091	0.494699	-0.208082	159.232345	-75.093683	129.923685			
09903	9.353763	0.515767	-1.335024	-0.657988	0.806002	-0.407450	159.353356	-74.884060	129.692534			
09904	9.305293	0.853679	-1.283110	-0.365774	0.988276	-0.439693	159.425474	-74.665918	129.439428			
09905	9.265973	0.897796	-1.339582	-0.318864	0.973835	-0.463429	159.443625	-74.435199	129.174133			
09906	9.208044	0.806059	-1.354555	-0.409922	0.947811	-0.527961	159.406303	-74.211659	128.923862			
09907	9.266015	0.658575	-1.632999	-0.498050	0.683457	-0.418851	159.284010	-73.998871	128.710341			
09908	9.014058	0.338691	-2.314381	-0.586860	-0.073333	-0.518906	159.152827	-73.757767	128.494644			
09909	9.603787	0.135437	-2.942063	-0.739694	-0.548982	0.190210	159.134991	-73.440078	128.169314			
09910	10.282297	-0.084583	-2.538514	-1.211499	-0.042650	0.709051	159.240580	-73.141430	127.848275			
09911	10.135035	0.175351	-1.395881	-1.271266	1.108291	0.279563	159.434415	-72.867415	127.539757			
09912	9.872388	0.247470	-0.813037	-1.328474	1.651441	-0.133119	159.567470	-72.616858	127.238669			
09913	9.490463	0.167999	-0.674979	-1.385726	1.704087	-0.553723	159.678859	-72.378327	126.959721			
09914	9.317952	0.307310	-0.794440	-1.204723	1.630426	-0.678135	159.750230	-72.150774	126.696731			
09915	9.236322	0.238166	-1.460002	-1.100478	1.011482	-0.578854	159.789613	-71.911470	126.440074			
09916	9.325081	0.227294	-2.057853	-0.995491	0.516274	-0.326600	159.856962	-71.658399	126.202034			
09917	9.493612	0.342459	-2.086899	-0.930119	0.605516	-0.149916	159.971818	-71.400840	125.981309			
09918	9.690339	0.544619	-1.811604	-0.861520	1.008944	-0.028985	160.088507	-71.145367	125.782507			
09919	9.777604	0.878871	-1.602349	-0.629508	1.360344	0.020649	160.187020	-70.900689	125.596302			
09920	9.840670	1.143875	-1.381815	-0.458813	1.692707	0.035194	160.290562	-70.680553	125.407674			
09921	9.702179	1.420435	-1.123943	-0.244288	2.004283	-0.151619	160.368297	-70.481742	125.227766			
09922	9.439831	1.510285	-1.125393	-0.119152	1.986158	-0.394684	160.426411	-70.287206	125.025240			
09923	9.320590	1.434384	-1.456874	-0.102576	1.655910	-0.415843	160.447169	-70.080140	124.822915			
09924	9.286924	1.348655	-1.681068	-0.139979	1.446153	-0.390333	160.465203	-69.862471	124.626926			
09925	9.329471	1.347472	-1.923718	-0.111175	1.266768	-0.276534	160.445210	-69.622129	124.425678			
09926	9.520851	1.188664	-1.992252	-0.304953	1.248660	-0.097941	160.389836	-69.374818	124.229298			
09927	9.503070	0.969576	-1.689478	-0.597141	1.495948	-0.246696	160.325370	-69.135980	124.055024			
09928	9.510787	0.813215	-1.353010	-0.838563	1.798683	-0.378259	160.248605	-68.897993	123.869378			
09929	9.468698	0.591982	-1.295334	-1.071331	1.814273	-0.472177	160.146026	-68.668656	123.691045			
09930	9.584277	0.503649	-1.315617	-1.192442	1.841225	-0.377078	160.042958	-68.435921	123.512330			
09931	9.724227	0.504799	-1.584351	-1.185595	1.672216	-0.162635	159.909277	-68.201420	123.354471			
09932	9.900685	0.627426	-1.841527	-1.075954	1.555823	0.098420	159.759391	-67.965183	123.206723			
09933	10.087358	0.619371	-1.981968	-1.118799	1.517937	0.312066	159.615436	-67.734708	123.069656			
09934	10.130364	0.708164	-1.752011	-1.105330	1.795073	0.274491	159.469130	-67.537391	122.962979			
09935	10.103770	0.687447	-1.446232	-1.191476	2.088643	0.130562	159.316283	-67.365736	122.859704			
09936	10.196833	0.497182	-1.130606	-1.462289	2.385051	0.070332	159.159745	-67.235986	122.796942			
09937	10.322469	0.261985	-1.078918	-1.734629	2.431853	0.130311	158.984847	-67.176741	122.810595			
09938	10.330033	0.118238	-0.654011	-1.953001	2.788424	-0.037118	158.725304	-67.215068	122.979053			
09939	10.385879	0.381346	-0.144713	-1.802684	3.322113	-0.130398	158.389355	-67.237541	123.165138			
09940	10.851722	0.338356	-0.132945	-1.952363	3.467225	0.289721	157.965409	-67.220180	123.234617			
09941	11.470360	-0.224535	-0.807523	-2.531968	2.923675	1.018421	157.474540	-67.193191	123.285668			
09942	11.523636	-0.558270	-1.004089	-2.847127	2.685480	1.086675	156.983821	-67.238683	123.376207			
09943	12.140807	-0.508756	-0.841830	-2.961648	3.035638	1.605729	156.484019	-67.283530	123.472719			
09944	12.719647	-0.551468	-0.644649	-3.157553	3.381290	2.066110	155.978576	-67.378289	123.589912			
09945	12.607380	-0.643403	-0.296473	-3.265483	3.625122	1.833896	155.512207	-67.541009	123.744359			
09946	12.645197	-0.314383	0.282712	-3.017575	4.200057	1.734319	155.089808	-67.743020	123.941591			
09947	13.046398	-0.081592	0.627112	-2.905902	4.644166	2.044615	154.593216	-67.974700	124.167172			
09948	13.356399	0.225936	0.568286	-2.651133	4.678762	2.428535	153.989974	-68.289654	124.517541			
09949	13.655699	0.772432	0.390770	-2.147346	4.613603	2.888891	153.245957	-68.679084	124.998987			
09950	13.836526	1.185020	-0.019266	-1.722687	4.240049	3.298642	152.314309	-69.150616	125.635989			
09951	13.782919	1.376179	-0.594106	-1.450321	3.576149	3.503520	151.177751	-69.689761	126.457174			
09952	13.399596	2.328720	-0.995603	-0.390411	3.073745	3.467381	149.874831	-70.324068	127.558745			
09953	12.726672	3.381159	-0.266751	0.717974	3.551688	2.849754	148.278671	-71.146881	129.048415			
09954	11.267714	4.249970	0.698081	1.791529	4.011673	1.421304	146.155342	-72.167872	131.065135			
09955	10.441327	4.908608	1.049757	2.587557	4.011396	0.743118	143.322129	-73.258253	133.818331			
09956	10.002892	5.248105	1.888588	2.940966	4.525432	0.288392	139.887183	-74.408752	137.184192			
09957	9.791288	4.336625	0.983580	2.218581	3.217324	0.205462	136.067713	-75.508565	140.666861			
09958	10.070128	2.988410	-0.556585	1.049121	1.299116	0.572502	131.479831	-76.635302	144.668005			
09959	10.104221	2.730306	-1.040020	0.890569	0.497653	0.655477	126.022712	-77.774942	149.326072			
09960	10.222790	2.004520	-1.225247	0.232558	-0.045016	0.673568	120.057272	-78.793505	154.355906			
09961	10.632683	1.850590	-2.173645	0.119545	-1.236790	1.125949	114.052811	-79.561065	159.404252			
09962	10.804603	2.267076	-3.017766	0.570286	-2.292429	1.385534	107.898714	-80.204390	164.534763			
09963	11.038008	1.484023	-4.426339	-0.176156	-3.968941	1.494098	100.984976	-80.794617	170.468714			
09964	10.651732	0.892654	-4.431644	-0.687486	-4.231407	0.935041	93.559065	-81.225043	177.294547			
09965	10.677602	1.550560	-3.312037	-0.030932	-3.321018	0.973896	85.726956	-81.474250	-175.259573			
09966	10.765499	1.306813	-2.804084	-0.252365	-3.033281	0.966827	77.757452	-81.592460	-167.644737			
09967	11.086404	0.801501	-2.631161	-0.753686	-3.087512	1.158567	69.407676	-81.585181	-159.643950			
09968	10.593360	0.288267	-3.172324	-1.145575	-3.814362	0.507200	61.219125	-81.397337	-151.716912			
09969	10.315617	0.265474	-3.091481	-1.082965	-3.915097	0.164042	53.834449	-81.075309	-144.513874			
09970	10.116202	-0.061334	-3.067115	-1.329717	-4.057055	-0.142261	47.142435	-80.640725	-137.916424			
09971	9.779062	-0.435918	-2.949521	-1.602549	-4.072589	-0.573499	41.405888	-80.148541	-132.149273			
09972	9.623340	-0.801045	-2.341890	-1.880936	-3.607202	-0.747242	36.381964	-79.613187	-127.023125			
09973	9.461448	-1.150632	-1.838764	-2.145100	-3.231445	-0.914477	32.148467	-79.082579	-122.669428			
09974	9.264390	-1.065859	-1.591368	-1.978920	-3.091986	-1.093784	28.668625	-78.579949	-119.063723			
09975	9.372180	-1.852217	-1.601991	-2.708050	-3.243748	-1.096198	25.559007	-77.990046	-115.577891			
09976	8.573239	-1.717186	-1.655239	-2.433786	-3.284228	-1.908404	23.361049	-77.409497	-112.737803			
09977	8.225416	-1.051122	-1.579800	-1.678431	-3.256098	-2.207594	21.831340	-76.881874	-110.435777			
09978	7.997471	-0.866658	-1.474485	-1.416492	-3.202830	-2.422221	20.629206	-76.379699	-108.332217			
09979	7.607980	-0.325540	-1.555805	-0.780023	-3.265945	-2.803259	19.777198	-75.886704	-106.464472			
09980	7.179270	0.092768	-1.910371	-0.241557	-3.558436	-3.295138	19.240552	-75.442944	-104.787564			
09981	6.941220	0.794301	-1.622155	0.514131	-3.219646	-3.424266	18.934819	-75.061216	-103.348067			
09982	6.696565	0.973731	-1.637579	0.768987	-3.182587	-3.668318	18.776386	-74.769683	-102.095861			
09983	6.678377	1.835523	-1.355415	1.640904	-2.820797	-3.555102	18.848791	-74.549435	-101.106458			
09984	6.712591	2.471611	-1.310230	2.306668	-2.692951	-3.463552	18.883988	-74.374229	-100.094734			
09985	6.581742	3.190566	-0.855468	2.987273	-2.095095	-3.416011	18.889457	-74.232330	-99.174504			
09986	6.419438	3.670866	-0.463230	3.425346	-1.567816	-3.432419	18.792097	-74.176587	-98.323295			
09987	6.352452	4.070431	-0.076874	3.768163	-1.076453	-3.365208	18.553146	-74.241542	-97.582933			
09988	6.291200	4.239549	0.089016	3.922438	-0.839888	-3.372977	18.070687	-74.364769	-96.911108			
09989	5.971315	3.650123	-0.115298	3.414980	-1.031625	-3.790488	17.485433	-74.560484	-96.314202			
09990	5.795159	3.334508	-0.115139	3.127767	-1.019807	-3.990912	17.041566	-74.835465	-95.910637			
09991	5.921436	3.214097	0.337476	2.930412	-0.612005	-3.767385	16.768487	-75.238945	-95.641724			
09992	6.466558	2.960829	0.636780	2.620291	-0.469194	-3.186819	16.599881	-75.654887	-95.537824			
09993	6.710488	2.374146	1.264579	1.923021	0.011247	-2.843614	16.683887	-76.135897	-95.687989			
09994	7.279823	1.736767	1.792370	1.181731	0.325500	-2.215193	17.075433	-76.666598	-96.150303			
09995	7.796385	1.264003	2.227088	0.613456	0.610389	-1.652306	17.742647	-77.202316	-96.891197			
09996	8.532990	0.626264	2.459527	-0.090649	0.638613	-0.933685	18.612645	-77.750689	-97.823541			
09997	9.651202	-0.233089	2.814348	-1.055499	0.677628	0.164618	19.669142	-78.228054	-98.821115			
09998	10.695220	-1.163451	3.383355	-2.146487	0.917988	1.220801	21.025825	-78.551162	-99.790028			
09999	11.574015	-0.899689	4.574584	-2.225286	1.975357	2.305042	22.781305	-78.688864	-100.680457			
10000	12.305597	-0.399450	5.471529	-2.063815	2.787021	3.206404	24.296899	-78.692797	-100.990367			
10001	12.737052	-0.123585	6.326422	-2.141429	3.537825	3.794944	25.287545	-78.622088	-100.545512			
10002	12.967755	-0.051181	7.521372	-2.525126	4.566106	4.241080	25.611740	-78.472533	-99.396689			
10003	12.628476	-0.018558	9.399369	-3.141160	6.296104	4.269798	25.066911	-78.220427	-97.631666			
10004	11.744002	0.045522	10.772075	-3.544387	7.654377	3.707954	23.659180	-77.953166	-95.575789			
10005	10.917065	-0.200673	9.871482	-3.469858	6.836756	2.752626	22.086848	-77.833693	-93.875241			
10006	10.443462	0.231892	7.956679	-2.387680	5.268492	1.975861	20.594158	-77.833730	-92.547237			
10007	9.664771	0.284595	6.354271	-1.750128	3.965880	0.914555	18.970410	-77.856155	-91.307763			
10008	8.753772	0.555291	5.285434	-1.073548	3.251611	-0.161443	17.162208	-77.851883	-90.008195			
10009	7.633343	0.317722	3.937264	-0.819901	2.169159	-1.536642	15.243828	-77.881924	-88.594413			
10010	7.222760	0.027690	2.445835	-0.610345	0.794029	-2.253065	13.547383	-78.015617	-87.243428			
10011	7.388660	0.125032	0.956041	-0.056107	-0.582586	-2.384419	12.110023	-78.273810	-85.979993			
10012	7.907895	0.351997	-0.862031	0.703154	-2.289430	-2.218904	10.963933	-78.677132	-84.816511			
10013	9.166605	0.574940	-2.400211	1.391760	-3.851829	-1.248584	10.458289	-79.192353	-84.029328			
10014	10.136036	0.251386	-4.523757	1.743223	-6.019416	-0.647940	10.624943	-79.819367	-83.418870			
10015	10.881101	0.331228	-6.176298	2.422355	-7.541560	-0.122093	11.728310	-80.413386	-83.125322			
10016	12.056035	1.850396	-5.508747	3.791215	-6.449949	1.284069	14.576315	-80.957699	-84.201401			
10017	14.809274	4.430370	-2.914195	5.352354	-3.350893	4.593965	19.195369	-81.507031	-87.257178			
10018	17.390004	5.687455	1.365935	4.770609	0.884917	7.881251	24.153214	-81.823769	-91.071612			
10019	17.537260	6.265310	6.114304	3.185880	5.514622	8.724503	28.218530	-81.717919	-94.300032			
10020	15.083506	7.022925	9.244800	2.392879	8.955272	6.811739	30.225107	-81.188393	-95.545944			
10021	9.795688	6.401248	9.362539	1.671385	9.517060	1.642337	30.420863	-80.688730	-94.887222			
10022	5.203331	4.689067	6.051347	1.491212	6.548154	-3.442612	30.385856	-80.569178	-93.953747			
10023	2.897018	3.768876	0.906186	2.924472	2.003535	-6.518544	30.363055	-80.780917	-93.219995			
10024	1.470709	3.865241	-4.442746	5.450279	-2.408197	-8.656796	29.700028	-81.346299	-92.829935			
10025	0.066614	3.949901	-11.322984	8.500999	-8.393836	-10.849573	29.376077	-82.615894	-94.468293			
10026	1.924303	2.930382	-18.280608	9.985279	-15.702108	-9.469339	33.484763	-84.643969	-101.199254			
10027	8.900022	1.349069	-15.342850	6.658154	-14.435749	-1.833355	44.681355	-86.206205	-114.195235			
10028	12.359104	-1.185757	-5.057386	0.256995	-5.788871	2.276466	58.467723	-86.837485	-128.555107			
10029	12.810058	-3.408955	2.288884	-4.443610	0.502157	2.874247	68.787109	-87.147692	-138.740865			
10030	13.258625	-5.812003	5.024932	-7.696381	2.335009	3.230821	78.363583	-87.301455	-148.095481			
10031	13.300322	-6.610597	4.487846	-8.325385	1.603750	3.181709	88.170450	-87.171984	-157.478225			
10032	13.218728	-4.419303	3.171249	-5.892624	1.148221	3.159580	92.729035	-86.922580	-161.556176			
10033	11.318856	-3.424775	1.709732	-4.402209	0.164851	1.294157	94.876248	-86.751596	-163.488408			
10034	9.630421	-3.071077	-0.754422	-3.128158	-1.954191	-0.371233	100.856903	-86.508268	-169.399418			
10035	9.093753	-1.815403	-3.176818	-1.104359	-3.684044	-0.796508	108.919033	-86.160234	-177.535196			
10036	8.766544	-0.743821	-4.306882	0.266307	-4.267052	-0.999329	116.394944	-85.908168	174.872643			
10037	8.064179	-0.511854	-3.709640	0.278910	-3.548748	-1.665158	123.969316	-85.636018	167.300060			
10038	8.237343	0.847956	-2.943939	1.229719	-2.246696	-1.405617	130.895669	-85.247106	160.691484			
10039	8.516115	2.401035	-1.599526	2.130289	-0.311924	-1.082789	136.285234	-84.816994	155.873234			
10040	9.040943	3.638158	-0.482062	2.770936	1.322277	-0.550970	140.377929	-84.389719	152.412147			
10041	9.118702	4.323872	0.224460	3.074531	2.351308	-0.489891	143.730453	-83.974228	149.459575			
10042	8.953061	4.190783	0.222744	2.927515	2.380397	-0.673088	146.769406	-83.512172	146.416729			
10043	8.985926	3.634233	-0.162508	2.531938	1.885555	-0.646750	149.181973	-82.987105	143.668318			
10044	8.800465	3.108580	-0.480833	2.156829	1.438889	-0.833826	150.896340	-82.437681	141.421664			
10045	8.648646	2.702570	-1.044049	1.969685	0.810117	-0.943830	152.189654	-81.837440	139.422636			
10046	8.549316	1.947469	-2.183556	1.639024	-0.471291	-0.939013	153.435031	-81.177528	137.400423			
10047	8.818893	0.974984	-3.084204	0.943204	-1.551489	-0.596517	154.530242	-80.472154	135.578725			
10048	9.155192	0.094743	-3.259966	0.058253	-1.889550	-0.279655	155.487657	-79.788635	134.067608			
10049	9.363592	-0.318250	-2.562863	-0.653357	-1.253826	-0.202991	156.298509	-79.149668	132.843997			
10050	9.862823	-0.872554	-2.304463	-1.379301	-1.028920	0.206542	157.081906	-78.578207	131.743807			
10051	9.801109	-1.318422	-0.698361	-2.335201	0.408948	-0.186345	157.794236	-78.061851	130.824254			
10052	10.349508	-1.389356	-0.450024	-2.592348	0.801910	0.280908	158.426651	-77.487994	129.877060			
10053	10.603582	-2.031920	-0.633223	-3.219361	0.572473	0.496171	159.045488	-76.970157	128.998350			
10054	10.560825	-1.769841	-0.497363	-3.040746	0.868908	0.429816	159.589022	-76.502650	128.347934			
10055	10.238609	-0.909725	-0.320666	-2.263209	1.329212	0.130652	160.105536	-76.048857	127.698092			
10056	9.841656	-0.533644	-0.645565	-1.782477	1.149953	-0.165953	160.592606	-75.588902	127.004015			
10057	9.584535	-0.173029	-0.878826	-1.363878	1.074774	-0.344337	161.050760	-75.103395	126.357803			
10058	9.396799	0.408828	-1.105422	-0.750034	1.084487	-0.434541	161.465538	-74.600566	125.785683			
10059	9.278319	0.984248	-1.286180	-0.167359	1.146374	-0.465634	161.860804	-74.086466	125.267870			
10060	9.184643	1.604543	-1.301515	0.407897	1.378440	-0.508975	162.224206	-73.561520	124.811746			
10061	9.416668	1.982318	-1.225497	0.675084	1.696806	-0.285383	162.564701	-73.030060	124.373685			
10062	9.617818	2.045077	-1.006894	0.610619	2.045492	-0.161725	162.878392	-72.518989	123.961346			
10063	9.747912	2.002636	-0.601616	0.411238	2.515048	-0.174267	163.146499	-72.032648	123.571615			
10064	9.899671	1.726049	-0.084315	-0.038399	3.019210	-0.227687	163.359119	-71.570288	123.176941			
10065	9.818608	1.211488	0.327092	-0.639662	3.291040	-0.499300	163.537119	-71.141390	122.778101			
10066	10.012562	0.681598	0.771030	-1.304905	3.661143	-0.528116	163.626631	-70.724563	122.385859			
10067	10.403742	-0.057934	0.725577	-2.079376	3.583621	-0.241846	163.616115	-70.323070	121.992757			
10068	10.697332	-0.721054	0.395869	-2.697769	3.247139	0.050741	163.514646	-69.972859	121.672109			
10069	10.907187	-0.715712	0.148768	-2.686963	3.146555	0.305622	163.306336	-69.678144	121.432272			
10070	11.015927	-0.745199	0.084955	-2.731786	3.165059	0.406545	163.048376	-69.457417	121.206071			
10071	11.071754	-0.846115	0.096677	-2.846764	3.206704	0.430451	162.793601	-69.323349	121.021801			
10072	11.179186	-0.755151	0.247023	-2.808883	3.421477	0.483386	162.610551	-69.309252	120.929920			
10073	11.264708	-0.365491	0.600369	-2.514482	3.868807	0.487670	162.381571	-69.393315	120.945428			
10074	11.456334	-0.437589	0.374184	-2.565040	3.684524	0.743064	162.038847	-69.515834	121.026159			
10075	11.450377	-0.195474	0.034265	-2.257888	3.407299	0.885104	161.556407	-69.634038	121.134991			
10076	11.644840	-0.056899	-0.293747	-2.091932	3.170537	1.199273	161.003036	-69.770404	121.234998			
10077	11.989392	0.174829	-0.463805	-1.892827	3.138912	1.613403	160.408268	-69.924921	121.321728			
10078	12.856995	0.657982	-0.516544	-1.563594	3.413406	2.512318	159.750205	-70.091978	121.449556			
10079	12.895144	0.557954	-0.547334	-1.652435	3.328425	2.560123	159.149447	-70.311168	121.563683			
10080	12.764165	0.375342	-0.127233	-1.858761	3.593503	2.299803	158.546923	-70.562806	121.768554			
10081	12.884763	0.832632	0.184334	-1.470313	3.950206	2.392969	157.860451	-70.821441	122.106610			
10082	13.426510	1.840339	0.013642	-0.551474	4.053060	3.107297	156.951862	-71.143007	122.651822			
10083	14.081903	2.345031	0.665492	-0.253956	4.821924	3.638136	155.750805	-71.629358	123.417522			
10084	14.316695	1.845054	1.817928	-0.907067	5.724834	3.531858	154.246155	-72.300417	124.413741			
10085	14.579056	1.847467	1.061596	-0.819707	4.860494	4.072102	152.261496	-73.105442	125.917833			
10086	13.327373	2.393526	0.131506	0.065015	3.502604	3.267287	149.697115	-74.088722	128.055313			
10087	11.905868	2.693212	-0.383813	0.682247	2.456136	2.130707	146.523206	-75.216671	130.814563			
10088	10.726049	3.418205	-0.740795	1.656746	1.690226	1.217821	142.801829	-76.389742	134.214843			
10089	10.657558	4.866341	-0.897346	3.133616	1.423378	1.421933	138.356764	-77.529723	138.421922			
10090	11.260167	5.718146	-0.578071	3.874627	1.607882	2.112687	132.896129	-78.670765	143.559531			
10091	11.548969	5.444596	-0.801853	3.632007	1.029664	2.410316	126.399334	-79.739858	149.472523			
10092	11.411400	4.025194	-2.132457	2.434672	-0.812809	2.202770	119.283410	-80.682987	155.821156			
10093	11.311432	3.004441	-2.278728	1.504727	-1.386536	1.933494	111.589193	-81.496724	162.601885			
10094	11.304950	1.923230	-2.533470	0.502834	-2.007504	1.747170	103.824535	-82.205656	169.171380			
10095	11.258698	0.351938	-3.267348	-0.971690	-3.059268	1.467849	95.424308	-82.860363	176.203933			
10096	10.384673	-0.773464	-2.752975	-1.963114	-2.768530	0.409724	85.944329	-83.364156	-175.629851			
10097	10.383110	-1.016280	-2.925823	-2.179832	-3.095511	0.339477	76.090910	-83.624200	-166.927913			
10098	10.229623	-1.029333	-4.161431	-2.177252	-4.478377	0.098091	66.160816	-83.651127	-157.677916			
10099	10.134025	-0.120356	-3.996429	-1.234128	-4.501888	0.030641	56.378351	-83.464060	-148.207535			
10100	9.957328	-0.511132	-4.300612	-1.560080	-4.963616	-0.282229	46.988222	-83.091113	-138.738177			
10101	9.502751	-0.331960	-3.313514	-1.240292	-4.135753	-0.716242	39.301234	-82.502013	-130.645609			
10102	9.451159	0.000418	-2.217557	-0.808223	-3.232319	-0.694716	32.849056	-81.800500	-123.724651			
10103	9.170235	-0.260296	-1.772797	-0.969778	-2.921519	-0.990817	27.519992	-81.122256	-118.102220			
10104	9.353098	-0.877544	-1.350155	-1.527687	-2.675221	-0.836033	23.001827	-80.425975	-113.352643			
10105	9.328084	-0.915757	-1.067304	-1.500117	-2.545914	-0.854087	19.386813	-79.660927	-109.519616			
10106	9.025891	-1.448276	-1.489497	-1.952971	-3.057365	-1.291006	16.383884	-78.878591	-106.272914			
10107	8.192412	-1.230658	-1.441773	-1.636330	-2.992745	-2.126784	14.270394	-78.114826	-103.773338			
10108	7.839501	-1.051511	-1.932288	-1.380489	-3.518392	-2.600820	12.644648	-77.428056	-101.663724			
10109	7.438111	-1.190330	-2.118999	-1.439111	-3.719579	-3.080307	11.470644	-76.771913	-99.813900			
10110	7.060687	-0.451411	-1.910974	-0.634951	-3.505013	-3.408027	10.899545	-76.136108	-98.418008			
10111	6.752145	0.093501	-2.048108	-0.020132	-3.615399	-3.752753	10.633224	-75.571572	-97.309001			
10112	6.625862	0.448146	-2.017289	0.388447	-3.587825	-3.884070	10.531611	-75.093556	-96.316057			
10113	6.445670	0.686980	-2.087942	0.687941	-3.630122	-4.091959	10.637170	-74.686719	-95.531418			
10114	6.363068	1.222486	-1.809003	1.242682	-3.316789	-4.093415	10.887517	-74.371272	-94.897053			
10115	6.277089	1.746297	-1.599358	1.778871	-3.046957	-4.106469	11.143739	-74.143109	-94.392848			
10116	6.263898	1.945804	-1.391004	1.981103	-2.817121	-4.059735	11.287396	-74.009453	-93.889113			
10117	6.172595	2.089003	-1.216276	2.126477	-2.595653	-4.095625	11.402926	-73.944911	-93.415241			
10118	5.947061	2.455563	-1.040663	2.488864	-2.298200	-4.244558	11.579401	-73.937400	-93.013013			
10119	5.618002	3.217178	-0.773291	3.219759	-1.814610	-4.441433	11.881162	-74.016691	-92.774004			
10120	5.187112	3.567126	-0.901115	3.600904	-1.724126	-4.862614	12.121187	-74.169222	-92.517348			
10121	4.676051	3.847901	-1.023729	3.911916	-1.610735	-5.360491	12.443563	-74.418962	-92.418926			
10122	4.349880	3.878895	-1.335369	4.005344	-1.765634	-5.739602	12.850100	-74.783569	-92.488691			
10123	4.475962	3.748170	-1.280893	3.865794	-1.719993	-5.591229	13.396383	-75.271859	-92.813203			
10124	5.040251	3.208791	-0.765096	3.227320	-1.414250	-4.927012	14.031035	-75.895296	-93.375142			
10125	5.859573	2.514536	0.152285	2.349104	-0.796490	-3.936678	14.877560	-76.662794	-94.334560			
10126	7.237510	1.415808	1.103005	1.049093	-0.304086	-2.436473	16.018465	-77.548030	-95.717733			
10127	9.460262	0.000427	2.182190	-0.611202	0.146576	-0.124481	17.287176	-78.429326	-97.252071			
10128	11.864946	-2.013645	4.051552	-3.010615	1.296776	2.455110	18.532136	-79.160244	-98.610030			
10129	14.902063	-3.555513	6.790144	-5.153079	3.250918	5.798048	20.344865	-79.516157	-100.033443			
10130	17.676910	-3.114130	9.942943	-5.573120	5.845644	9.049782	22.684982	-79.384319	-100.918561			
10131	18.941024	0.295160	13.200407	-3.430839	9.199077	11.083800	25.681077	-78.841214	-101.290714			
10132	18.194286	4.965832	15.739583	-0.300329	12.581611	11.281451	28.217312	-77.973715	-100.806975			
10133	14.772513	7.427318	17.318202	0.953120	15.155300	8.698784	27.839295	-76.833144	-98.321118			
10134	9.314284	4.220969	16.078478	-1.792202	13.922739	3.072368	25.318484	-75.907752	-95.176497			
10135	7.489380	1.959410	11.488981	-2.278426	9.280055	0.218022	23.827860	-75.598574	-93.767847			
10136	7.740353	3.614063	7.438038	0.739011	6.051467	-0.266378	22.975969	-75.703895	-93.331569			
10137	7.316405	4.244680	3.865611	2.628187	3.101472	-1.448309	21.629756	-75.926490	-92.741077			
10138	6.106631	3.452250	-0.540604	3.386142	-0.910170	-3.712958	19.967867	-76.108231	-91.761321			
10139	6.794792	2.203320	-3.819634	3.246073	-4.482630	-3.898093	18.397383	-76.384823	-90.550483			
10140	9.595422	0.902637	-5.084042	2.422166	-6.660600	-1.536023	17.039718	-76.833501	-89.185195			
10141	11.361908	0.345304	-5.216058	1.986642	-7.268433	0.169358	15.432478	-77.414868	-87.713111			
10142	11.682836	-0.555934	-6.247545	1.468324	-8.451400	0.298940	13.078639	-78.197582	-85.943243			
10143	13.098282	-2.949768	-8.899061	-0.036141	-11.750788	1.204125	10.416777	-79.172919	-83.880079			
10144	14.734298	-4.242135	-6.920010	-1.829294	-10.351140	3.320592	10.353627	-80.117147	-83.849168			
10145	16.980082	-1.975134	-0.954319	-1.387008	-4.283387	6.705795	14.430695	-80.730323	-87.079650			
10146	19.176453	1.315723	6.496976	-0.705005	3.376843	10.181460	19.170356	-80.544805	-89.998420			
10147	17.235361	4.860990	11.755972	0.471177	9.511891	9.374667	21.481949	-79.371884	-89.966962			
10148	6.799778	5.882809	9.711110	1.765749	9.676067	-0.958684	20.575597	-78.064193	-87.151081			
10149	-0.969563	4.246792	-0.322825	3.999310	1.607415	-10.520208	19.913934	-78.073232	-85.330093			
10150	-4.627497	6.793422	-13.135247	11.528612	-8.048769	-16.324316	19.674479	-79.290083	-85.391338			
10151	-5.079311	7.179026	-18.366777	13.813271	-12.915375	-17.362647	21.011590	-80.807517	-88.564235			
10152	6.254396	5.611363	-14.174754	10.431311	-11.875830	-5.160461	26.458940	-82.774354	-95.506735			
10153	17.232188	2.669503	-4.164948	3.657811	-4.875153	7.047166	32.934427	-84.263144	-103.051195			
10154	15.830225	-2.165554	0.377881	-2.519120	-1.794353	5.867157	34.805965	-85.118533	-105.130622			
10155	12.648405	-4.613414	1.684161	-5.183589	-0.941366	2.691116	36.436454	-85.753172	-106.532909			
10156	11.205767	-5.009907	1.261957	-5.391453	-1.245760	1.216356	42.968488	-86.409963	-112.826363			
10157	11.022537	-3.460604	0.136881	-3.591658	-1.622179	1.048128	54.155441	-86.944825	-123.969076			
10158	9.531848	-2.498256	-0.601549	-2.444660	-1.783695	-0.415888	66.935792	-87.295019	-136.996121			
10159	8.230726	-1.772551	-1.946305	-1.321868	-2.640192	-1.691398	83.974173	-87.413048	-154.570114			
10160	7.974828	-1.065889	-3.571423	-0.198632	-3.818523	-1.883875	103.457129	-87.194938	-174.781350			
10161	8.869524	-1.097335	-4.501894	-0.093509	-4.588036	-0.920130	119.294327	-86.699693	168.689244			
10162	9.219558	-0.972659	-3.716307	-0.343540	-3.664425	-0.527813	129.690459	-86.074929	157.979846			
10163	9.219526	0.226838	-2.288749	0.292820	-1.813225	-0.489898	136.454730	-85.405783	151.369743			
10164	9.339124	1.975635	-0.970934	1.484562	0.102167	-0.333806	140.799582	-84.752147	147.508807			
10165	9.433614	3.350058	0.297890	2.318932	1.858332	-0.248565	143.669575	-84.210653	145.200426			
10166	9.170901	3.804086	1.752295	2.242864	3.460649	-0.612706	145.864002	-83.744371	143.268408			
10167	9.020691	3.328778	2.252265	1.608853	3.845488	-0.860060	148.283402	-83.212621	140.589629			
10168	9.157040	1.988328	1.377257	0.597359	2.681014	-0.748685	150.911583	-82.586206	137.243117			
10169	9.434373	0.653630	-0.327295	-0.189574	0.782103	-0.384386	153.243282	-81.903760	133.913551			
10170	9.782055	-0.424077	-2.248184	-0.746011	-1.199945	0.133387	155.052614	-81.198642	131.026408			
10171	10.508935	-1.275625	-3.245833	-1.437894	-2.171143	0.949144	156.372511	-80.589901	128.918232			
10172	10.402730	-0.799538	-1.463542	-1.482071	-0.236361	0.615379	157.286372	-80.060932	127.577380			
10173	10.642190	-0.460245	-0.280159	-1.502438	1.117524	0.677283	158.321898	-79.591782	126.171189			
10174	10.428239	-0.988000	0.896730	-2.284401	2.165867	0.218185	159.169814	-79.214623	125.081642			
10175	9.923264	-0.588832	1.892999	-2.087154	3.219240	-0.448871	159.835384	-78.802726	124.171620			
10176	9.881189	-0.661288	1.614346	-2.094487	3.010180	-0.472852	160.466355	-78.337651	123.196658			
10177	9.677521	-0.913506	0.476079	-2.071559	1.917185	-0.498837	160.972617	-77.828266	122.324889			
10178	9.494552	-0.563327	-0.620099	-1.495071	1.011388	-0.453763	161.345274	-77.295183	121.600697			
10179	9.420193	-0.177242	-1.725230	-0.911699	0.122005	-0.278488	161.588379	-76.739335	120.910205			
10180	9.597106	-0.332336	-2.723741	-0.923757	-0.739325	0.098559	161.768450	-76.197072	120.226737			
10181	9.679117	-0.615526	-3.000220	-1.199359	-0.959087	0.222574	161.981716	-75.720137	119.698202			
10182	9.639432	-0.428305	-2.397467	-1.155731	-0.278831	0.058284	162.282786	-75.332117	119.365363			
10183	9.525289	0.136655	-1.565658	-0.764556	0.668145	-0.212175	162.668398	-74.991510	119.096361			
10184	9.460743	0.693446	-0.983299	-0.337386	1.382054	-0.382459	163.092122	-74.655191	118.783201			
10185	9.293037	1.101655	-1.041661	0.079949	1.433752	-0.506942	163.488452	-74.294541	118.355875			
10186	9.046075	1.250221	-1.326633	0.298543	1.195970	-0.667486	163.839063	-73.922520	117.866198			
10187	8.885041	1.514837	-1.238550	0.548924	1.355306	-0.833032	164.124730	-73.519734	117.348637			
10188	8.849397	1.633736	-1.103523	0.632498	1.557601	-0.903579	164.321695	-73.099682	116.828497			
10189	8.828482	1.604173	-0.924817	0.562428	1.772293	-0.985846	164.458221	-72.688178	116.363195			
10190	9.024722	1.410800	-0.434777	0.253458	2.303045	-0.966419	164.548162	-72.307298	115.997740			
10191	9.432757	1.025759	-0.058157	-0.249714	2.747027	-0.733937	164.570750	-71.957826	115.721561			
10192	10.072822	0.587488	-0.021675	-0.782052	2.926545	-0.188195	164.480664	-71.646203	115.531080			
10193	10.503973	0.136362	-0.156984	-1.274101	2.884900	0.208814	164.298655	-71.381160	115.370111			
10194	10.876827	-0.577574	-0.464577	-1.991780	2.615801	0.581784	164.013335	-71.185567	115.250065			
10195	10.828706	-0.949104	0.083677	-2.432236	3.085955	0.322879	163.804724	-71.073172	115.098866			
10196	10.778143	-1.241051	0.236523	-2.732611	3.190209	0.193305	163.576906	-70.994007	115.010576			
10197	10.667817	-1.004482	0.447922	-2.509532	3.411951	0.039864	163.424645	-70.968952	114.899925			
10198	10.832470	-0.799288	0.318585	-2.310872	3.379955	0.253023	163.222617	-70.956747	114.870217			
10199	11.159028	-0.286968	-0.222933	-1.787137	3.046926	0.778740	162.974341	-70.981259	114.895886			
10200	11.554424	0.131628	-0.386953	-1.409933	3.062372	1.246504	162.667598	-71.059598	114.944426			
10201	11.831570	0.413343	-0.201079	-1.188915	3.341685	1.484078	162.288429	-71.163056	115.026693			
10202	12.056801	0.758718	0.146358	-0.911367	3.757678	1.633391	161.857420	-71.299761	115.127353			
10203	12.727642	1.062946	0.794411	-0.760417	4.571097	2.115450	161.341454	-71.467808	115.309059			
10204	13.407009	1.287289	1.638213	-0.701969	5.543914	2.550994	160.743284	-71.712153	115.624127			
10205	13.150050	1.275683	2.326912	-0.732332	6.050183	2.138207	159.937284	-72.069744	116.190191			
10206	13.321783	1.546145	3.024038	-0.545590	6.695781	2.182011	158.899927	-72.511261	117.026810			
10207	13.981397	2.032274	4.080321	-0.246315	7.806579	2.647346	157.545578	-73.115567	118.232643			
10208	14.424391	2.721407	4.981040	0.296906	8.675705	3.029355	155.613873	-73.927586	119.968402			
10209	14.785966	3.115273	4.587967	0.673977	8.178754	3.678943	152.854112	-74.838020	122.246938			
10210	15.543834	2.120480	2.863392	-0.271962	6.258027	4.852149	149.174319	-75.870757	125.160767			
10211	14.811250	0.574377	0.914665	-1.561580	3.702994	4.483297	144.505000	-77.118612	129.007022			
10212	12.065261	0.502703	-1.144477	-1.140730	0.821151	2.234993	138.756900	-78.420708	134.017623			
10213	12.172574	2.297353	-1.409996	0.629371	0.309479	2.634553	132.167573	-79.581443	140.018965			
10214	13.874962	4.348330	-1.107880	2.422744	0.486941	4.558333	124.257947	-80.634523	147.316333			
10215	14.535956	4.816957	-1.947742	2.841963	-0.744455	5.341183	114.771279	-81.626140	156.222168			
10216	13.994892	3.908126	-1.759293	2.070010	-1.078930	4.635798	103.734101	-82.506286	166.582159			
10217	13.541297	1.788359	-2.436660	0.106992	-2.190689	3.886957	92.447708	-83.195539	176.970509			
10218	13.598677	0.072185	-2.970030	-1.526032	-3.018340	3.689333	81.089949	-83.780124	-172.971443			
10219	13.566082	-2.131941	-4.128579	-3.675567	-4.330507	3.354021	68.315654	-84.216376	-161.572045			
10220	12.556278	-2.575258	-2.718295	-3.872046	-3.069573	2.322462	54.447630	-84.185476	-148.613452			
10221	12.295561	-1.854985	-3.622038	-3.139311	-4.240230	2.015263	42.294529	-83.681941	-137.006788			
10222	11.454296	-1.055559	-3.326872	-2.202961	-4.206368	1.179584	32.912016	-82.868766	-127.568079			
10223	11.128106	0.613698	-3.191406	-0.451399	-4.437909	0.887369	25.913036	-81.869052	-120.440132			
10224	10.913208	0.485717	-2.372628	-0.443343	-3.839517	0.676312	19.972995	-80.839475	-114.490518			
10225	10.258712	-1.100395	-2.627959	-1.928651	-4.110449	-0.182710	15.342980	-79.646774	-109.543937			
10226	10.222026	-0.698511	-2.033586	-1.407672	-3.806427	-0.187934	12.214646	-78.325225	-105.674180			
10227	9.556908	-0.510758	-1.165686	-1.061936	-3.088747	-0.741821	10.201736	-77.005595	-102.721694			
10228	9.661396	-0.377238	-0.846694	-0.856496	-3.039667	-0.635344	8.869531	-75.720956	-100.410668			
10229	9.344082	-1.197290	-1.524085	-1.602455	-3.826138	-1.218794	7.917780	-74.381281	-98.266862			
10230	8.649976	-0.375708	-0.549036	-0.683501	-2.934397	-1.677422	7.549601	-73.019418	-96.638876			
10231	8.514845	-0.013960	-0.707735	-0.254304	-3.237585	-1.909931	7.233844	-71.757895	-95.101788			
10232	7.837626	0.416861	-0.674495	0.255462	-3.149641	-2.596809	7.029747	-70.480637	-93.769147			
10233	7.411281	1.045858	-0.571817	0.941015	-3.019425	-3.005072	6.899491	-69.294197	-92.628858			
10234	7.167320	1.488433	-0.647779	1.439982	-3.088484	-3.301780	6.909259	-68.181459	-91.716569			
10235	6.656177	1.854329	-0.777690	1.863996	-3.080644	-3.864388	7.010609	-67.132382	-90.950340			
10236	6.460545	2.253357	-1.103471	2.336353	-3.343150	-4.209313	7.150368	-66.032771	-90.294046			
10237	5.877262	2.186758	-0.867644	2.278787	-2.965506	-4.704921	7.413682	-65.034181	-89.723711			
10238	5.959285	2.391381	-0.462621	2.456418	-2.661906	-4.490492	7.782265	-64.173439	-89.219434			
10239	6.114667	2.730116	0.131092	2.725977	-2.198338	-4.103396	8.044672	-63.409107	-88.730902			
10240	5.934957	2.838321	1.025040	2.703228	-1.352737	-3.880317	8.111003	-62.801256	-88.219647			
10241	5.823823	2.778113	0.984346	2.664689	-1.381257	-4.016553	7.930242	-62.304793	-87.697294			
10242	5.415824	2.441922	0.951984	2.352704	-1.303467	-4.430676	7.558407	-61.930834	-87.130350			
10243	5.013312	2.018632	0.964578	1.948229	-1.193640	-4.820882	7.082532	-61.665901	-86.546026			
10244	4.847953	1.657975	0.776410	1.645859	-1.350653	-5.088160	6.550410	-61.520856	-85.965883			
10245	4.634406	1.296710	0.656657	1.327614	-1.417429	-5.360872	6.012334	-61.470354	-85.401854			
10246	4.223566	1.205566	0.753924	1.225206	-1.150391	-5.685250	5.536045	-61.524218	-84.902451			
10247	4.092455	0.778380	0.828562	0.802850	-1.085742	-5.785637	5.069472	-61.726668	-84.438049			
10248	3.929074	0.024947	0.712632	0.087420	-1.220508	-6.011537	4.656571	-62.051473	-84.034672			
10249	3.583491	-0.508281	1.029568	-0.500287	-0.850910	-6.181524	4.345399	-62.517271	-83.824998			
10250	3.830926	-1.338724	0.833722	-1.269427	-1.246745	-6.071385	4.278649	-63.081005	-83.673179			
10251	3.914209	-1.365301	1.378814	-1.390251	-0.770434	-5.743334	4.447499	-63.781674	-83.778648			
10252	4.721853	-1.704651	1.367648	-1.699257	-1.140564	-5.029020	4.908378	-64.579608	-84.080513			
10253	5.687984	-1.834629	1.521652	-1.843854	-1.368369	-4.088922	5.816362	-65.496583	-84.738457			
10254	7.252951	-1.701192	1.338078	-1.676522	-2.059300	-2.724883	7.265183	-66.494993	-85.726970			
10255	8.463825	-1.410867	1.556969	-1.485296	-2.177064	-1.499850	9.281754	-67.447006	-87.070658			
10256	9.505272	-0.522912	2.407786	-0.893945	-1.512596	-0.151881	11.626855	-68.252108	-88.644457			
10257	10.554231	0.299307	3.811676	-0.542835	-0.341182	1.394280	13.817132	-68.862552	-90.175525			
10258	11.270498	0.572548	5.006769	-0.714592	0.650382	2.495163	15.788756	-69.343549	-91.582000			
10259	12.342940	1.576944	5.755000	-0.087276	1.274105	3.837278	17.461725	-69.691911	-92.697408			
10260	12.383145	2.341200	6.882055	0.221889	2.538999	4.318436	18.735560	-69.916913	-93.318291			
10261	11.808317	2.745301	8.666328	0.003593	4.515704	4.388882	19.811862	-70.142805	-93.594462			
10262	11.424220	3.365183	10.938007	-0.189484	6.934681	4.793768	20.662098	-70.473476	-93.608859			
10263	10.705980	3.947695	12.421577	-0.193040	8.792897	4.579737	21.031872	-71.093589	-93.408512			
10264	9.886591	3.517357	10.757944	-0.126276	7.608729	3.146359	20.812285	-71.959877	-93.057969			
10265	9.237705	3.527777	8.481369	0.612144	5.943481	1.763592	20.484717	-72.930305	-92.746283			
10266	10.108443	5.232362	7.492032	2.540345	5.492465	2.396442	20.939805	-74.041171	-93.324309			
10267	12.932290	7.392043	5.585915	5.097170	3.869955	4.751716	22.804971	-75.422861	-95.552481			
10268	17.265300	10.032575	0.058852	9.089435	-1.268299	7.921781	24.359378	-76.804528	-97.899114			
10269	15.857361	5.813491	-1.935801	5.669996	-3.735773	5.772319	22.227507	-77.814539	-96.885023			
10270	15.726772	-0.811042	-4.543444	0.076381	-7.647814	4.683096	18.674366	-79.027572	-94.336615			
10271	21.510411	-7.705346	-7.468340	-5.816405	-12.891186	9.624777	16.636823	-80.063170	-92.124134			
10272	21.766497	-5.517883	2.250938	-6.100821	-3.181431	11.679997	20.494814	-79.662586	-93.160562			
10273	19.135064	3.341580	13.763954	-1.645748	10.049717	11.702258	24.538473	-77.606237	-93.039221			
10274	6.739734	9.158995	16.452870	1.964840	16.573914	1.202002	24.851451	-74.846592	-90.501738			
10275	-3.193399	7.485496	4.159871	5.058410	7.507987	-11.068134	24.274896	-74.466108	-89.184864			
10276	-7.501509	7.772927	-9.535833	10.968424	-3.397294	-18.516082	22.393847	-75.867775	-89.030112			
10277	-9.171193	6.102461	-22.587241	13.887452	-16.269031	-22.990373	19.315092	-78.219526	-89.938802			
10278	2.668920	-0.182265	-24.424542	7.257707	-23.407513	-11.516415	18.513487	-80.258961	-92.443207			
10279	21.836924	-6.329191	-4.597868	-5.102048	-9.496224	10.725248	19.490584	-81.409820	-94.899762			
10280	17.866772	-9.776934	1.665019	-10.025854	-3.539629	7.638161	17.205027	-81.639583	-91.724233			
10281	12.891137	-9.459145	4.011411	-10.231954	-0.614197	3.097634	16.907095	-81.918658	-90.280638			
10282	11.920122	-6.593260	0.998594	-6.640242	-2.533266	1.851177	20.166922	-82.836164	-92.954561			
10283	13.278370	-2.931303	-2.860342	-2.086076	-5.138159	2.928320	24.587178	-83.574909	-97.302104			
10284	10.585212	-1.207419	-1.688361	-0.807441	-3.104332	0.486147	26.153553	-83.884280	-98.715002			
10285	7.812463	-0.382751	-0.215114	-0.447497	-1.121539	-2.081647	29.464718	-84.101735	-102.082623			
10286	8.143150	0.540027	-1.039447	0.616309	-1.617630	-1.769945	35.065579	-84.376101	-107.805381			
10287	8.764591	1.024220	-1.546240	1.139782	-1.952174	-1.143952	41.580330	-84.617133	-114.170437			
10288	8.495213	1.782843	-1.609086	1.827874	-1.688860	-1.342617	48.542059	-84.729503	-120.429569			
10289	8.434739	3.125850	-1.049150	2.863349	-0.642120	-1.245091	56.147463	-84.697728	-126.795061			
10290	9.132262	4.927854	0.209998	3.997255	1.221828	-0.312615	63.687321	-84.575619	-132.838557			
10291	9.874225	6.149951	2.196479	4.237876	3.611277	0.634423	69.605967	-84.538367	-137.611246			
10292	9.079227	5.428233	3.199839	3.155363	4.450717	-0.201721	76.006890	-84.754283	-143.908332			
10293	8.800936	3.260080	1.664432	1.739270	2.346881	-0.739614	86.325176	-85.098743	-155.177683			
10294	9.036272	1.531913	-0.827046	1.006262	-0.476263	-0.677924	98.556681	-85.318281	-168.945219			
10295	8.931906	-0.489796	-2.678960	-0.323446	-2.758668	-0.897622	108.791617	-85.298644	179.261240			
10296	8.617908	-1.899062	-2.912884	-1.646266	-3.283430	-1.276500	116.924890	-85.051427	170.241833			
10297	8.873089	-1.112720	-1.595159	-1.382740	-1.672862	-0.992106	122.220290	-84.534255	164.535737			
10298	9.580746	-0.327883	-1.284719	-0.857583	-1.036766	-0.234725	125.952327	-84.035325	160.566780			
10299	9.211738	-0.320392	-0.252641	-1.162720	0.025015	-0.665594	129.034167	-83.566811	157.337135			
10300	9.286606	0.277070	0.234447	-0.788224	0.747231	-0.582723	131.675895	-83.022511	154.359443			
10301	9.343203	0.042045	0.034968	-1.013700	0.582802	-0.542827	134.338717	-82.525379	151.286458			
10302	9.138560	-0.591569	-0.016610	-1.624618	0.443933	-0.811238	136.887860	-82.008360	148.337067			
10303	9.536728	-0.808669	-0.442383	-1.813941	0.108207	-0.405476	139.172251	-81.453544	145.756907			
10304	9.543633	-0.447406	-0.347399	-1.537366	0.397578	-0.385112	141.105729	-80.892664	143.553990			
10305	9.683291	-0.156808	-0.835851	-1.202898	0.118112	-0.167619	142.802573	-80.312850	141.550959			
10306	9.711159	-0.030669	-1.146123	-1.058029	-0.044418	-0.091640	144.300275	-79.754338	139.816289			
10307	9.680674	0.297673	-1.198633	-0.769729	0.080527	-0.084331	145.660330	-79.204760	138.344142			
10308	9.820803	0.747042	-1.086616	-0.423589	0.410804	0.078619	146.903597	-78.675234	137.073067			
10309	9.742688	1.035666	-0.782210	-0.242401	0.855436	-0.024271	148.069640	-78.156878	135.905331			
10310	9.762143	1.259122	-0.766481	-0.069313	1.020819	0.006915	149.214792	-77.623037	134.714569			
10311	9.613095	1.264470	-0.566845	-0.119862	1.285766	-0.186507	150.396977	-77.072201	133.459582			
10312	9.416306	1.461402	-0.203091	-0.010689	1.748230	-0.443247	151.598991	-76.498158	132.174427			
10313	9.347413	1.686307	-0.056125	0.157400	2.031888	-0.535477	152.730152	-75.909071	130.937211			
10314	9.203978	1.949662	0.268491	0.338680	2.477299	-0.738884	153.726322	-75.313423	129.775235			
10315	9.175568	1.933807	0.334864	0.292792	2.624208	-0.808809	154.542638	-74.731703	128.701910			
10316	9.206969	1.885441	0.471816	0.194780	2.836694	-0.842720	155.144038	-74.153142	127.717952			
10317	9.488985	1.704656	0.625043	-0.073181	3.084672	-0.657572	155.515415	-73.582589	126.851763			
10318	10.085795	1.237863	0.704662	-0.654988	3.272434	-0.189092	155.668915	-73.041673	126.103269			
10319	10.494931	0.361214	0.695248	-1.585565	3.252429	0.069845	155.596353	-72.565235	125.486826			
10320	10.819230	-0.540039	0.772389	-2.540928	3.300693	0.216889	155.332209	-72.153069	125.007771			
10321	11.007482	-1.380501	0.223971	-3.320050	2.746203	0.412555	154.943015	-71.810865	124.615464			
10322	11.068301	-2.314777	-0.552028	-4.151786	1.932096	0.541024	154.513187	-71.550762	124.343137			
10323	11.418002	-2.636567	-0.699586	-4.536049	1.893449	0.848007	154.065539	-71.328947	124.295577			
10324	11.660047	-2.231683	-0.568439	-4.228566	2.193838	1.076130	153.638265	-71.160192	124.395750			
10325	11.702740	-1.961691	-0.279470	-4.029600	2.553608	1.055696	153.253570	-71.031636	124.474854			
10326	11.913320	-2.042148	-0.288955	-4.163299	2.611979	1.233828	152.942691	-70.944944	124.525179			
10327	11.739176	-1.687265	-0.254783	-3.800220	2.663077	1.104563	152.660213	-70.921779	124.647566			
10328	11.477766	-0.959893	-0.093349	-3.064948	2.850800	0.918028	152.364657	-70.950675	124.824435			
10329	11.901392	-0.215497	-0.143215	-2.419112	3.011336	1.447410	151.963722	-71.009137	125.092167			
10330	12.528931	0.267590	0.125009	-2.097301	3.475264	2.044171	151.533173	-71.133286	125.470437			
10331	12.782252	0.636109	0.696316	-1.846019	4.093619	2.191881	151.019676	-71.333151	126.011563			
10332	12.776795	0.731974	0.871401	-1.774288	4.204402	2.175470	150.413395	-71.643355	126.743964			
10333	11.832819	1.119962	1.527679	-1.291971	4.553770	1.196240	149.445290	-72.107594	127.949229			
10334	12.090390	2.319781	1.992496	-0.245989	5.115552	1.558223	147.973463	-72.609952	129.774753			
10335	15.190673	5.055754	3.041810	1.645019	7.098242	4.763814	145.831397	-73.062771	132.211960			
10336	14.975608	6.086286	3.643228	2.567893	7.553966	4.710359	142.822817	-73.867019	135.068638			
10337	13.497974	3.713720	3.861054	0.549361	6.810028	3.001622	139.205188	-74.755457	137.951716			
10338	13.574395	2.137911	1.769943	-0.721257	4.260269	3.351220	135.111135	-75.660874	141.160094			
10339	12.708062	2.149675	0.361633	-0.358396	2.430345	2.844418	130.369754	-76.636640	145.060474			
10340	11.984253	2.982689	-1.108382	0.760753	0.642718	2.546351	125.063523	-77.601959	149.471753			
10341	12.237224	3.717276	-1.991769	1.540550	-0.489766	3.029059	119.067423	-78.539453	154.550994			
10342	12.951950	4.136456	-2.147072	1.892096	-0.927885	3.789501	112.449803	-79.440673	160.318211			
10343	13.264829	3.721921	-2.244617	1.515171	-1.403399	3.991993	105.224549	-80.286229	166.768013			
10344	12.962688	3.021159	-2.289718	0.968055	-1.842694	3.531156	97.120680	-81.015319	174.049978			
10345	12.539332	2.316921	-2.871441	0.432681	-2.770522	2.953535	88.363029	-81.625534	-178.332766			
10346	12.287199	1.055057	-3.509678	-0.704901	-3.692078	2.445837	78.676819	-82.220324	-170.032215			
10347	12.458174	-0.846908	-3.753244	-2.541639	-4.128906	2.290939	67.901661	-82.649984	-160.507599			
10348	11.687506	-1.720346	-4.392145	-3.275256	-4.896671	1.329121	57.445476	-82.683011	-150.826691			
10349	11.664938	-1.145151	-3.133900	-2.577656	-3.889617	1.386643	48.446066	-82.287154	-141.990634			
10350	10.800111	0.277032	-2.584349	-0.984518	-3.595376	0.651391	40.572880	-81.657994	-134.026809			
10351	9.494307	0.793484	-1.546586	-0.219057	-2.673522	-0.541012	33.331121	-81.018919	-126.834178			
10352	9.706984	-1.070490	-2.299830	-2.057283	-3.507090	-0.640706	26.827017	-80.383453	-120.430737			
10353	8.460541	-2.582362	-2.604933	-3.380875	-3.711302	-2.077914	21.167660	-79.542898	-114.297157			
10354	7.999376	-1.698163	-1.070563	-2.305954	-2.356410	-2.253114	17.634819	-78.716108	-110.131222			
10355	8.908016	-1.156010	-1.268418	-1.759976	-2.899198	-1.398849	14.549538	-77.975924	-106.579975			
10356	8.974286	-2.273250	-2.065101	-2.811837	-3.807382	-1.592951	11.657997	-77.138662	-103.076889			
10357	8.504906	-2.184480	-2.174667	-2.597633	-3.991162	-2.121553	9.731839	-76.228544	-100.137732			
10358	7.951585	-1.051088	-1.607345	-1.340623	-3.486392	-2.535245	8.549970	-75.338400	-97.787142			
10359	7.742719	-0.722945	-1.209529	-0.927339	-3.179662	-2.673837	7.783324	-74.533151	-95.858143			
10360	7.309325	-0.558652	-1.780527	-0.646841	-3.721381	-3.282767	7.334147	-73.786165	-94.177789			
10361	7.283259	0.341095	-2.181239	0.367514	-4.142632	-3.439151	7.160869	-73.006209	-92.661842			
10362	6.528431	1.141195	-1.133113	1.172531	-2.930738	-3.876199	7.179252	-72.215211	-91.342644			
10363	6.262783	2.064984	-0.856941	2.122387	-2.533696	-4.042371	7.400882	-71.593087	-90.242367			
10364	6.304287	2.904647	-0.594980	2.966371	-2.205562	-3.907519	7.579422	-71.089440	-89.310131			
10365	6.543172	3.041234	-0.226844	3.085339	-1.912392	-3.572738	7.523529	-70.703251	-88.303732			
10366	6.700393	2.936313	-0.204743	3.017767	-1.950535	-3.437153	7.212494	-70.391885	-87.185702			
10367	6.857197	2.800087	0.206804	2.856736	-1.633031	-3.173674	6.675548	-70.202100	-86.005986			
10368	7.055336	2.421505	0.284207	2.520533	-1.684633	-2.991330	5.863322	-70.073711	-84.733033			
10369	6.922020	2.153721	0.503486	2.261607	-1.477329	-3.066668	4.897330	-69.990648	-83.427440			
10370	6.918107	2.244832	0.587882	2.384957	-1.367821	-3.053555	3.840986	-69.963790	-82.107678			
10371	6.487961	1.595874	0.417259	1.808794	-1.487811	-3.541401	2.886236	-70.042546	-80.871784			
10372	6.925355	1.951034	0.572887	2.190883	-1.391836	-3.077861	1.989704	-70.155687	-79.729315			
10373	6.477975	1.490060	0.803123	1.703845	-1.095919	-3.431064	1.112263	-70.326622	-78.629255			
10374	6.273290	1.340918	0.987284	1.537509	-0.855180	-3.565167	0.308435	-70.573718	-77.626140			
10375	6.296793	1.141840	1.064441	1.351628	-0.793748	-3.517506	-0.351650	-70.889240	-76.780300			
10376	6.445503	0.728347	0.844749	1.021961	-1.089670	-3.444281	-0.892544	-71.256172	-76.063117			
10377	6.855714	0.359354	0.947597	0.680502	-1.155013	-3.013386	-1.187018	-71.682349	-75.550062			
10378	7.511441	0.371577	1.143018	0.698979	-1.113097	-2.320130	-1.229599	-72.140500	-75.246310			
10379	7.868346	0.309030	1.238189	0.632212	-1.084414	-1.940997	-1.065290	-72.585949	-75.123626			
10380	8.105771	0.170115	1.690359	0.389136	-0.710086	-1.570491	-0.581873	-72.996048	-75.262188			
10381	8.424505	-0.061515	2.223230	0.023475	-0.313056	-1.105226	0.304729	-73.369786	-75.681554			
10382	8.884984	-0.127886	2.871537	-0.223495	0.181056	-0.478779	1.518411	-73.656527	-76.316345			
10383	9.216497	-0.179709	3.605735	-0.509756	0.775094	0.042073	2.855435	-73.822449	-76.959330			
10384	9.477991	-0.157464	4.689280	-0.843758	1.707144	0.590171	4.189310	-73.893327	-77.455548			
10385	9.524163	-0.020232	5.791921	-1.117479	2.725643	0.938012	5.403412	-73.904570	-77.666391			
10386	9.677840	0.019663	6.872513	-1.505576	3.654919	1.379537	6.386867	-73.965116	-77.539265			
10387	9.966278	0.120336	7.741656	-1.788810	4.387939	1.884291	6.971876	-74.192889	-77.066339			
10388	10.477349	-0.311279	7.697870	-2.248104	4.094442	2.324435	6.967894	-74.579884	-76.254165			
10389	10.861300	-1.058485	7.619848	-2.950532	3.721780	2.620836	6.467388	-75.003206	-75.217081			
10390	11.289282	-1.562437	8.101358	-3.572186	3.939529	3.119448	5.500616	-75.375684	-73.996756			
10391	11.400287	-1.800472	8.335316	-3.843253	4.116207	3.262910	4.283724	-75.677136	-72.748565			
10392	11.038328	-1.757648	7.989867	-3.662755	3.977580	2.818012	3.123617	-75.885131	-71.610729			
10393	10.277170	-1.542556	7.524597	-3.317146	3.860691	1.964863	2.162074	-76.005283	-70.585831			
10394	9.278781	-1.359083	6.559227	-2.857998	3.306534	0.763937	1.404231	-76.062936	-69.620446			
10395	8.259208	-1.640935	5.259829	-2.728773	2.261206	-0.538329	0.785722	-76.091123	-68.517055			
10396	7.288880	-1.151566	4.065922	-1.927427	1.576563	-1.763772	0.464789	-76.122653	-67.432518			
10397	7.398729	-0.226160	2.856319	-0.622837	0.830408	-1.946726	0.449802	-76.284465	-66.562281			
10398	7.760644	0.384921	1.165674	0.616869	-0.472088	-1.994061	0.615635	-76.631269	-65.897687			
10399	8.606084	1.035882	-0.799580	2.067476	-2.036724	-1.605783	1.003422	-77.283587	-65.543317			
10400	10.425973	1.033729	-3.261649	3.241694	-4.426938	-0.310161	1.002296	-78.264741	-64.957868			
10401	12.696119	0.513094	-6.165425	4.205401	-7.408276	1.451914	-0.024187	-79.427999	-63.475185			
10402	16.418164	0.010239	-7.912332	4.798517	-9.490927	4.987468	-0.323540	-80.634145	-62.728803			
10403	21.238429	0.715845	-5.983781	4.795029	-7.827043	10.265066	2.368249	-81.801305	-64.618998			
10404	25.153987	2.418069	0.297059	3.375753	-1.761667	15.170241	7.442312	-82.361948	-68.207619			
10405	23.945319	6.566206	9.528948	2.033354	8.326651	15.362588	12.600078	-81.668375	-71.070531			
10406	16.682923	11.662662	16.619736	1.840571	17.446086	9.750033	15.122455	-79.448395	-71.516909			
10407	3.332829	9.930998	11.726504	1.899656	14.397922	-3.786733	14.717882	-77.616872	-69.647169			
10408	-2.003751	6.792955	-3.305575	7.289850	1.659601	-12.090763	14.097099	-77.966822	-68.498291			
10409	-4.109403	9.306957	-19.745947	18.485207	-9.809761	-17.258063	9.261756	-79.401104	-65.012202			
10410	-7.165199	4.228514	-24.398602	16.179492	-16.715129	-20.912575	4.153692	-80.971347	-62.147594			
10411	4.728447	0.978346	-15.219610	8.950250	-12.983239	-7.312835	5.265859	-82.421687	-64.912356			
10412	19.954899	-2.112764	-1.412269	-0.208791	-4.442758	9.804750	9.098020	-83.962952	-69.626582			
10413	20.122255	-6.796003	4.229582	-7.191293	-1.525736	10.557137	2.775467	-84.533574	-63.292003			
10414	13.849292	-10.455454	4.873090	-10.820719	-2.013676	4.460271	-6.148999	-84.672298	-54.591740			
10415	9.661062	-11.592885	1.959696	-10.551701	-4.598070	0.141557	-12.352862	-85.244386	-48.760615			
10416	9.612398	-7.875944	-2.073566	-5.420164	-6.165794	-0.255942	-12.006472	-85.997654	-49.245966			
10417	8.291768	-2.788886	-2.133591	-1.089626	-3.621815	-1.640922	-7.341916	-86.700998	-53.846764			
10418	7.816871	0.464348	-2.776825	1.943963	-2.547054	-2.147072	4.201221	-87.475968	-65.557895			
10419	8.851332	2.509662	-3.993522	4.199254	-2.635679	-1.094348	24.888778	-88.087503	-86.561779			
10420	9.308402	3.064492	-3.451348	4.302937	-1.855440	-0.539626	47.801596	-88.535580	-109.603837			
10421	8.405153	2.049606	-1.730926	2.523930	-0.710500	-1.388470	77.003837	-88.810724	-138.564888			
10422	8.477030	1.761526	-0.978378	1.853731	-0.086250	-1.299446	106.368625	-88.680577	-167.062144			
10423	8.701046	2.375259	0.469590	1.601158	1.580624	-1.065866	125.346130	-88.353554	175.235868			
10424	8.156644	2.928152	1.380663	1.538657	2.741975	-1.619769	136.945377	-87.952299	164.579364			
10425	7.713979	3.084660	1.669635	1.463214	3.148171	-2.082517	146.690967	-87.385109	154.862364			
10426	8.458182	2.612237	1.060180	1.305379	2.486605	-1.350989	155.794358	-86.504171	144.754991			
10427	9.307711	1.566848	-0.823209	1.265025	0.474315	-0.435090	161.445228	-85.491941	137.381026			
10428	9.672888	-0.058093	-2.923263	0.720906	-2.006774	0.064744	164.554283	-84.559750	132.492461			
10429	9.414470	-1.608218	-2.744150	-0.846986	-2.441135	-0.217382	166.627412	-83.784703	129.331893			
10430	9.034181	-1.032023	-0.878814	-1.200874	-0.430027	-0.766946	166.984106	-83.062383	128.404418			
10431	9.452597	0.099335	-0.224206	-0.555877	0.786271	-0.406130	167.232736	-82.345211	127.738265			
10432	9.559803	0.456616	0.380043	-0.548912	1.592725	-0.383817	167.632253	-81.653881	126.888870			
10433	9.847101	0.277273	-0.645819	-0.369279	0.724021	0.025899	167.843981	-81.014984	126.166316			
10434	9.853889	-0.366749	-1.150380	-0.805037	0.093472	0.081728	168.149290	-80.499504	125.567477			
10435	9.382293	0.008854	-0.498048	-0.716989	0.843848	-0.482686	167.973481	-80.045022	125.379546			
10436	9.273947	0.180756	-0.085865	-0.753665	1.345333	-0.665702	167.742466	-79.409912	124.966225			
10437	9.573428	0.156874	-1.438037	-0.350349	0.245464	-0.140096	167.863781	-78.754377	123.944693			
10438	9.341429	-1.177472	-2.441927	-1.258225	-1.106336	-0.231281	168.103920	-78.152132	122.924358			
10439	9.834070	-1.503985	-1.770803	-1.905608	-0.425734	0.101603	168.322596	-77.602472	122.455797			
10440	9.952515	-0.471663	-0.463384	-1.447806	1.248345	-0.023173	168.551905	-77.091058	122.270754			
10441	10.039290	0.087069	-0.037362	-1.121668	1.933925	-0.025072	168.757364	-76.578246	121.970037			
10442	9.918658	-0.457306	-0.936520	-1.345686	0.976594	0.020961	168.876194	-76.067941	121.563818			
10443	9.874457	-0.588866	-1.703272	-1.245890	0.303456	0.142602	168.931709	-75.576702	121.221524			
10444	9.780574	0.094295	-1.748773	-0.618827	0.557390	0.088450	168.962435	-75.110223	120.905082			
10445	9.820426	0.672060	-1.873427	-0.079372	0.723119	0.180933	168.972867	-74.652418	120.562470			
10446	9.765621	0.859613	-1.799057	0.047368	0.909124	0.112720	169.020195	-74.227048	120.201783			
10447	9.716777	1.057474	-1.388835	0.084812	1.399747	-0.040479	169.066667	-73.835999	119.904834			
10448	9.676878	1.424912	-0.957733	0.281769	1.960506	-0.186351	169.116197	-73.477477	119.644604			
10449	9.596300	1.796719	-0.610689	0.520284	2.428535	-0.351111	169.120501	-73.139231	119.392579			
10450	9.303039	1.884084	-0.439957	0.580282	2.581262	-0.686348	169.087206	-72.825445	119.084265			
10451	8.797084	1.791303	-0.360565	0.532473	2.531146	-1.208205	168.917618	-72.489114	118.737064			
10452	8.627232	1.310964	-0.499450	0.129952	2.247226	-1.366970	168.601574	-72.127498	118.391040			
10453	8.683008	0.727061	-0.469161	-0.458264	2.156152	-1.369693	168.132850	-71.747495	118.151428			
10454	8.867620	0.092561	-0.713065	-1.053281	1.847966	-1.173994	167.559984	-71.357892	118.005183			
10455	9.192141	-0.625194	-0.909609	-1.776003	1.614595	-0.871090	166.934245	-70.964796	117.976362			
10456	9.596336	-1.222928	-0.911182	-2.451993	1.629831	-0.552756	166.329333	-70.583553	118.000100			
10457	10.201254	-1.646173	-0.815085	-3.018316	1.854021	-0.071459	165.700817	-70.188293	118.013196			
10458	10.843731	-1.948592	-1.302072	-3.355605	1.594626	0.640796	165.109710	-69.837472	118.007194			
10459	11.046784	-1.769156	-1.105597	-3.295003	1.944296	0.758310	164.662951	-69.566289	118.008296			
10460	11.119978	-0.990296	-0.380692	-2.719270	2.863574	0.636468	164.321516	-69.361255	118.015644			
10461	11.087520	-0.359692	0.159236	-2.219566	3.527224	0.469335	164.059105	-69.213857	118.020681			
10462	11.263794	0.063354	0.423302	-1.897784	3.938690	0.576797	163.782786	-69.132255	118.107897			
10463	11.451277	0.318417	0.368927	-1.685144	4.009838	0.791591	163.467735	-69.086938	118.291617			
10464	12.366083	0.552379	0.610335	-1.671861	4.565411	1.587290	163.002706	-69.091186	118.614506			
10465	12.526195	0.425752	0.393830	-1.803389	4.365445	1.803358	162.331817	-69.179850	119.016522			
10466	13.187591	0.292283	0.433332	-2.071396	4.544830	2.403674	161.551892	-69.272442	119.463340			
10467	13.680748	0.484808	0.475951	-1.996469	4.730306	2.886227	160.742750	-69.444412	120.014988			
10468	12.734247	0.549595	1.303692	-1.910945	5.151977	1.761739	159.900511	-69.800102	120.746282			
10469	12.766256	0.798304	2.569302	-1.882655	6.285221	1.464093	158.858886	-70.322701	121.783961			
10470	13.327078	1.437108	3.822932	-1.571391	7.595893	1.768351	157.479597	-71.064118	123.231450			
10471	13.538850	1.934917	3.923411	-1.153829	7.653582	2.125639	155.546070	-71.878489	125.043242			
10472	13.888130	2.005030	2.648997	-0.941931	6.326053	2.954673	153.108420	-72.691758	126.963105			
10473	14.193498	0.788558	0.346388	-1.816853	3.716488	3.791615	150.284686	-73.617940	129.170875			
10474	13.680786	1.271321	-1.218902	-1.024224	1.871543	3.814614	146.549086	-74.757791	132.496761			
10475	13.220827	2.725280	-1.435668	0.509955	1.437035	3.675791	141.748415	-76.027008	137.075562			
10476	14.067361	4.081073	-0.412259	1.565194	2.367035	4.562507	136.291931	-77.280928	142.387431			
10477	14.472306	4.867420	-0.166079	2.288483	2.332864	5.102685	130.164406	-78.531405	148.142843			
10478	13.727211	3.827825	-0.592787	1.565381	1.241856	4.309376	124.290780	-79.686828	153.115711			
10479	14.020954	1.966898	-2.897635	0.093984	-1.612550	4.548169	119.410239	-80.747591	156.439671			
10480	14.284252	0.089991	-4.550634	-1.547016	-3.704144	4.631595	114.335579	-81.880487	159.457250			
10481	14.344374	-2.115198	-6.382699	-3.570060	-5.894217	4.452059	107.394008	-83.143207	164.531908			
10482	12.523552	-3.665584	-5.863769	-4.837755	-5.698450	2.384777	96.992526	-84.258012	174.135147			
10483	10.638043	-2.100597	-3.534918	-3.036870	-3.587103	0.578682	83.575030	-84.687444	-172.389057			
10484	11.321048	0.639080	-2.995995	-0.296441	-3.240856	1.454692	70.023204	-84.708473	-158.549765			
10485	10.628979	1.931322	-1.311370	1.089496	-1.723211	0.876759	57.380123	-84.606455	-145.956736			
10486	11.531153	0.745178	-3.838382	-0.018146	-4.530814	1.488749	45.593731	-84.255278	-134.520302			
10487	10.757968	-0.986898	-4.617745	-1.567850	-5.518775	0.439525	34.137424	-83.496377	-122.499079			
10488	10.064578	-0.181048	-3.584282	-0.598456	-4.656818	-0.214603	26.460128	-82.421708	-113.532914			
10489	9.057991	1.559149	-0.170642	1.123732	-1.291496	-0.780935	20.959900	-81.197420	-106.988195			
10490	8.858697	0.108195	-1.567994	-0.128428	-2.928078	-1.306632	16.763977	-80.123357	-102.174318			
10491	8.643938	-0.258592	-1.502839	-0.408426	-3.035966	-1.587379	14.207132	-78.974374	-98.924018			
10492	8.734905	0.137183	-0.475086	-0.046527	-2.190176	-1.342677	12.222710	-77.844024	-96.313371			
10493	8.389823	-0.235092	-1.018518	-0.281713	-2.846824	-1.856852	10.220476	-76.793467	-93.756238			
10494	7.833436	-1.073147	-1.887409	-0.922056	-3.796819	-2.684706	8.555834	-75.799469	-91.425527			
10495	7.574912	-0.791425	-1.797210	-0.563174	-3.749527	-2.967475	7.534949	-74.734754	-89.552498			
10496	6.806943	0.149644	-0.965128	0.328848	-2.749587	-3.518374	6.845366	-73.677116	-88.003781			
10497	6.305017	0.489989	-1.383425	0.786393	-3.047199	-4.155621	6.535787	-72.790761	-86.828188			
10498	6.252848	1.339276	-2.028741	1.790519	-3.560518	-4.416056	6.621765	-71.997540	-85.965497			
10499	6.286025	1.881850	-1.899690	2.356619	-3.390132	-4.370516	6.868786	-71.307590	-85.314270			
10500	6.515033	2.248474	-1.987549	2.786912	-3.499222	-4.205559	7.172455	-70.690820	-84.791083			
10501	6.527461	2.614301	-1.511882	3.085974	-3.008689	-4.054872	7.490050	-70.099540	-84.297395			
10502	6.673890	2.956908	-0.659766	3.267111	-2.221489	-3.639337	7.635126	-69.571047	-83.760160			
10503	6.621690	2.568189	-0.265118	2.822507	-1.951546	-3.588744	7.564240	-69.161283	-83.108892			
10504	6.489886	2.398593	-0.057263	2.630433	-1.772812	-3.663459	7.315624	-68.814798	-82.414377			
10505	6.265176	2.307299	0.146409	2.509820	-1.544469	-3.819958	6.865862	-68.544533	-81.665301			
10506	6.061067	2.202529	0.205217	2.414167	-1.452771	-4.008299	6.235166	-68.350463	-80.829465			
10507	5.701262	2.102574	0.300929	2.303651	-1.263850	-4.325288	5.504990	-68.250018	-79.989867			
10508	5.514614	1.964930	0.217580	2.210039	-1.299707	-4.545273	4.654385	-68.295045	-79.140331			
10509	5.133613	1.641980	0.095094	1.929598	-1.341238	-4.961215	3.848121	-68.412524	-78.332178			
10510	4.580038	1.857648	0.353272	2.049349	-0.833906	-5.379053	3.195929	-68.704515	-77.789776			
10511	4.852139	1.266703	-0.265408	1.663998	-1.611884	-5.357233	2.607873	-69.152448	-77.377690			
10512	5.083840	0.503520	-0.387209	0.975917	-1.961363	-5.181345	2.308050	-69.706587	-77.162088			
10513	5.447712	0.166702	-0.013476	0.576425	-1.780820	-4.693939	2.290308	-70.410246	-77.215321			
10514	6.227751	-0.545403	0.226294	-0.134919	-1.929084	-3.863464	2.482606	-71.252236	-77.484652			
10515	7.298752	-1.180308	0.441849	-0.762863	-2.134228	-2.761302	2.868615	-72.175524	-77.956997			
10516	8.463178	-1.800339	0.817326	-1.429869	-2.173809	-1.520352	3.401139	-73.134395	-78.595481			
10517	10.067576	-2.378678	1.182464	-2.049722	-2.296770	0.133850	4.184358	-74.050945	-79.363474			
10518	11.351772	-2.288273	2.398475	-2.277494	-1.357234	1.712100	5.476895	-74.765051	-80.330105			
10519	12.209848	-1.526713	3.848273	-1.981533	0.050564	2.926616	7.427832	-75.189330	-81.483613			
10520	13.018972	-0.401123	5.474777	-1.469851	1.672611	4.139596	9.953455	-75.311346	-82.531293			
10521	13.867501	0.966809	8.355935	-1.242535	4.436817	5.738040	12.480520	-75.042030	-83.077628			
10522	14.543971	1.966693	12.473861	-1.956412	8.140560	7.533207	13.806548	-74.436469	-82.518862			
10523	13.370258	1.390449	16.420253	-4.213272	11.542153	7.488779	13.329820	-73.948289	-80.844584			
10524	11.609690	-0.537975	15.554830	-5.820888	10.407891	5.511146	12.054987	-73.910836	-79.323162			
10525	10.324582	-0.939823	11.694538	-4.725953	7.210854	3.222278	10.623407	-74.074258	-78.064872			
10526	8.882683	-0.215342	8.764132	-2.952383	5.335473	1.076473	9.475722	-74.274171	-77.197646			
10527	7.961927	0.867553	7.053363	-1.309878	4.521709	-0.234968	8.760334	-74.540624	-76.845835			
10528	7.702516	1.238001	5.452956	-0.351777	3.361092	-0.914665	8.088681	-74.952442	-76.717974			
10529	8.547073	0.720127	3.424516	-0.033573	1.232696	-0.659734	7.403276	-75.645230	-76.573163			
10530	11.515902	0.402470	1.650850	0.445096	-1.043556	1.772334	7.136012	-76.645415	-76.579576			
10531	14.130656	0.988046	-0.798110	1.933137	-3.416578	3.820775	7.105051	-77.829928	-76.334545			
10532	15.364613	1.559165	-4.295543	3.741367	-6.366031	4.414755	6.439942	-78.931121	-75.079391			
10533	17.536386	0.199572	-8.314449	4.139436	-10.641376	5.881587	5.086345	-79.614997	-72.778250			
10534	19.933737	-0.039097	-8.754863	4.422578	-11.281298	8.275025	6.101027	-80.106683	-72.118899			
10535	21.395210	3.199571	-5.887922	6.435688	-7.377520	10.356805	10.670564	-80.268226	-74.228763			
10536	17.557175	6.016862	3.465633	4.499527	2.805411	8.307466	15.553022	-79.308108	-75.932499			
10537	10.684182	8.664667	12.017659	1.809874	12.368463	3.503844	18.857396	-77.228783	-76.350597			
10538	1.245848	9.329903	19.011732	-2.537081	20.138466	-3.650966	19.399055	-75.522461	-74.647680			
10539	-2.178049	6.586415	10.183435	-0.500984	12.281044	-8.946356	18.812870	-75.225191	-73.475422			
10540	-0.608434	6.474050	-5.695066	8.487701	-0.746071	-11.267380	16.691695	-75.696325	-72.642382			
10541	-6.079414	10.018731	-21.884349	19.438840	-11.452044	-20.151396	9.802822	-77.273235	-70.128097			
10542	-8.387695	3.760124	-35.908794	19.212962	-27.690228	-25.221819	3.260217	-79.113197	-67.211494			
10543	7.121973	0.325904	-17.758230	8.342210	-16.747058	-5.803143	4.661116	-81.306432	-69.351406			
10544	24.228333	-2.919765	3.600758	-3.151989	-1.046839	14.628877	9.493592	-83.552480	-74.024409			
10545	21.893113	-7.623626	8.341859	-9.752829	1.933399	12.729633	6.020172	-84.109913	-70.088608			
10546	14.224416	-10.887719	5.553424	-11.631163	-1.110937	4.856804	-0.984078	-84.093898	-63.269659			
10547	9.858532	-10.894284	3.369046	-10.813554	-2.529162	0.380154	-4.762345	-84.650410	-59.846708			
10548	11.418941	-6.068053	2.339661	-6.017587	-1.346089	1.791635	-1.081299	-85.573063	-63.625302			
10549	10.992919	-2.061629	0.513956	-1.774874	-1.153203	1.181714	6.787526	-86.100360	-71.387591			
10550	8.444320	1.039332	-0.710084	1.376307	-0.715833	-1.417255	15.876979	-86.578874	-80.534097			
10551	8.279464	2.158235	-2.327682	2.980254	-1.639428	-1.623985	24.598507	-87.226760	-89.944682			
10552	7.298867	0.280009	-6.658092	2.978287	-6.253221	-2.762360	34.550406	-87.883778	-100.464446			
10553	6.529525	0.979166	-5.896846	3.243810	-5.168051	-3.399142	57.594130	-88.369701	-123.151422			
10554	7.197523	3.297336	-3.800805	4.440574	-2.186817	-2.558778	90.642259	-88.334071	-155.228200			
10555	8.166878	4.103334	-1.769300	4.207324	0.154387	-1.509871	112.375718	-87.943093	-175.606129			
10556	9.045998	4.342239	0.519053	3.256965	2.474384	-0.635498	125.867547	-87.513508	172.186035			
10557	9.089117	4.131240	2.071496	2.235812	3.885413	-0.654462	137.406551	-87.002752	161.075259			
10558	8.754081	3.337608	1.459257	1.788592	3.081777	-1.026034	148.234186	-86.186031	149.470216			
10559	8.987775	2.148761	-0.450061	1.565881	0.969048	-0.745869	155.938525	-85.125006	140.116455			
10560	9.156550	0.497697	-2.675677	0.947831	-1.618925	-0.446415	159.757260	-84.104851	134.299772			
10561	9.015052	-1.795053	-4.055931	-0.727624	-3.690941	-0.496712	161.306422	-83.240787	131.345591			
10562	8.692331	-0.906619	-2.272423	-0.702874	-1.612309	-0.955669	161.140798	-82.327912	130.850642			
10563	9.435577	0.878368	-2.223991	0.753703	-0.710542	-0.134216	160.986695	-81.410074	130.402983			
10564	9.353474	0.164615	-1.981625	-0.084701	-0.640943	-0.272168	161.895484	-80.543047	128.755772			
10565	9.624118	-1.619166	-2.575667	-1.658696	-1.653054	0.005306	162.687374	-79.687392	127.325888			
10566	10.630207	-2.309643	-2.865278	-2.396888	-1.874761	1.017079	163.501591	-78.945303	126.362051			
10567	10.811726	-2.153412	-1.859885	-2.639075	-0.750701	1.025250	164.826234	-78.483522	125.354632			
10568	9.766037	-1.394644	1.331262	-2.894105	2.369321	-0.587580	165.569261	-77.965728	124.771700			
10569	9.906515	-0.485699	1.836699	-2.275006	3.283415	-0.550406	165.735475	-77.088681	124.234720			
10570	11.125202	-0.118171	0.095361	-1.572222	2.182964	0.983298	165.846241	-76.193785	123.434854			
10571	10.544874	-0.300314	-0.318832	-1.580542	1.763744	0.472063	166.241534	-75.600538	122.426054			
10572	9.456028	-0.020887	0.124211	-1.332512	2.141599	-0.698447	166.627860	-74.984722	121.775530			
10573	9.804607	1.291378	-0.309540	-0.049397	2.336017	-0.198455	166.697309	-74.365248	121.617032			
10574	9.546577	2.152871	-0.661165	0.858880	2.314372	-0.319824	166.759408	-73.827755	121.549309			
10575	9.447903	2.661797	-0.497264	1.263040	2.680200	-0.441671	166.752639	-73.283600	121.444981			
10576	9.720736	2.708427	-0.115620	1.119433	3.184489	-0.302325	166.692764	-72.700419	121.091424			
10577	9.722454	1.757491	0.051185	0.148083	3.114452	-0.437445	166.544885	-72.101839	120.507907			
10578	9.929027	0.528887	-0.241490	-0.989967	2.613570	-0.267423	166.368277	-71.540105	119.844821			
10579	9.870077	-0.770742	-0.503707	-2.171254	2.071366	-0.364909	166.284978	-71.070934	119.238957			
10580	9.549365	-1.346880	-0.079634	-2.792278	2.297815	-0.872145	166.168069	-70.610323	118.806124			
10581	9.892964	-1.933134	-0.841860	-3.260061	1.630528	-0.377174	165.890574	-70.125656	118.499898			
10582	10.130296	-2.650703	-1.566093	-3.866736	0.943359	-0.001507	165.641781	-69.682251	118.235355			
10583	10.366344	-2.706026	-1.769707	-3.959678	0.903835	0.257998	165.330925	-69.247820	118.144634			
10584	10.879073	-2.098594	-1.746387	-3.509183	1.314932	0.759167	165.058767	-68.852541	118.104220			
10585	10.849885	-1.589047	-1.279806	-3.141432	1.924578	0.594520	164.873643	-68.520177	118.030195			
10586	11.053453	-1.131574	-0.845769	-2.844730	2.550809	0.655132	164.767621	-68.252247	117.998616			
10587	11.107787	-0.682361	-0.314344	-2.541298	3.197138	0.544309	164.738541	-68.079758	118.059673			
10588	11.100217	-0.056075	0.166738	-2.044834	3.800362	0.415783	164.651270	-67.980650	118.245700			
10589	11.190485	0.617395	0.143593	-1.426156	3.975470	0.569529	164.425285	-67.931476	118.477606			
10590	11.105788	1.120577	0.108141	-0.932782	4.031086	0.554866	164.109923	-67.941150	118.650346			
10591	10.621617	1.452209	0.293410	-0.564732	4.107150	0.078021	163.696027	-67.979671	118.744197			
10592	10.569070	1.541015	0.489880	-0.499967	4.274131	-0.024850	163.204768	-68.014333	118.740710			
10593	11.036770	1.162446	0.310975	-0.908466	4.162430	0.439488	162.665478	-68.060694	118.678348			
10594	11.537081	0.305626	0.250738	-1.806642	4.070440	0.837573	162.086116	-68.146190	118.655102			
10595	12.250082	-0.472813	0.545665	-2.725327	4.397986	1.314580	161.434175	-68.269123	118.755990			
10596	12.058863	-0.619760	0.959922	-2.885207	4.662926	0.987975	160.681977	-68.462924	119.005034			
10597	11.876026	0.164456	0.798703	-2.061666	4.558520	0.988891	159.787516	-68.698720	119.417211			
10598	12.346102	1.795317	0.091336	-0.467538	4.268784	1.901228	158.612438	-69.005940	120.050029			
10599	13.649374	2.359235	-0.502496	-0.088419	4.082703	3.432877	157.111360	-69.552640	120.976552			
10600	13.363112	1.578323	1.102366	-0.974856	5.179869	2.616818	155.463752	-70.458135	122.364413			
10601	13.222920	2.009906	1.901233	-0.608788	5.721469	2.409730	153.422922	-71.461961	124.307687			
10602	14.334173	2.608473	1.582745	-0.185176	5.514532	3.763899	150.901735	-72.549911	126.618740			
10603	13.969624	2.723006	-0.169134	0.207359	3.419260	4.002049	147.882955	-73.822054	129.056920			
10604	13.211899	2.510835	-2.693782	0.427253	0.406618	3.889679	144.428039	-75.111177	131.605670			
10605	14.525161	2.967814	-3.788283	0.793455	-0.759831	5.448917	140.774510	-76.441278	134.433916			
10606	14.448633	3.377418	-3.025638	1.238916	-0.421954	5.273527	136.813440	-77.922007	137.888231			
10607	13.815107	4.083204	-2.282891	2.106472	-0.134722	4.618917	132.783465	-79.305953	141.307668			
10608	13.868078	2.968354	-2.896554	1.172389	-1.195546	4.564707	129.098359	-80.587969	143.977402			
10609	13.813970	1.500703	-3.702009	-0.108364	-2.403810	4.364210	125.390947	-81.832245	146.340807			
10610	13.200180	0.087937	-5.108858	-1.295303	-4.178182	3.648780	120.592140	-83.147782	149.889259			
10611	11.591457	-0.928840	-4.507625	-2.045635	-3.931423	1.844800	113.314860	-84.355578	156.466932			
10612	11.375840	-0.548854	-3.364149	-1.544143	-3.040857	1.562330	101.524883	-85.184031	168.245754			
10613	11.130881	1.628269	-2.400736	0.741606	-2.341828	1.424345	85.346438	-85.646580	-175.238285			
10614	11.186556	2.550341	-1.525229	1.741797	-1.721708	1.499478	66.864697	-85.724128	-156.743725			
10615	10.658848	1.589398	-2.823557	0.908528	-3.257593	0.801741	49.033286	-85.400083	-138.914706			
10616	9.720213	1.312763	-2.640213	0.772801	-3.259486	-0.223631	35.175175	-84.664952	-124.885614			
10617	9.430071	1.634091	-1.529044	1.180159	-2.338424	-0.481591	25.432834	-83.774684	-114.905563			
10618	9.213502	1.575688	-0.895644	1.200375	-1.878666	-0.691290	18.225398	-82.853232	-107.684880			
10619	9.545063	0.855163	-1.344709	0.548215	-2.551781	-0.494311	12.462658	-81.897633	-102.042589			
10620	8.858618	-0.074594	-1.843243	-0.280029	-3.128056	-1.326688	8.206767	-80.905550	-97.699043			
10621	8.814735	0.217765	-1.437685	0.077887	-2.878727	-1.355851	5.431956	-79.867987	-94.726811			
10622	8.627587	-0.794964	-3.063146	-0.831657	-4.617047	-1.910922	3.241639	-78.788834	-92.004633			
10623	7.398293	-0.634163	-1.804065	-0.611110	-3.288952	-2.942561	2.264429	-77.710549	-90.264348			
10624	7.215570	0.036062	-2.110831	0.136647	-3.654139	-3.243966	1.777725	-76.678635	-88.937863			
10625	6.642690	0.276347	-1.927925	0.427497	-3.436344	-3.818844	1.645263	-75.742497	-87.953899			
10626	6.465932	0.548743	-2.233037	0.774641	-3.754425	-4.120671	1.790242	-74.859307	-87.215495			
10627	5.973899	0.946203	-1.911535	1.189532	-3.352525	-4.560859	2.187392	-74.038766	-86.770973			
10628	5.948236	1.357856	-1.843219	1.631021	-3.293648	-4.605576	2.726792	-73.312311	-86.527702			
10629	5.705006	1.910191	-1.698778	2.188884	-3.066152	-4.823793	3.331652	-72.674351	-86.459934			
10630	5.677116	2.183845	-1.645640	2.474442	-3.004349	-4.857100	3.826298	-72.114205	-86.393615			
10631	5.563577	2.506252	-1.433732	2.780481	-2.752998	-4.915738	4.240632	-71.616980	-86.358124			
10632	5.503363	2.402008	-1.554099	2.704879	-2.879968	-5.031346	4.511257	-71.231631	-86.252582			
10633	5.650975	2.274883	-1.300176	2.558070	-2.720103	-4.827072	4.780718	-70.944603	-86.170600			
10634	5.763467	2.052589	-1.082998	2.319722	-2.593823	-4.665405	4.974468	-70.735784	-86.005045			
10635	5.856571	1.815847	-0.946875	2.080733	-2.536171	-4.546601	5.115822	-70.562446	-85.712205			
10636	5.358109	2.034127	-0.623828	2.246874	-2.033420	-4.908311	5.279168	-70.412413	-85.390442			
10637	4.716820	2.538643	-0.114519	2.650623	-1.252769	-5.328163	5.399086	-70.391799	-85.153998			
10638	4.150241	2.555483	0.137682	2.610689	-0.808157	-5.774731	5.397838	-70.587752	-84.952498			
10639	4.158812	2.339255	0.094702	2.406392	-0.862555	-5.782551	5.214641	-71.069301	-84.883046			
10640	4.703672	1.351920	-0.253951	1.509342	-1.496871	-5.397060	4.824076	-71.774449	-84.824216			
10641	5.234541	0.287920	-0.086400	0.441807	-1.625046	-4.847379	4.422819	-72.667635	-84.863718			
10642	6.307560	-0.700716	0.210963	-0.561177	-1.728011	-3.728394	3.901590	-73.725130	-84.826463			
10643	7.920949	-1.966570	0.543442	-1.828985	-1.912998	-2.073392	3.135142	-74.868229	-84.675603			
10644	10.141820	-3.613404	0.759436	-3.441961	-2.321190	0.149759	2.345197	-75.969335	-84.492432			
10645	12.358658	-5.143890	1.891597	-5.072049	-1.757283	2.595244	2.250642	-76.817028	-84.673191			
10646	14.207505	-5.283233	3.407942	-5.425556	-0.592811	4.733462	3.856964	-77.326221	-85.704536			
10647	15.737412	-3.262769	5.564602	-3.886071	1.414116	6.684822	7.508493	-77.344555	-87.620919			
10648	17.530979	-0.764550	8.957239	-2.389379	4.458374	9.227549	12.042682	-76.567792	-89.492948			
10649	17.881537	1.741840	14.186208	-1.738799	9.324435	11.019074	15.251964	-74.838077	-89.492713			
10650	13.742001	3.967303	21.905923	-2.550699	17.426561	9.529487	15.950456	-73.007857	-87.322997			
10651	9.112488	3.243813	19.838112	-3.218952	16.220265	4.803845	15.423999	-72.559011	-85.795667			
10652	9.206289	0.828159	10.861825	-2.612124	7.289851	2.164599	14.419138	-72.795002	-84.655163			
10653	8.074903	1.137189	6.341619	-0.809646	3.706989	-0.204572	13.817198	-72.995093	-84.138148			
10654	7.391075	2.644107	4.734510	1.154146	2.974630	-1.218833	13.432326	-73.070699	-84.022239			
10655	6.938464	3.339462	3.475890	2.241332	2.205851	-1.971347	12.790101	-73.230674	-83.716585			
10656	7.077619	3.291869	2.908396	2.423763	1.660245	-2.018041	11.758153	-73.551091	-83.087696			
10657	8.540132	2.483761	0.892769	2.378438	-0.778271	-1.231501	10.737195	-74.121572	-82.473634			
10658	11.005202	2.381926	-1.653593	3.171489	-3.701264	0.471436	10.025218	-74.857288	-81.953113			
10659	12.995727	2.899201	-2.664667	4.054312	-4.825537	2.215109	8.900090	-75.813341	-81.058345			
10660	14.820884	2.180499	-4.598310	4.061391	-7.001060	3.605053	6.299154	-77.223576	-78.670374			
10661	17.209679	1.127979	-8.692730	4.476038	-11.248621	5.234506	2.397137	-78.739612	-74.810683			
10662	18.533092	-2.384160	-8.923372	1.415524	-12.424479	6.691984	0.670210	-79.505092	-72.421648			
10663	20.302324	-2.505051	1.339375	-1.754069	-3.219203	10.356659	6.167679	-79.084231	-75.190548			
10664	18.539970	4.429916	12.815767	0.023444	9.433998	11.125817	13.269154	-76.614917	-78.287801			
10665	4.044182	10.485951	11.928635	4.406684	13.843876	-2.233887	17.015689	-73.556142	-79.388698			
10666	-4.626609	10.643052	2.522005	8.012712	8.298115	-12.636770	17.922058	-73.078552	-79.534967			
10667	-6.455663	10.074253	-10.232887	13.280926	-2.375215	-17.925885	15.306252	-74.857391	-78.388723			
10668	-5.881637	7.480519	-16.952579	13.590735	-10.343667	-19.090141	10.379274	-77.283906	-76.902626			
10669	2.829264	1.097056	-20.745899	8.789705	-18.987933	-11.090325	6.764593	-79.738599	-76.439110			
10670	21.128443	-5.019577	-7.315935	-1.527024	-11.752223	9.798580	3.592088	-81.801466	-75.355825			
10671	18.387006	-8.899909	-1.381796	-7.310147	-6.498635	8.174041	0.136774	-82.543994	-71.675691			
10672	12.436474	-6.831389	2.640370	-6.812372	-1.191107	2.855303	-0.167580	-83.199459	-70.537520			
10673	11.286323	-4.474078	0.099909	-3.840332	-2.562774	1.416289	0.279752	-84.227657	-70.635971			
10674	11.272809	-3.782765	-2.732023	-2.300043	-4.816186	1.158213	-0.359491	-85.128086	-70.081865			
10675	9.012476	-3.771794	-1.542431	-2.802842	-3.378418	-0.949309	0.236123	-85.831999	-70.752954			
10676	7.909295	-2.554283	-0.583586	-2.057407	-1.900995	-1.965762	4.321459	-86.546574	-74.877615			
10677	8.060589	-1.196643	-0.989355	-0.718580	-1.752214	-1.825457	13.482258	-87.292152	-84.195239			
10678	9.383206	-0.716698	-2.366748	0.094064	-2.851182	-0.538025	29.863477	-87.983592	-100.712604			
10679	10.115359	-0.470056	-2.878367	0.395632	-3.163811	0.220182	52.264675	-88.410379	-122.941266			
10680	9.129412	0.364579	-2.330520	0.955511	-2.238796	-0.703129	79.393786	-88.500274	-149.419788			
10681	8.829145	1.747749	-1.352979	1.871668	-0.732110	-0.935851	103.329985	-88.172877	-172.258165			
10682	8.940875	3.493648	-0.532560	3.112021	0.798694	-0.751630	116.902502	-87.608339	175.640046			
10683	9.297075	5.212836	0.896259	4.010523	2.936598	-0.341635	124.553370	-87.114047	169.315167			
10684	8.714081	5.629875	2.702084	3.578141	4.887562	-0.967411	132.763466	-86.721413	161.618189			
10685	8.251026	4.948610	2.106371	3.190548	4.154283	-1.472033	143.361294	-86.103821	150.345019			
10686	9.116238	3.238391	-0.387066	2.573157	1.304341	-0.570417	152.183805	-85.338124	140.161264			
10687	9.176324	1.649573	-1.598071	1.530299	-0.328352	-0.483729	156.527182	-84.648596	134.295521			
10688	9.321882	0.792109	-1.151623	0.510460	-0.124266	-0.401298	158.306809	-83.985973	131.210259			
10689	9.409452	0.777825	-1.155613	0.437690	-0.041951	-0.310891	159.211365	-83.370839	129.210203			
10690	9.349216	0.761710	-1.601464	0.511851	-0.393789	-0.318747	160.115306	-82.778529	127.245362			
10691	9.561403	-0.000571	-3.199458	0.174568	-2.031360	0.061462	161.299521	-82.196854	125.011986			
10692	9.542394	-1.290587	-3.311774	-1.091621	-2.402425	0.022258	162.877283	-81.643730	122.762473			
10693	9.917062	-1.888454	-1.936496	-2.104287	-1.087729	0.189901	164.017214	-81.024049	121.163687			
10694	10.343886	-2.360539	-0.838441	-2.909162	0.018926	0.424798	165.117486	-80.405238	119.777027			
10695	9.761475	-2.150614	0.750398	-3.079422	1.633181	-0.414653	166.152352	-79.738148	118.424964			
10696	9.703306	-1.753653	0.085669	-2.554760	1.228194	-0.368134	166.508790	-78.982345	117.373759			
10697	9.685554	-1.611029	-1.176995	-2.161411	0.203555	-0.165126	166.822495	-78.232950	116.136377			
10698	9.256779	-1.623754	-2.156766	-1.972623	-0.668101	-0.397981	167.101485	-77.524344	114.952221			
10699	8.976128	-1.203396	-3.078942	-1.409458	-1.383024	-0.453308	167.224866	-76.796577	114.207402			
10700	9.318611	-0.282483	-3.330488	-0.546552	-1.248683	-0.007108	167.342303	-76.133520	113.958649			
10701	9.471305	0.662013	-2.214040	0.114806	0.142096	-0.065298	167.434586	-75.533100	114.076616			
10702	9.960292	1.365729	-1.134313	0.510253	1.519041	0.176838	167.564779	-74.998288	114.306062			
10703	10.139212	1.754948	0.009817	0.611914	2.814157	0.066025	167.902885	-74.553989	114.362843			
10704	9.966689	1.832611	0.840426	0.510575	3.649125	-0.335222	168.313976	-74.159055	114.225772			
10705	9.917185	1.934366	1.313640	0.499823	4.171448	-0.530081	168.616392	-73.772195	113.931957			
10706	9.645298	1.920359	1.396118	0.497302	4.237280	-0.842376	168.760040	-73.356774	113.425795			
10707	9.569456	1.199562	0.853842	-0.080281	3.613827	-0.830715	168.736913	-72.886479	112.754510			
10708	9.713081	0.326642	0.229210	-0.825584	2.959550	-0.589779	168.528879	-72.400264	112.088643			
10709	10.058283	-0.417249	-0.268195	-1.510070	2.531292	-0.183224	168.200705	-71.927060	111.493392			
10710	10.434319	-1.112764	-1.008088	-2.135976	1.912922	0.331623	167.819951	-71.504653	110.993492			
10711	10.674268	-1.595793	-1.333205	-2.612774	1.687645	0.607900	167.518737	-71.164741	110.593461			
10712	10.759782	-1.786110	-1.235903	-2.838785	1.848703	0.628280	167.261299	-70.906708	110.359571			
10713	10.789543	-1.557154	-0.756677	-2.683676	2.394455	0.506025	167.031180	-70.717082	110.239672			
10714	10.871142	-1.214871	-0.607394	-2.379382	2.644444	0.549355	166.861364	-70.578103	110.139735			
10715	10.820039	-0.956328	-0.598694	-2.125594	2.694138	0.510572	166.682254	-70.505016	110.147646			
10716	10.791059	-0.518282	-0.739222	-1.683751	2.619143	0.558768	166.462886	-70.476576	110.259528			
10717	10.728605	-0.004773	-0.924594	-1.159068	2.487672	0.600089	166.291628	-70.523057	110.414836			
10718	10.466417	0.474379	-0.771285	-0.675098	2.594818	0.344916	166.165773	-70.638294	110.625193			
10719	10.403851	1.104231	-0.809592	-0.047728	2.596366	0.354486	165.941927	-70.779749	110.945406			
10720	10.624477	1.673952	-0.893559	0.488976	2.631234	0.642814	165.684675	-70.929526	111.287304			
10721	10.951736	2.162431	-0.291098	0.861114	3.334178	0.810071	165.249371	-71.042863	111.598266			
10722	11.211710	2.090912	-0.113366	0.731944	3.542321	1.004122	164.608322	-71.080936	111.795262			
10723	11.619055	1.756479	-0.101896	0.341304	3.611282	1.364976	163.796990	-71.063241	111.966800			
10724	11.872668	1.779804	-0.083261	0.317151	3.682929	1.609668	162.826712	-71.080070	112.289148			
10725	11.824722	1.912029	0.668676	0.387746	4.353047	1.359930	161.834762	-71.234180	112.740590			
10726	11.857227	2.175908	1.731618	0.573878	5.326863	1.124467	160.704302	-71.551471	113.442434			
10727	12.086145	3.027121	2.001050	1.365005	5.620555	1.402797	159.269268	-71.994474	114.476560			
10728	12.086306	3.254492	2.204859	1.574541	5.691061	1.441727	157.528792	-72.589846	115.683636			
10729	12.905721	2.410753	2.302195	0.641230	5.771841	2.184838	155.570847	-73.246241	116.839806			
10730	14.190345	1.075184	0.736148	-0.795728	4.310222	3.746373	153.179844	-74.013976	118.292332			
10731	13.593767	0.721641	-1.188563	-1.062812	2.025042	3.658985	150.002334	-75.051663	120.716861			
10732	12.372351	1.848947	-2.339713	0.175055	0.338775	2.907860	145.898445	-76.259306	124.440998			
10733	12.895572	3.908326	-2.136604	2.097018	0.304881	3.664390	140.505595	-77.493040	129.749730			
10734	14.174163	5.877064	-0.691691	3.821180	1.533536	4.984356	133.441272	-78.705205	136.785714			
10735	13.535607	6.959706	0.444241	4.950503	2.108360	4.430726	125.381300	-79.799521	144.440340			
10736	12.815278	5.360318	-0.428717	3.477817	0.710971	3.623579	118.451218	-80.728078	150.243155			
10737	12.945951	2.781164	-1.862857	0.917574	-1.013532	3.488676	113.034603	-81.578949	153.944530			
10738	13.091436	0.816746	-3.226957	-1.085147	-2.508974	3.415708	108.008756	-82.457204	156.731764			
10739	13.107902	-1.122430	-4.484010	-3.116974	-3.735375	3.207054	102.068712	-83.402278	160.329467			
10740	12.376631	-2.526899	-4.638093	-4.444471	-3.854868	2.289511	92.344021	-84.273352	168.350161			
10741	11.045688	-1.907970	-3.769746	-3.555828	-3.288139	0.976167	78.603049	-84.765746	-178.923661			
10742	10.000888	-1.187769	-2.706879	-2.552042	-2.558605	-0.030383	64.908197	-84.829958	-165.870413			
10743	10.289394	-0.365885	-3.745527	-1.968044	-3.914582	0.228960	53.782958	-84.607415	-155.280752			
10744	10.355032	-0.031327	-4.216903	-1.739660	-4.622284	0.217991	43.035639	-84.197629	-144.820070			
10745	10.003478	-0.361520	-3.423452	-1.851634	-3.948663	-0.174421	33.562811	-83.607830	-135.395844			
10746	9.442456	-0.953067	-2.862498	-2.232933	-3.433505	-0.785877	26.086844	-82.801798	-127.563925			
10747	9.605044	-0.805034	-3.048989	-2.083195	-3.866301	-0.707252	20.745234	-81.911312	-121.527846			
10748	8.741217	-0.799629	-1.723182	-1.713439	-2.675201	-1.450792	16.887404	-80.931317	-116.602182			
10749	8.420498	-0.130215	-0.926157	-0.862811	-2.149024	-1.663187	14.705689	-79.941458	-113.515111			
10750	8.401457	0.153113	-0.638854	-0.517682	-2.064850	-1.659003	12.753061	-79.029471	-110.940862			
10751	8.048977	-1.016022	-1.899536	-1.784795	-3.201063	-2.329893	10.769850	-78.199859	-108.300154			
10752	7.394337	-1.277923	-1.566847	-1.917066	-2.855194	-2.961763	9.727922	-77.308457	-106.418897			
10753	7.352056	-0.441567	-1.731608	-1.067646	-3.230884	-3.054994	9.298579	-76.510610	-105.139194			
10754	7.241586	0.048175	-1.711450	-0.535067	-3.340183	-3.184882	8.823583	-75.774419	-103.838032			
10755	6.812813	0.340168	-1.374906	-0.155876	-3.023871	-3.547566	8.428934	-75.106332	-102.720522			
10756	6.856152	0.350565	-2.258064	-0.169387	-3.956270	-3.767258	8.212128	-74.542355	-101.780100			
10757	6.767343	0.499223	-2.406647	0.020187	-4.143888	-3.924959	8.291462	-74.000053	-101.040570			
10758	6.466371	1.060094	-2.035162	0.652178	-3.781889	-4.124867	8.600911	-73.485677	-100.507668			
10759	6.426903	1.515262	-1.853822	1.147032	-3.646146	-4.118169	9.014007	-73.061597	-100.119283			
10760	6.308676	1.784339	-1.886409	1.451274	-3.668786	-4.247124	9.409247	-72.715442	-99.781471			
10761	6.318387	1.981569	-1.617291	1.673599	-3.425970	-4.162377	9.861456	-72.435651	-99.523408			
10762	6.155198	2.360755	-1.274423	2.075852	-3.051158	-4.203317	10.334501	-72.215192	-99.336495			
10763	5.983744	2.568291	-1.006451	2.299332	-2.734622	-4.276520	10.729832	-72.079484	-99.165111			
10764	5.543153	2.856747	-0.736715	2.609907	-2.323566	-4.595438	11.049602	-72.055094	-99.035734			
10765	5.049767	3.345293	-0.719124	3.128527	-2.120845	-5.024939	11.230541	-72.192995	-98.926702			
10766	4.604367	3.488472	-0.960626	3.312351	-2.182747	-5.504987	11.241726	-72.486160	-98.780405			
10767	4.384476	3.363894	-1.113076	3.214098	-2.233464	-5.755665	11.320794	-72.905048	-98.735065			
10768	4.609567	3.358674	-0.804932	3.185357	-1.965803	-5.434827	11.730068	-73.425280	-99.124505			
10769	5.385231	3.386038	-0.058653	3.131860	-1.422730	-4.461383	12.345964	-74.053076	-99.921098			
10770	6.409744	2.643379	0.877894	2.289104	-0.759709	-3.253322	12.873258	-74.859483	-100.776857			
10771	7.750643	1.096505	1.739272	0.646384	-0.213291	-1.822994	13.255765	-75.804387	-101.628700			
10772	9.592613	-0.602052	2.974707	-1.157826	0.662907	0.159602	13.347191	-76.828551	-102.232356			
10773	12.075605	-2.943325	4.056702	-3.583682	1.339324	2.689266	12.858573	-77.768575	-102.260365			
10774	14.151305	-5.183651	5.123480	-5.863539	2.129972	4.831755	12.460653	-78.322223	-102.034719			
10775	15.951837	-5.377974	5.529253	-6.165983	2.215967	6.650152	13.908447	-78.361403	-102.625653			
10776	17.001186	-2.367751	7.252215	-3.529243	3.597573	8.126700	17.822277	-77.862720	-103.914807			
10777	16.846958	2.308192	10.686012	0.247274	6.971796	9.018188	22.246737	-76.452935	-104.908081			
10778	13.708941	5.843853	14.113240	2.630382	11.028929	7.293602	24.195041	-74.437133	-103.871056			
10779	8.366082	5.861988	17.369402	1.729139	15.178526	3.326511	23.193669	-73.077521	-101.217623			
10780	6.972025	0.702258	12.850117	-2.479030	10.188091	0.399298	21.710354	-72.991916	-99.349441			
10781	8.129245	0.348175	7.952654	-1.774375	5.201536	0.149520	20.937919	-73.354718	-98.680083			
10782	8.617541	1.689083	5.494230	0.111883	3.075150	0.078309	20.194730	-73.688930	-98.489683			
10783	7.886243	1.941762	3.802869	0.816389	1.766812	-1.058464	18.946485	-73.908213	-97.923497			
10784	6.507557	1.187734	1.934557	0.558050	0.260367	-2.948132	17.713448	-74.101438	-97.123485			
10785	6.239211	1.077952	0.374079	0.785590	-1.141087	-3.623154	16.984192	-74.442136	-96.718453			
10786	7.404208	0.597109	-1.454843	0.630724	-3.221853	-2.992363	16.208320	-75.011284	-96.145174			
10787	9.262129	-0.203547	-2.749463	0.050226	-4.983154	-1.533048	15.576407	-75.722903	-95.531352			
10788	11.296082	-0.091343	-2.709287	0.142341	-5.306577	0.520167	15.004572	-76.503467	-94.942519			
10789	12.714776	-0.206655	-3.302917	0.150040	-6.057634	1.844749	14.044341	-77.485643	-94.108941			
10790	14.419759	0.160176	-4.609202	0.779126	-7.377937	3.383865	12.608065	-78.775601	-92.709137			
10791	16.940174	0.126880	-6.214119	1.064986	-9.130380	5.714480	11.524273	-79.885217	-91.780291			
10792	18.038003	-1.586589	-4.646421	-0.875655	-7.848849	7.131384	13.814935	-80.512680	-93.295134			
10793	19.170348	1.125376	1.096136	0.566777	-1.869165	9.322277	20.779188	-80.450433	-98.018561			
10794	18.523418	6.419154	7.653139	3.741390	5.608316	10.121862	27.326196	-79.081641	-101.556374			
10795	12.058430	10.108163	11.410648	5.741676	11.106501	5.066548	29.531112	-76.937218	-101.019444			
10796	3.112089	8.690911	11.904900	3.985293	13.009474	-3.348532	29.533961	-75.890423	-98.734139			
10797	-0.247968	6.039711	4.975540	3.789103	6.681879	-8.299928	30.230559	-76.398414	-98.295699			
10798	0.428137	5.592895	-3.224004	6.376539	-1.007898	-9.386245	30.442972	-77.535996	-98.684012			
10799	0.575709	7.853338	-9.663775	10.755198	-6.290534	-10.174766	28.323341	-79.028560	-98.734744			
10800	-1.633599	8.548861	-19.812238	14.145925	-15.859790	-13.859210	22.716179	-81.098931	-97.528051			
10801	2.059903	3.065929	-22.463095	8.326901	-21.174969	-10.418950	17.281860	-83.664143	-94.850986			
10802	9.843666	-0.294476	-9.700599	1.547110	-10.452682	-0.901325	20.090692	-85.377643	-99.416292			
10803	18.853917	-7.015256	0.410217	-7.317003	-2.226956	8.797585	31.760020	-86.183457	-111.039671			
10804	14.838470	-6.912604	4.015023	-7.930064	1.723985	4.959788	37.275841	-86.634102	-115.310013			
10805	14.393594	-8.141244	6.698183	-9.743290	4.123079	4.553555	43.274166	-87.120532	-120.703862			
10806	13.722634	-8.047959	4.242505	-9.147564	1.892537	3.745201	55.070173	-87.553888	-132.651543			
10807	12.973113	-6.894932	-0.623931	-6.996174	-2.450377	2.886894	63.417392	-87.617982	-141.176261			
10808	10.520208	-4.329347	0.190643	-4.626157	-0.984091	0.535471	68.606438	-87.565328	-146.511865			
10809	8.741204	-2.627264	-1.608004	-2.564403	-2.292570	-1.206631	78.282535	-87.517058	-156.526691			
10810	7.962320	-1.563459	-3.626565	-1.132381	-3.964514	-1.939036	92.013702	-87.439764	-170.513130			
10811	7.364462	-0.399785	-4.401520	0.137679	-4.399977	-2.437828	107.736205	-87.140904	173.690374			
10812	7.666310	0.840093	-4.840189	1.385240	-4.481573	-2.008796	119.741777	-86.631140	161.962532			
10813	7.601202	2.095117	-4.093102	2.450846	-3.376408	-1.969681	127.505817	-86.016425	155.111137			
10814	7.949581	3.395818	-2.889299	3.423441	-1.754248	-1.549791	131.800237	-85.336595	152.293126			
10815	8.834830	4.595458	-1.387557	4.106803	0.207523	-0.637430	133.515513	-84.735946	152.274647			
10816	9.252036	5.415863	0.323588	4.303779	2.266535	-0.253728	134.631568	-84.332802	152.638251			
10817	8.620143	5.294636	1.701452	3.747910	3.641439	-0.985067	136.579178	-84.035124	151.421701			
10818	8.233647	4.653820	1.720762	3.127776	3.520319	-1.431995	139.889228	-83.597009	147.851578			
10819	8.594722	3.624348	0.540028	2.466271	2.168938	-1.065712	143.820663	-82.984095	142.940291			
10820	8.852795	2.694333	-0.840194	1.934038	0.676053	-0.749620	147.498878	-82.274058	137.928435			
10821	8.947560	1.858225	-2.310733	1.463495	-0.862115	-0.540945	150.570542	-81.538028	133.365623			
10822	9.154735	0.786702	-3.736424	0.665349	-2.370088	-0.203994	153.149207	-80.817839	129.345915			
10823	9.287755	-1.077525	-5.371491	-0.910810	-4.217998	0.069250	155.334961	-80.178170	126.187377			
10824	9.080534	-1.858636	-3.308905	-2.116229	-2.276982	-0.474857	156.635007	-79.549154	124.549972			
10825	9.573527	-1.027662	-1.959923	-1.654798	-0.625871	-0.147351	156.782738	-78.909326	124.343838			
10826	10.070231	-0.424379	-1.171182	-1.312327	0.429803	0.239851	157.354931	-78.344159	123.760781			
10827	9.926543	-0.671880	-0.214988	-1.742293	1.372520	-0.111465	158.086603	-77.829751	122.837193			
10828	9.876379	-0.923903	-0.437198	-1.964376	1.198094	-0.153884	158.722564	-77.292351	121.820530			
10829	9.905793	-0.907921	-0.927319	-1.890582	0.837666	-0.038640	159.282427	-76.746027	120.836101			
10830	9.853105	-0.660606	-1.597022	-1.558969	0.331298	0.063015	159.747564	-76.210237	119.943194			
10831	9.645609	-0.438515	-2.158157	-1.256916	-0.115325	0.000252	160.220427	-75.698042	119.147922			
10832	9.684059	-0.090018	-2.122500	-0.950233	0.078342	0.055663	160.690041	-75.192925	118.548715			
10833	9.753370	0.695694	-1.710973	-0.271388	0.708660	0.084946	161.102447	-74.694606	118.153494			
10834	9.817695	1.336999	-1.355864	0.272441	1.257436	0.104825	161.434404	-74.197240	117.873328			
10835	9.717113	1.992349	-1.005719	0.851021	1.759768	-0.036101	161.730183	-73.747523	117.650747			
10836	9.524331	2.391324	-0.445387	1.162810	2.386413	-0.347902	162.026483	-73.346590	117.426525			
10837	9.543177	2.538449	0.409195	1.161847	3.291297	-0.566037	162.287807	-72.987494	117.171912			
10838	9.632116	2.505867	1.291935	0.979903	4.199830	-0.750287	162.432714	-72.637278	116.834034			
10839	10.017768	1.988040	1.594734	0.380858	4.549847	-0.538815	162.407277	-72.257379	116.347204			
10840	10.582411	1.075700	1.299858	-0.534455	4.332235	-0.025971	162.204429	-71.853849	115.693206			
10841	11.015312	-0.127414	0.644142	-1.673398	3.725100	0.438698	161.879607	-71.488892	114.869520			
10842	11.102452	-1.502116	-0.487492	-2.905558	2.590016	0.704299	161.631851	-71.208757	113.844002			
10843	10.925386	-2.919975	-1.620953	-4.181076	1.408676	0.725392	161.613481	-71.054771	112.799059			
10844	10.338104	-3.659567	-1.850972	-4.817898	1.031457	0.158195	161.552173	-70.973639	112.191545			
10845	10.399239	-2.956822	-1.764821	-4.141593	1.236930	0.253029	161.165449	-70.870423	112.274395			
10846	10.844053	-1.428051	-1.480738	-2.714771	1.776401	0.737183	160.790662	-70.802768	112.548688			
10847	10.860160	-0.442234	-1.111376	-1.771885	2.207796	0.740031	160.521243	-70.795713	112.741694			
10848	10.731020	0.061735	-1.269990	-1.258303	2.047873	0.722698	160.349174	-70.849306	112.835271			
10849	10.680468	0.232682	-1.476092	-1.077822	1.833530	0.760005	160.222997	-70.941501	113.002248			
10850	10.703030	0.589508	-1.791056	-0.717440	1.541934	0.921273	160.150233	-71.086003	113.380120			
10851	10.521793	1.626612	-1.004511	0.288020	2.281792	0.631129	159.735791	-71.287165	114.183819			
10852	11.170708	2.701495	-0.432890	1.206289	3.065339	1.206316	158.972897	-71.451320	115.157284			
10853	11.680724	3.323897	0.364119	1.677517	3.978955	1.543971	158.166314	-71.621179	115.856152			
10854	11.265521	3.141785	0.780075	1.521473	4.191838	1.027271	157.456512	-71.721147	116.097592			
10855	11.613849	2.988016	0.039645	1.350749	3.523983	1.570112	156.589503	-71.749120	116.247476			
10856	12.240594	2.828870	0.098075	1.099338	3.687700	2.147085	155.552090	-71.898865	116.604017			
10857	12.615840	2.371631	1.330021	0.573398	4.863988	2.127367	154.322260	-72.202727	117.201657			
10858	13.528603	1.908758	1.552976	-0.006570	5.193798	2.919205	152.700860	-72.583063	118.028023			
10859	14.151182	0.966744	0.585691	-1.031045	4.261475	3.689476	150.700737	-73.040627	119.038550			
10860	14.101449	0.030842	-0.416739	-1.978058	3.117904	3.803092	148.668933	-73.595810	120.071131			
10861	12.944573	-0.223172	-1.174234	-2.108662	1.931021	2.868488	146.178986	-74.335517	121.688137			
10862	11.917577	0.546480	-0.959154	-1.214547	1.675571	1.975435	143.071385	-75.233694	124.235681			
10863	10.696120	1.737958	-0.832404	0.115188	1.261806	0.981270	139.320336	-76.211563	127.882044			
10864	10.208590	3.628212	-1.296849	1.981758	0.397568	0.909723	134.490084	-77.117737	132.913480			
10865	11.216914	5.424658	-0.330994	3.602493	1.180071	2.060689	128.432139	-78.048461	139.249640			
10866	11.070129	5.869200	0.652466	4.069960	1.806094	1.916982	121.532984	-78.921319	146.075433			
10867	10.863653	5.535923	0.409633	3.748371	1.223654	1.731846	114.553227	-79.648913	152.418765			
10868	10.785744	3.965553	-1.094194	2.134705	-0.521277	1.519536	108.195820	-80.311823	157.610304			
10869	10.954076	2.653773	-2.036809	0.759119	-1.626930	1.499021	102.325617	-80.970048	161.892177			
10870	11.003507	1.124182	-3.324915	-0.884847	-2.963292	1.315177	96.578314	-81.679843	165.696440			
10871	11.232645	-0.291489	-3.824558	-2.378263	-3.406187	1.305994	90.464649	-82.448416	169.912496			
10872	10.955705	-1.310254	-3.854029	-3.341019	-3.400867	0.858192	81.134894	-83.085259	177.638097			
10873	9.879249	-1.860742	-4.314803	-3.835543	-3.887173	-0.333432	70.714932	-83.450244	-173.031049			
10874	9.836920	-2.166161	-4.770230	-4.211909	-4.406332	-0.482404	60.623860	-83.554999	-163.391511			
10875	9.816626	-1.893887	-4.320795	-3.819337	-4.191518	-0.514136	51.440381	-83.325594	-154.207348			
10876	9.999207	-1.262491	-3.978070	-3.115396	-4.188174	-0.317784	43.579789	-82.921494	-146.108903			
10877	9.563542	-1.282392	-3.482839	-2.937190	-3.848510	-0.768624	37.028464	-82.484259	-139.178027			
10878	10.548474	-2.237745	-3.805315	-3.963622	-4.225730	0.045660	31.452338	-82.001407	-132.951680			
10879	9.713856	-2.002047	-1.774885	-3.192336	-2.432796	-0.571336	26.173383	-81.166564	-126.652574			
10880	9.541690	-1.021805	-1.362804	-2.090324	-2.410493	-0.660542	22.247705	-80.379839	-121.867309			
10881	9.119600	-1.262295	-0.914940	-2.164257	-2.048278	-1.053932	18.794953	-79.738768	-117.749429			
10882	9.650478	-2.020829	-1.671008	-3.007884	-2.913919	-0.731587	16.002138	-79.039509	-114.217337			
10883	8.586525	-1.399299	-1.222600	-2.194768	-2.547606	-1.696545	14.129816	-78.304627	-111.519025			
10884	8.337749	-0.734430	-1.822831	-1.539478	-3.304631	-2.061036	12.897717	-77.699594	-109.388469			
10885	8.027762	-0.203909	-2.125671	-0.959312	-3.704761	-2.439888	11.949121	-77.122329	-107.399678			
10886	7.581920	0.359434	-1.933679	-0.282392	-3.564699	-2.843754	11.256574	-76.586321	-105.589587			
10887	7.352346	0.722811	-1.703731	0.176270	-3.382058	-3.029462	10.857774	-76.129059	-104.084814			
10888	7.149387	1.228796	-1.496596	0.763172	-3.204106	-3.178355	10.634900	-75.776435	-102.771122			
10889	7.285753	1.678860	-1.258084	1.265805	-3.043730	-2.985041	10.539895	-75.492984	-101.677590			
10890	7.216033	1.954223	-1.151928	1.592060	-2.936520	-3.026003	10.496101	-75.272692	-100.705073			
10891	7.318573	2.252810	-0.990271	1.926889	-2.806833	-2.882612	10.393785	-75.069296	-99.772925			
10892	6.970512	2.353177	-0.747997	2.074310	-2.479964	-3.161981	10.239211	-74.882678	-98.898235			
10893	6.711211	2.789093	-0.277175	2.535779	-1.940221	-3.278048	10.091042	-74.770882	-98.074199			
10894	6.603308	3.280500	0.050274	3.041972	-1.560057	-3.279663	9.832267	-74.728710	-97.210492			
10895	6.073689	3.580532	-0.047584	3.385896	-1.475255	-3.806741	9.581745	-74.741134	-96.455824			
10896	5.553142	3.974053	-0.377649	3.832498	-1.604325	-4.380279	9.329487	-74.865873	-95.824860			
10897	5.072791	3.883311	-0.717994	3.794840	-1.774570	-4.936340	9.002322	-75.117054	-95.228544			
10898	4.807484	3.467996	-0.976565	3.420084	-1.940419	-5.270639	8.866870	-75.486592	-94.863640			
10899	5.096859	3.378048	-0.787634	3.320577	-1.787750	-4.935495	9.064566	-75.948846	-94.817033			
10900	5.748680	3.171648	-0.172015	3.057502	-1.304564	-4.148265	9.464939	-76.500888	-95.012180			
10901	6.432145	2.620065	0.423027	2.443304	-0.854922	-3.353969	10.021462	-77.134042	-95.424145			
10902	7.389481	1.968535	1.032852	1.711902	-0.439477	-2.301237	10.960294	-77.812457	-96.375488			
10903	8.662343	1.200681	1.438377	0.861816	-0.272753	-0.996300	12.162597	-78.473520	-97.715397			
10904	10.105525	-0.014958	2.546080	-0.501716	0.544635	0.582258	13.320530	-79.076617	-98.970329			
10905	11.660381	-1.477444	4.096747	-2.154556	1.773899	2.317479	14.494902	-79.517721	-100.058248			
10906	13.186703	-2.584121	5.140262	-3.447892	2.500702	3.929473	16.081498	-79.680421	-101.049399			
10907	14.447377	-2.228996	5.917869	-3.356292	3.028192	5.296153	18.732526	-79.518778	-102.177294			
10908	15.433659	-0.101319	7.858518	-1.821186	4.843578	6.715195	22.166885	-79.008180	-103.215884			
10909	15.306403	2.147894	10.619078	-0.507601	7.672516	7.290238	24.569243	-78.130082	-103.092051			
10910	13.483783	2.975029	12.927114	-0.550281	10.146752	6.140095	24.390397	-77.154753	-100.892162			
10911	10.410565	1.775599	14.309258	-2.191652	11.615482	3.474801	22.562333	-76.510935	-98.014349			
10912	8.995291	-0.002528	11.223350	-3.145983	8.492824	1.361100	21.252799	-76.537234	-96.440547			
10913	9.412957	0.603107	6.427088	-1.306433	4.058808	0.774740	20.748562	-76.952053	-96.048275			
10914	9.380527	1.521974	3.222318	0.439446	1.330854	0.123580	20.144454	-77.267307	-95.728756			
10915	8.449351	1.869785	2.097165	1.122419	0.575784	-0.998259	18.724452	-77.284593	-94.673047			
10916	7.405493	1.429792	1.547548	0.895044	0.173760	-2.167486	17.370146	-77.289739	-93.598124			
10917	8.761934	1.813044	0.986329	1.406342	-0.550318	-0.938530	17.184124	-77.596354	-93.679991			
10918	11.290147	2.440201	-2.229294	2.725018	-3.934926	0.933535	17.656900	-78.197243	-94.420009			
10919	12.325013	2.908494	-4.640254	3.689622	-6.242479	1.558954	17.659324	-78.797718	-94.795223			
10920	13.200205	2.637733	-4.014579	3.242444	-5.762655	2.580721	17.036850	-79.553508	-94.834281			
10921	16.503569	2.020747	-4.894416	2.725543	-7.148098	5.739668	16.860403	-80.619817	-95.534543			
10922	19.807006	1.109908	-5.762363	1.898141	-8.457541	8.938725	17.013279	-81.381169	-96.034080			
10923	17.082150	-0.734663	-2.632373	-0.457592	-5.269190	6.658336	18.129533	-81.186004	-95.936382			
10924	13.136199	0.369533	1.713745	-0.279825	-0.380716	3.431339	21.643949	-80.207948	-96.524314			
10925	10.076494	2.800636	6.052184	0.707637	4.656340	1.314083	24.544562	-78.676773	-95.843063			
10926	6.585251	3.708695	8.190969	0.523991	7.383233	-1.481868	25.131490	-77.005856	-93.409131			
10927	2.093960	3.303447	5.827428	0.790124	5.989169	-6.240677	24.500467	-76.419634	-91.116054			
10928	-1.003024	3.039070	-0.227908	2.888073	1.182990	-10.556520	23.875414	-77.574000	-91.005479			
10929	-2.287119	5.989062	-8.708635	8.760871	-5.378476	-13.162127	22.173481	-79.907219	-92.393788			
10930	-1.560984	4.754669	-19.790066	10.625578	-16.911014	-14.010095	18.463891	-81.981087	-92.435155			
10931	9.019576	-1.023363	-12.266747	2.133107	-13.107524	-2.297735	23.174502	-84.070264	-98.838677			
10932	22.555971	-6.377221	-4.674725	-5.479512	-8.257166	11.937707	31.092724	-84.588722	-106.474955			
10933	12.066672	-2.644063	-1.341127	-2.511481	-3.090669	1.957340	33.065006	-84.483955	-106.592007			
10934	10.373475	-1.312141	0.701994	-1.762350	-0.653069	0.497064	36.423806	-84.550422	-109.015096			
10935	10.524515	-0.366204	-1.444188	-0.246514	-2.392644	0.541020	39.210698	-84.862971	-111.484432			
10936	9.580360	0.058752	-2.423423	0.475525	-3.044918	-0.423248	43.106854	-85.185749	-115.057914			
10937	9.765634	0.829577	-2.088129	1.068708	-2.427723	-0.149387	49.723105	-85.358844	-121.073538			
10938	9.841357	1.745451	-1.158502	1.579258	-1.189323	0.052997	56.406952	-85.330097	-127.060861			
10939	9.221244	2.387571	-0.639958	1.979756	-0.391263	-0.481645	61.728077	-85.266732	-131.998738			
10940	8.927246	2.401730	-0.323584	1.856522	-0.020368	-0.750605	66.623365	-85.383883	-137.076033			
10941	8.984168	1.402464	-0.830106	1.057051	-0.772281	-0.776259	72.416890	-85.657368	-143.503762			
10942	9.231441	0.125724	-2.098610	0.222936	-2.318887	-0.635984	78.496081	-85.921493	-150.231813			
10943	8.833796	-0.751516	-2.225784	-0.566676	-2.624698	-1.075169	84.773287	-86.053095	-156.571451			
10944	8.873192	0.162034	-1.437483	0.021798	-1.526210	-0.952896	91.786901	-85.874658	-163.160315			
10945	10.014214	1.902458	-0.754394	1.314827	-0.279369	0.319698	97.793567	-85.565907	-168.620479			
10946	10.572913	2.910977	-0.109216	1.946797	0.728985	0.955321	102.871369	-85.338568	-173.413189			
10947	10.354391	2.464711	-0.264012	1.555547	0.515481	0.707382	108.509630	-85.229057	-179.111000			
10948	10.359410	1.845509	-0.773485	1.119198	-0.098759	0.678206	113.084723	-85.114617	175.852345			
10949	10.109833	1.006746	-1.165819	0.460015	-0.685264	0.380444	116.955369	-85.036131	171.458795			
10950	9.776352	0.349981	-1.247055	-0.123044	-0.924120	0.004918	119.646894	-84.928799	168.334980			
10951	9.681135	0.038725	-1.126311	-0.466920	-0.869000	-0.116238	121.393321	-84.782110	166.335331			
10952	9.905923	0.131108	-0.814870	-0.517433	-0.510090	0.100964	122.430894	-84.613160	165.151488			
10953	10.229694	0.306532	-0.729396	-0.431047	-0.345177	0.432681	123.169314	-84.454652	164.216346			
10954	10.371751	0.054541	-1.244452	-0.553705	-0.885720	0.581238	124.022376	-84.346154	163.055171			
10955	10.378092	-0.328145	-1.741764	-0.788299	-1.450074	0.585487	125.049139	-84.304235	161.716177			
10956	10.012215	-0.653990	-1.768839	-1.061876	-1.556778	0.199792	126.338878	-84.283261	160.290131			
10957	9.661389	-0.559759	-1.521683	-1.010965	-1.279824	-0.152914	127.702684	-84.202679	158.961765			
10958	9.790007	0.076510	-1.295182	-0.487640	-0.846936	0.014439	129.063236	-84.076882	157.662065			
10959	9.798344	0.539608	-1.081869	-0.117919	-0.479676	0.047591	130.318562	-83.957529	156.323342			
10960	9.670240	0.655835	-1.223099	0.035095	-0.557475	-0.059352	131.620912	-83.850557	154.779222			
10961	9.423378	0.677916	-1.469987	0.138657	-0.771536	-0.283473	132.810830	-83.737775	153.287460			
10962	9.341393	0.874415	-1.556699	0.344753	-0.775841	-0.340166	133.980661	-83.590548	151.861251			
10963	9.383292	1.255656	-1.540787	0.685855	-0.626587	-0.266286	134.954189	-83.434087	150.674422			
10964	9.376436	1.559614	-1.410124	0.927259	-0.393518	-0.256346	135.821421	-83.279667	149.603960			
10965	9.503416	1.635971	-1.281577	0.939135	-0.219224	-0.132622	136.607096	-83.128978	148.557343			
10966	9.612751	1.453433	-1.301095	0.742184	-0.256850	-0.035498	137.341276	-82.976228	147.478782			
10967	9.714630	1.191261	-1.480810	0.507018	-0.470498	0.061898	137.849606	-82.822712	146.571322			
10968	9.905750	1.013749	-1.565049	0.315450	-0.563609	0.246325	138.188214	-82.670380	145.816716			
10969	9.934975	0.863673	-1.445439	0.117225	-0.465842	0.252507	138.329374	-82.531045	145.240834			
10970	9.921556	0.726646	-1.382119	-0.049413	-0.422014	0.222000	138.466437	-82.403532	144.670956			
10971	9.971661	0.674309	-1.153838	-0.173788	-0.194225	0.244752	138.555771	-82.294091	144.146208			
10972	10.051936	0.790357	-1.025001	-0.111890	-0.023558	0.321592	138.608916	-82.202352	143.616319			
10973	9.867914	0.870740	-1.202159	0.011490	-0.183911	0.164544	138.673245	-82.132195	143.012779			
10974	9.786625	0.849745	-1.286025	0.006195	-0.267488	0.090967	138.812666	-82.068628	142.280911			
10975	9.669181	0.678089	-1.226853	-0.166865	-0.243651	-0.046889	139.042362	-82.022490	141.469508			
10976	9.604011	0.692176	-0.763953	-0.231005	0.219604	-0.158768	139.391156	-81.962201	140.595981			
10977	9.710239	0.955244	-0.593460	-0.013817	0.457613	-0.048272	139.748333	-81.881834	139.699419			
10978	9.748613	1.122999	-0.668687	0.157471	0.430802	0.012450	140.092297	-81.796066	138.767489			
10979	9.795630	1.134564	-0.979509	0.207806	0.144170	0.093728	140.386487	-81.721665	137.843178			
10980	9.672097	1.092624	-1.245152	0.212331	-0.125268	-0.002850	140.614186	-81.669792	137.000654			
10981	9.670765	1.081314	-1.601055	0.240841	-0.471795	0.034937	140.760923	-81.630607	136.260699			
10982	9.592977	1.102800	-1.881776	0.294651	-0.748491	-0.007822	140.961249	-81.591496	135.487881			
10983	9.755406	1.033103	-2.205532	0.233574	-1.054658	0.183950	141.188193	-81.558492	134.675427			
10984	9.759733	0.821384	-2.448979	0.035041	-1.309982	0.197670	141.459361	-81.525749	133.810022			
10985	9.406015	0.417020	-2.654855	-0.324107	-1.582691	-0.164615	141.715658	-81.526289	132.952362			
10986	9.075989	0.068176	-2.873329	-0.631959	-1.855681	-0.496502	142.029898	-81.536476	132.111818			
10987	9.044020	0.309741	-2.839285	-0.403597	-1.800455	-0.509611	142.031393	-81.532029	131.660931			
10988	9.246763	0.776376	-2.480899	0.006128	-1.389162	-0.308455	141.941977	-81.536191	131.339185			
10989	9.727734	1.109728	-2.134400	0.260633	-0.974714	0.157165	141.745371	-81.521012	131.059377			
10990	10.297836	1.275117	-2.085435	0.353164	-0.857078	0.730608	141.530744	-81.498241	130.730049			
10991	10.458974	1.130732	-2.127079	0.182780	-0.894607	0.881208	141.282974	-81.529463	130.402091			
10992	10.373861	0.862823	-2.325328	-0.083033	-1.121797	0.794068	140.858194	-81.575706	130.302895			
10993	10.311064	1.140564	-2.283791	0.185371	-1.099082	0.751035	140.177431	-81.645207	130.555584			
10994	10.019935	1.416283	-1.946417	0.471825	-0.814712	0.449235	139.424741	-81.715162	130.923065			
10995	9.785612	1.625453	-1.657966	0.689539	-0.577288	0.204316	138.612642	-81.771569	131.302011			
10996	9.672424	1.803762	-1.936881	0.860612	-0.889470	0.138643	137.937315	-81.797539	131.489386			
10997	9.434970	1.849097	-2.197563	0.905116	-1.195615	-0.064954	137.300877	-81.808222	131.582751			
10998	9.302031	1.863770	-2.458535	0.902064	-1.486903	-0.167941	136.770795	-81.794994	131.537961			
10999	9.164007	1.956471	-2.662120	0.971767	-1.723480	-0.274403	136.166311	-81.775870	131.510808			
11000	9.131030	2.090344	-2.721721	1.069843	-1.808722	-0.287100	135.501574	-81.734841	131.455105			
11001	9.182172	1.956100	-3.045625	0.871703	-2.136188	-0.216277	134.944711	-81.695298	131.225956			
11002	9.186872	1.941959	-3.145340	0.803356	-2.249716	-0.202477	134.199392	-81.649360	131.178558			
11003	9.345938	2.009589	-2.837471	0.834290	-1.950266	-0.069153	133.411317	-81.603809	131.208147			
11004	9.486547	2.315796	-2.350990	1.127705	-1.499521	0.054640	132.514680	-81.545579	131.355535			
11005	9.464580	2.664750	-1.863262	1.488374	-1.081693	0.024253	131.543359	-81.494243	131.509163			
11006	9.364681	2.986487	-1.840323	1.778090	-1.140466	-0.038199	130.609298	-81.444454	131.532298			
11007	9.199826	3.074253	-1.801573	1.844869	-1.172415	-0.192132	129.677971	-81.405216	131.467031			
11008	9.120660	3.345668	-1.777939	2.078310	-1.242655	-0.237874	128.754793	-81.350019	131.289156			
11009	9.076436	3.564613	-1.795937	2.245532	-1.353795	-0.250370	127.912970	-81.300388	130.909855			
11010	9.023487	3.776065	-1.689737	2.426216	-1.354678	-0.283000	127.183825	-81.242706	130.236605			
11011	8.981031	3.792942	-1.725209	2.385905	-1.465011	-0.316255	126.735817	-81.209812	129.072194			
11012	8.971460	3.539523	-1.809488	2.066350	-1.554595	-0.346835	126.514012	-81.183796	127.461638			
11013	9.069989	3.101342	-2.084630	1.501446	-1.748186	-0.277614	126.402259	-81.179033	125.575745			
11014	9.123541	2.557535	-2.258791	0.862923	-1.785682	-0.276003	126.215258	-81.192018	123.738117			
11015	9.154647	2.244991	-2.307399	0.484261	-1.754775	-0.280771	125.671126	-81.223299	122.303011			
11016	9.208685	2.280777	-1.774980	0.647754	-1.303079	-0.271496	124.707326	-81.242883	121.292762			
11017	9.230255	2.103757	-1.469801	0.553735	-0.990552	-0.299770	123.787790	-81.285325	120.243642			
11018	9.445465	1.675435	-1.112354	0.265855	-0.491861	-0.171712	122.548096	-81.320792	119.480687			
11019	9.378948	1.249167	-0.957789	-0.067620	-0.195898	-0.304830	121.124532	-81.378614	118.946130			
11020	9.334610	0.992127	-0.679033	-0.178177	0.144740	-0.403779	119.409286	-81.398488	118.736834			
11021	9.430525	0.694997	-0.772393	-0.514794	0.220946	-0.341652	117.729696	-81.410397	118.566060			
11022	9.466294	0.420191	-1.045861	-0.931010	0.152014	-0.326323	115.807554	-81.389279	118.690205			
11023	9.607084	0.352673	-1.222548	-1.140623	0.078605	-0.189400	113.847015	-81.334701	118.972267			
11024	9.611564	0.311060	-1.564332	-1.430605	-0.143403	-0.176372	112.001593	-81.239184	119.285879			
11025	9.573259	0.211433	-1.779376	-1.693365	-0.222947	-0.224120	110.238872	-81.113949	119.722163			
11026	9.511418	0.402532	-1.703264	-1.551743	-0.259568	-0.270437	108.502760	-80.926038	120.353622			
11027	9.525114	0.898195	-1.628661	-1.195525	-0.492545	-0.194227	106.819645	-80.712065	121.057485			
11028	9.367831	1.307628	-1.388256	-0.786277	-0.580148	-0.302788	105.227344	-80.471373	121.673082			
11029	9.269143	1.760380	-1.230130	-0.410054	-0.759896	-0.337291	103.827393	-80.213057	122.011298			
11030	9.374688	2.169406	-1.788705	-0.592507	-1.398611	-0.144034	102.648980	-79.983973	122.070371			
11031	9.212879	2.272540	-1.867983	-0.639037	-1.528418	-0.284519	101.372133	-79.802044	122.205355			
11032	9.095805	2.278868	-1.630998	-0.529087	-1.367937	-0.408680	100.083949	-79.583218	122.392892			
11033	9.138401	2.591012	-1.146310	-0.043381	-1.244397	-0.326548	98.800121	-79.332982	122.670403			
11034	9.063222	2.845531	-1.004829	0.156939	-1.333994	-0.355204	97.457371	-79.039336	123.083053			
11035	8.871601	2.832196	-0.821367	0.225217	-1.220167	-0.546558	96.018986	-78.710419	123.705428			
