// General information: 
//  MT Manager version: 2022.0.0 
//  XDA version: 2022.0.0 build 7085 rev 119802 built on 2022-11-08
// Device information: 
//  DeviceId: 00B492A2
//  ProductCode: MTW2-3A7G6
//  Firmware Version: 4.6.0
//  Hardware Version: 2.0.0
// Device settings: 
//  Filter Profile: human(46.1)
//  Option Flags: Orientation Smoother Disabled, Position/Velocity Smoother Disabled, Continuous Zero Rotation Update Disabled, AHS Disabled, ICC Disabled
// Coordinate system: ENU
PacketCounter	Acc_X	Acc_Y	Acc_Z	FreeAcc_E	FreeAcc_N	FreeAcc_U	Roll	Pitch	Yaw	Vel_E	Vel_N	Vel_U
09830	9.226492	-0.352774	-2.836747	-0.047793	-0.160744	-0.154964	-174.827224	-73.600737	108.249100			
09831	9.217399	-0.310446	-2.861067	0.000509	-0.164977	-0.157880	-174.828600	-73.584415	108.273246			
09832	9.242730	-0.333646	-2.863192	-0.022959	-0.166042	-0.132339	-174.817834	-73.563586	108.287758			
09833	9.247618	-0.301374	-2.857643	0.003574	-0.144001	-0.129989	-174.811295	-73.545765	108.307885			
09834	9.308891	-0.335451	-2.840594	-0.040567	-0.122697	-0.075118	-174.809752	-73.524487	108.329203			
09835	9.285683	-0.283190	-2.895072	0.029498	-0.153218	-0.083288	-174.815023	-73.508031	108.352641			
09836	9.308473	-0.229824	-2.910777	0.081354	-0.137164	-0.058320	-174.824898	-73.492756	108.373629			
09837	9.169604	-0.152836	-2.981839	0.190648	-0.204570	-0.173281	-174.840665	-73.480472	108.398032			
09838	9.098816	-0.126948	-2.963368	0.211427	-0.194546	-0.246938	-174.878751	-73.455840	108.437047			
09839	9.104476	-0.037550	-2.963046	0.288991	-0.153138	-0.243697	-174.937979	-73.417046	108.489906			
09840	9.155503	0.053582	-2.926140	0.348372	-0.065147	-0.207335	-175.016883	-73.371489	108.547504			
09841	9.218302	0.132871	-2.919650	0.406325	-0.005300	-0.150702	-175.118694	-73.324457	108.619711			
09842	9.305695	0.136333	-2.910287	0.390035	0.033773	-0.069431	-175.246347	-73.276690	108.706352			
09843	9.283579	0.118729	-2.955131	0.384806	-0.013870	-0.077008	-175.376515	-73.236534	108.788629			
09844	9.303427	0.123735	-2.972029	0.385618	-0.017238	-0.052923	-175.514359	-73.197407	108.871828			
09845	9.301511	0.130201	-2.977742	0.385396	-0.016906	-0.052913	-175.654883	-73.162168	108.953967			
09846	9.239280	0.145737	-3.051156	0.425091	-0.089021	-0.091244	-175.790539	-73.125789	109.033700			
09847	9.202303	0.111527	-3.013302	0.374213	-0.076250	-0.136482	-175.932692	-73.090243	109.119235			
09848	9.154154	0.117307	-3.057153	0.392097	-0.122068	-0.169563	-176.067888	-73.048936	109.200574			
09849	9.162019	0.135163	-3.044236	0.394384	-0.097754	-0.165764	-176.200391	-73.009162	109.276908			
09850	9.210404	0.227245	-3.066435	0.474051	-0.064002	-0.114369	-176.344057	-72.965713	109.356956			
09851	9.205530	0.231746	-3.132505	0.494130	-0.117874	-0.099294	-176.495957	-72.923150	109.434244			
09852	9.233620	0.301991	-3.192730	0.568769	-0.132097	-0.055459	-176.656709	-72.879686	109.518136			
09853	9.257367	0.288029	-3.199364	0.545344	-0.133366	-0.029920	-176.835989	-72.835487	109.611335			
09854	9.241479	0.361938	-3.237836	0.617866	-0.139752	-0.034231	-177.026400	-72.789128	109.709627			
09855	9.186227	0.416840	-3.243765	0.664043	-0.136255	-0.085252	-177.230012	-72.741651	109.809523			
09856	9.191622	0.462754	-3.182542	0.670266	-0.059968	-0.097969	-177.448387	-72.688195	109.906590			
09857	9.135767	0.519340	-3.189295	0.716452	-0.056492	-0.148990	-177.692676	-72.629079	110.022317			
09858	9.221458	0.608537	-3.134827	0.755186	0.053729	-0.083374	-177.932600	-72.559738	110.107991			
09859	9.280278	0.587366	-3.126037	0.711090	0.074887	-0.028548	-178.169854	-72.492922	110.188347			
09860	9.330228	0.609272	-3.137589	0.715488	0.091499	0.023395	-178.397154	-72.428882	110.244980			
09861	9.318840	0.556329	-3.103576	0.641443	0.102723	0.003648	-178.607046	-72.370921	110.294637			
09862	9.212316	0.470283	-3.093190	0.556582	0.053819	-0.099651	-178.781416	-72.318283	110.303700			
09863	9.112590	0.384323	-2.963005	0.431310	0.113218	-0.233150	-178.916727	-72.269450	110.295620			
09864	9.079701	0.271166	-2.915989	0.305154	0.109223	-0.277886	-179.003745	-72.220611	110.236160			
09865	9.141290	0.209815	-2.795531	0.193840	0.217238	-0.255625	-179.064808	-72.171875	110.172030			
09866	9.283099	0.134449	-2.679267	0.063985	0.340122	-0.155944	-179.111900	-72.129993	110.091213			
09867	9.434574	0.100399	-2.652618	0.003903	0.400023	-0.019954	-179.142305	-72.101387	110.015194			
09868	9.568685	0.075895	-2.712005	-0.014265	0.379591	0.125933	-179.156291	-72.097289	109.922722			
09869	9.566888	0.043325	-2.660103	-0.061466	0.412544	0.108472	-179.157096	-72.113458	109.842736			
09870	9.573758	0.074991	-2.646297	-0.034929	0.434728	0.110777	-179.137228	-72.141387	109.758213			
09871	9.491276	0.194189	-2.755476	0.125954	0.350468	0.065368	-179.091566	-72.182026	109.666913			
09872	9.359832	0.270410	-2.691323	0.194765	0.391248	-0.079662	-179.018624	-72.219230	109.557541			
09873	9.252286	0.377507	-2.689637	0.311693	0.395303	-0.183147	-178.924497	-72.246994	109.435867			
09874	9.145825	0.461749	-2.739209	0.424419	0.347668	-0.270068	-178.814580	-72.268794	109.305808			
09875	9.048111	0.501425	-2.770642	0.488755	0.304567	-0.354118	-178.684316	-72.279997	109.165935			
09876	8.979742	0.528843	-2.906036	0.572706	0.175669	-0.378620	-178.557987	-72.270263	109.031926			
09877	8.938482	0.479292	-2.985770	0.562251	0.080037	-0.393640	-178.426035	-72.244556	108.894028			
09878	8.942258	0.461275	-3.140386	0.600753	-0.055793	-0.343012	-178.309008	-72.202878	108.770133			
09879	8.930812	0.345877	-3.266126	0.538706	-0.202413	-0.314507	-178.198723	-72.150858	108.654674			
09880	8.939822	0.219883	-3.244837	0.414506	-0.214043	-0.311103	-178.100975	-72.089365	108.558761			
09881	9.048563	0.025531	-3.239441	0.221811	-0.234218	-0.207114	-177.992147	-72.032384	108.455816			
09882	9.039434	-0.286140	-3.135446	-0.101046	-0.243038	-0.244251	-177.865823	-71.992380	108.354098			
09883	9.090041	-0.633470	-3.071573	-0.447530	-0.285250	-0.211488	-177.713422	-71.968101	108.263818			
09884	9.212348	-0.952151	-3.027561	-0.764185	-0.317219	-0.104162	-177.507340	-71.966708	108.168696			
09885	9.331931	-1.065614	-2.998029	-0.878991	-0.296449	0.003020	-177.259659	-72.001181	108.076314			
09886	9.441649	-1.060201	-2.992411	-0.869968	-0.263218	0.106845	-176.991451	-72.065262	107.973348			
09887	9.494933	-1.034709	-3.149223	-0.778339	-0.387674	0.206585	-176.701839	-72.146846	107.869227			
09888	9.518302	-0.974605	-3.153399	-0.702312	-0.373979	0.230156	-176.398425	-72.231005	107.751303			
09889	9.608259	-0.762951	-3.093902	-0.512615	-0.230168	0.294595	-176.079439	-72.320451	107.636179			
09890	9.712612	-0.491087	-2.796652	-0.352267	0.150074	0.299216	-175.751370	-72.423378	107.488399			
09891	9.683023	-0.290380	-2.539635	-0.233119	0.427911	0.190187	-175.434505	-72.545096	107.345592			
09892	9.475130	-0.285866	-2.508163	-0.200782	0.382699	-0.016573	-175.110511	-72.661633	107.194513			
09893	9.301401	-0.318575	-2.570435	-0.173172	0.253665	-0.162283	-174.776883	-72.749880	107.072349			
09894	9.204268	-0.372709	-2.260358	-0.309886	0.471395	-0.344403	-174.433119	-72.814927	106.942427			
09895	9.075548	-0.512368	-1.729626	-0.608429	0.845017	-0.618371	-174.096199	-72.851718	106.808195			
09896	9.181384	-0.770557	-1.537230	-0.914949	0.945158	-0.564759	-173.799261	-72.853078	106.660958			
09897	9.437990	-0.855494	-1.503598	-1.016783	1.018801	-0.326038	-173.501262	-72.822252	106.487190			
09898	9.776176	-1.005327	-1.575508	-1.145501	1.004018	0.023281	-173.198587	-72.759737	106.264673			
09899	9.950046	-1.160178	-1.594720	-1.284084	0.991943	0.200289	-172.859663	-72.678096	105.990716			
09900	10.075519	-1.397743	-1.700000	-1.459894	0.862856	0.360017	-172.478357	-72.583908	105.663500			
09901	10.147289	-1.437504	-1.774264	-1.458657	0.823868	0.452564	-172.056547	-72.487135	105.317100			
09902	10.091385	-1.441062	-1.834391	-1.416449	0.775814	0.418120	-171.580561	-72.388383	104.915052			
09903	10.022967	-1.253696	-1.784644	-1.237813	0.894530	0.330495	-171.077393	-72.289125	104.491607			
09904	9.813256	-1.122376	-1.845016	-1.056243	0.854772	0.143086	-170.546112	-72.184380	104.023524			
09905	9.633824	-1.061773	-1.943716	-0.926518	0.763855	-0.000759	-169.992966	-72.067186	103.538343			
09906	9.442901	-0.988648	-2.014068	-0.795120	0.701057	-0.164969	-169.425775	-71.936227	103.025853			
09907	9.220028	-1.001408	-2.078849	-0.742816	0.601142	-0.356468	-168.845946	-71.787934	102.520780			
09908	9.054150	-1.053706	-2.185816	-0.714309	0.468394	-0.478023	-168.249157	-71.622175	102.003172			
09909	9.041996	-1.016627	-2.118351	-0.681700	0.569943	-0.512745	-167.627745	-71.452457	101.488709			
09910	9.160075	-0.994060	-2.117116	-0.642975	0.648646	-0.402958	-166.991468	-71.295592	100.948748			
09911	9.275955	-0.975649	-2.013300	-0.646871	0.811664	-0.327370	-166.354534	-71.153909	100.420593			
09912	9.367254	-0.909319	-2.020706	-0.560641	0.889271	-0.244495	-165.736920	-71.011082	99.895717			
09913	9.400314	-0.728807	-1.903619	-0.417697	1.100842	-0.266254	-165.167401	-70.864294	99.414138			
09914	9.331431	-0.629637	-1.963844	-0.274222	1.094322	-0.322910	-164.636346	-70.725460	98.943311			
09915	9.168437	-0.527071	-1.835836	-0.200010	1.217789	-0.529088	-164.116390	-70.593480	98.497525			
09916	8.971259	-0.582078	-1.681707	-0.280136	1.288159	-0.762134	-163.616673	-70.459361	98.065569			
09917	8.913664	-0.689737	-1.513140	-0.422774	1.394557	-0.863100	-163.140446	-70.325774	97.662887			
09918	9.094258	-0.726794	-1.438370	-0.474438	1.527279	-0.716264	-162.696061	-70.200097	97.267351			
09919	9.083862	-0.833369	-1.490881	-0.530139	1.456831	-0.700590	-162.300252	-70.100787	96.907751			
09920	9.118701	-0.818820	-1.645094	-0.437138	1.360111	-0.621035	-161.967351	-70.014208	96.579490			
09921	9.261740	-0.840330	-1.743113	-0.406140	1.331107	-0.453863	-161.675099	-69.945140	96.283740			
09922	9.241149	-0.876045	-1.723915	-0.431378	1.338001	-0.476638	-161.445010	-69.893696	96.013772			
09923	9.360303	-0.916245	-1.754339	-0.448184	1.345667	-0.351145	-161.277635	-69.856102	95.791437			
09924	9.324489	-0.936611	-1.661218	-0.494563	1.410600	-0.413295	-161.170209	-69.839445	95.606604			
09925	9.209187	-1.056795	-1.581308	-0.626293	1.394710	-0.534271	-161.115814	-69.836801	95.458546			
09926	9.067804	-1.175896	-1.549357	-0.739140	1.328444	-0.664069	-161.099460	-69.835369	95.345295			
09927	9.007497	-1.237373	-1.540083	-0.795169	1.293538	-0.716951	-161.121226	-69.828078	95.273576			
09928	9.067750	-1.226931	-1.588848	-0.768206	1.279991	-0.646152	-161.179548	-69.806638	95.236645			
09929	9.210142	-1.183500	-1.548602	-0.750992	1.384948	-0.531336	-161.254299	-69.779618	95.211747			
09930	9.338841	-1.176836	-1.575365	-0.740905	1.414189	-0.403554	-161.346629	-69.752540	95.196306			
09931	9.490043	-1.099743	-1.529101	-0.696750	1.540633	-0.286435	-161.453051	-69.727696	95.185695			
09932	9.583101	-1.078073	-1.573932	-0.665775	1.547334	-0.187833	-161.583842	-69.706560	95.177632			
09933	9.713858	-1.162459	-1.674224	-0.712994	1.478006	-0.023893	-161.737215	-69.693094	95.189086			
09934	9.687772	-1.324963	-1.885680	-0.784526	1.228498	0.038179	-161.896494	-69.688562	95.193867			
09935	9.650947	-1.474660	-1.965949	-0.896966	1.091290	0.045552	-162.068860	-69.695300	95.224075			
09936	9.637219	-1.651438	-1.945387	-1.074779	1.037636	0.044083	-162.241919	-69.711810	95.243445			
09937	9.631966	-1.748270	-1.878914	-1.197179	1.054524	0.026839	-162.421008	-69.744736	95.278226			
09938	9.690495	-1.786548	-1.658633	-1.325537	1.245875	0.012752	-162.593458	-69.793608	95.291884			
09939	9.888299	-1.852649	-1.636385	-1.407736	1.301621	0.197936	-162.770706	-69.856804	95.309056			
09940	10.297891	-1.784665	-1.566845	-1.389298	1.518930	0.553088	-162.928511	-69.919507	95.293095			
09941	11.046284	-1.503876	-1.543184	-1.165275	1.888185	1.220913	-163.071421	-69.983264	95.248018			
09942	11.838663	-1.560881	-1.761070	-1.162431	1.935719	2.044521	-163.196753	-70.081320	95.135496			
09943	12.344271	-1.387532	-2.144710	-0.871746	1.812714	2.631593	-163.250784	-70.228097	94.930015			
09944	12.521341	-1.439623	-2.665292	-0.726437	1.370900	2.976101	-163.231076	-70.376070	94.627743			
09945	12.720468	-1.921996	-3.462569	-0.884254	0.542867	3.469522	-163.174192	-70.516006	94.311653			
09946	12.632832	-2.492377	-3.682755	-1.323132	0.089651	3.514134	-163.005060	-70.718281	93.944316			
09947	12.172413	-2.827727	-3.291318	-1.743497	0.119220	2.991301	-162.710819	-70.995686	93.542485			
09948	11.596131	-3.247370	-3.094779	-2.166916	-0.093213	2.430220	-162.356165	-71.278760	93.128448			
09949	11.439158	-3.434879	-3.433528	-2.193219	-0.558414	2.406951	-161.998678	-71.507915	92.777617			
09950	11.499241	-3.578350	-3.962787	-2.114802	-1.099473	2.639597	-161.631278	-71.685206	92.458935			
09951	11.289568	-3.242556	-4.449090	-1.598906	-1.517700	2.552702	-161.283863	-71.827836	92.199891			
09952	10.672178	-2.490137	-4.441091	-0.870183	-1.473668	1.887333	-161.079445	-71.938060	92.063151			
09953	9.427825	-1.879949	-4.285362	-0.335587	-1.535041	0.594686	-161.159836	-72.060446	92.161809			
09954	7.734006	-1.380579	-4.127979	0.083199	-1.767631	-1.116163	-161.562040	-72.198107	92.501733			
09955	6.830558	-0.577951	-3.999444	0.775452	-1.672242	-2.093342	-162.233214	-72.280175	93.055013			
09956	6.229605	0.148621	-3.946566	1.412846	-1.571024	-2.745787	-163.094307	-72.295284	93.697801			
09957	5.832301	0.775519	-4.049300	2.004213	-1.578422	-3.141440	-164.090666	-72.256295	94.396833			
09958	5.835643	1.208381	-4.331291	2.462588	-1.691045	-3.078385	-165.137216	-72.173590	95.097477			
09959	6.252688	1.363514	-4.756099	2.691384	-1.897686	-2.551093	-166.187642	-72.072228	95.808183			
09960	6.815417	0.975526	-4.948219	2.319585	-2.027197	-1.913562	-167.158303	-71.981042	96.455630			
09961	7.490996	0.140219	-4.853179	1.425937	-2.003051	-1.231177	-168.006926	-71.917787	97.044914			
09962	8.150579	-0.842695	-4.465070	0.303428	-1.762115	-0.653993	-168.658805	-71.881400	97.517933			
09963	8.788633	-1.494499	-4.082446	-0.491709	-1.427271	-0.124497	-169.089636	-71.884043	97.885164			
09964	9.167231	-1.727476	-3.792428	-0.837833	-1.131453	0.158403	-169.341788	-71.953614	98.131652			
09965	9.340670	-1.651839	-3.624338	-0.834328	-0.924056	0.265134	-169.492228	-72.097428	98.324711			
09966	9.190779	-1.266405	-3.485713	-0.508552	-0.755461	0.056200	-169.623753	-72.302199	98.496753			
09967	8.813402	-0.740556	-3.381266	-0.029021	-0.646986	-0.366107	-169.833793	-72.532071	98.743078			
09968	8.567685	-0.242664	-3.335883	0.431970	-0.558762	-0.642448	-170.174018	-72.739471	99.083111			
09969	8.624260	0.085213	-3.369906	0.735682	-0.501648	-0.595942	-170.678460	-72.904145	99.575333			
09970	8.811124	0.136589	-3.487321	0.789630	-0.564790	-0.385421	-171.303188	-73.026990	100.168873			
09971	9.051151	-0.030008	-3.524357	0.602190	-0.605329	-0.137143	-172.019121	-73.118234	100.869503			
09972	9.233802	-0.234255	-3.454516	0.343859	-0.574793	0.026160	-172.767678	-73.185803	101.618763			
09973	9.231818	-0.515059	-3.312840	-0.000320	-0.553870	-0.006579	-173.511044	-73.238362	102.396081			
09974	9.059811	-0.658265	-3.036337	-0.244779	-0.413338	-0.247021	-174.227702	-73.280314	103.160571			
09975	8.937104	-0.662449	-3.009890	-0.279571	-0.439305	-0.373468	-174.915620	-73.313663	103.923434			
09976	8.698956	-0.545343	-2.840217	-0.234120	-0.326705	-0.654388	-175.557464	-73.335701	104.658148			
09977	8.446675	-0.233836	-2.770659	0.030380	-0.241909	-0.923478	-176.171819	-73.334974	105.395816			
09978	8.222921	0.160396	-2.645788	0.354731	-0.066565	-1.180652	-176.755464	-73.307346	106.103989			
09979	8.191124	0.491171	-2.621919	0.636228	0.055910	-1.221863	-177.321077	-73.246763	106.811281			
09980	8.207613	0.797529	-2.495664	0.856495	0.282142	-1.244371	-177.867938	-73.154106	107.500014			
09981	8.380274	0.947131	-2.429591	0.932201	0.449925	-1.097331	-178.423052	-73.037046	108.200458			
09982	8.593110	1.097620	-2.448640	1.029420	0.555639	-0.886680	-178.987900	-72.903683	108.888628			
09983	8.748705	1.000239	-2.516202	0.911808	0.518804	-0.714834	-179.567913	-72.772624	109.592151			
09984	8.743744	1.005688	-2.528049	0.887462	0.521836	-0.713485	179.863839	-72.638192	110.283471			
09985	8.709705	1.000873	-2.488594	0.839819	0.559007	-0.755319	179.309859	-72.502642	110.950701			
09986	8.744318	0.994568	-2.422022	0.775558	0.639293	-0.740302	178.803265	-72.363527	111.558389			
09987	8.744229	0.810832	-2.421296	0.573009	0.589067	-0.740408	178.373778	-72.229968	112.085882			
09988	8.836439	0.677772	-2.403320	0.406073	0.596810	-0.658626	178.037520	-72.116243	112.525304			
09989	8.868543	0.596157	-2.290141	0.268155	0.688867	-0.663659	177.827507	-72.023563	112.858641			
09990	8.912278	0.520632	-2.155229	0.133135	0.804960	-0.665061	177.733286	-71.943591	113.095898			
09991	8.965831	0.427970	-2.108560	0.015612	0.838860	-0.630565	177.742819	-71.875495	113.245916			
09992	9.021990	0.362536	-2.110391	-0.055343	0.839714	-0.578333	177.843360	-71.822653	113.314044			
09993	8.992143	0.294170	-2.064765	-0.130052	0.855633	-0.622508	178.008882	-71.788064	113.323434			
09994	9.099844	0.334123	-1.966258	-0.135412	0.994958	-0.551117	178.216369	-71.778942	113.281069			
09995	9.163293	0.457169	-1.954178	-0.025376	1.072886	-0.493781	178.444730	-71.793028	113.201863			
09996	9.087396	0.629905	-2.053222	0.188771	1.028896	-0.533733	178.669461	-71.823445	113.093953			
09997	8.990572	0.807888	-2.300515	0.463115	0.849391	-0.547728	178.880028	-71.851735	112.971778			
09998	9.054085	0.854072	-2.553639	0.597662	0.663380	-0.408981	179.089495	-71.863078	112.841654			
09999	9.245523	0.861166	-2.664455	0.630028	0.627052	-0.193411	179.300379	-71.866847	112.716722			
10000	9.495527	0.961449	-2.611545	0.684390	0.786306	0.027176	179.515341	-71.889071	112.593391			
10001	9.668296	1.099705	-2.441217	0.742695	1.036301	0.138157	179.706198	-71.950918	112.470705			
10002	9.732752	1.165140	-2.475689	0.820858	1.041234	0.210039	179.859826	-72.037616	112.344255			
10003	9.914318	1.047359	-2.483668	0.705990	1.028629	0.385485	179.958431	-72.141070	112.243351			
10004	10.055867	0.990453	-2.408498	0.621200	1.096587	0.498176	-179.996732	-72.258835	112.185194			
10005	10.101746	0.925283	-2.084676	0.449314	1.349273	0.445227	-179.998906	-72.399901	112.168077			
10006	10.126902	0.756447	-1.681525	0.154494	1.622982	0.350770	179.952471	-72.560487	112.193642			
10007	9.986492	0.392073	-1.321072	-0.289000	1.737233	0.113410	179.854849	-72.726245	112.275819			
10008	9.861456	0.050755	-0.983009	-0.707309	1.845042	-0.101217	179.722320	-72.888838	112.407751			
10009	9.750420	-0.160954	-0.732225	-0.978418	1.929162	-0.275722	179.549226	-73.045842	112.596756			
10010	9.726127	-0.373123	-0.806833	-1.145940	1.750184	-0.272699	179.334973	-73.174834	112.849104			
10011	9.942299	-0.590743	-1.063889	-1.284018	1.475456	0.010980	179.093698	-73.258550	113.161526			
10012	10.634990	-0.443932	-1.537125	-1.064923	1.278412	0.812491	178.859110	-73.294565	113.517637			
10013	11.107631	-0.593500	-2.065072	-1.077752	0.865686	1.416081	178.635451	-73.310354	113.920027			
10014	11.570718	-0.700982	-2.618313	-1.042140	0.447556	2.017024	178.424050	-73.291257	114.368304			
10015	12.177115	-0.323949	-2.895086	-0.679743	0.503150	2.679444	178.220282	-73.269998	114.836412			
10016	12.251080	0.397750	-2.655206	-0.131059	1.008315	2.687848	177.950163	-73.301543	115.340981			
10017	11.714438	1.216546	-2.610324	0.650693	1.216792	2.171376	177.538403	-73.356960	115.904810			
10018	11.216213	1.658911	-3.258247	1.337591	0.680081	1.888587	176.952142	-73.343202	116.545079			
10019	11.263344	2.569083	-4.582205	2.626368	-0.113745	2.334276	176.187373	-73.242858	117.293163			
10020	11.562374	4.006235	-5.869859	4.332784	-0.598598	3.034955	175.270085	-73.124480	118.109065			
10021	11.505199	4.610338	-6.612482	5.105402	-1.044460	3.233123	174.254918	-73.041416	118.919932			
10022	10.719841	3.550549	-6.505482	4.137620	-1.603865	2.440882	173.310548	-72.992572	119.620434			
10023	9.612109	1.788597	-5.432005	2.232348	-1.657176	1.020992	172.635144	-72.943235	120.111064			
10024	8.103272	0.419671	-4.540838	0.840535	-1.797034	-0.728498	172.325039	-72.895879	120.328453			
10025	6.740734	-0.906489	-4.141616	-0.330852	-2.304170	-2.197339	172.425334	-72.843271	120.257987			
10026	5.895639	-1.911749	-4.111228	-1.130843	-2.874928	-3.047225	172.944319	-72.775941	119.909152			
10027	5.486094	-2.520929	-4.047981	-1.627874	-3.149290	-3.466797	173.780194	-72.684837	119.342168			
10028	5.640559	-2.931305	-3.920581	-2.039265	-3.141764	-3.351268	174.820102	-72.551742	118.615533			
10029	6.618766	-2.895014	-3.935707	-2.102312	-2.856319	-2.389722	175.923610	-72.361250	117.819206			
10030	8.155776	-2.291167	-4.218125	-1.620699	-2.407246	-0.805087	176.986744	-72.157010	117.039292			
10031	9.386608	-1.396569	-4.492711	-0.829248	-1.900604	0.480175	177.920545	-72.023897	116.347510			
10032	10.157499	-0.347441	-4.466188	0.052802	-1.198781	1.223719	178.695115	-72.004511	115.760445			
10033	10.367326	0.511861	-4.313538	0.788293	-0.639708	1.381923	179.281660	-72.098178	115.296489			
10034	9.820244	1.119187	-3.917525	1.293589	-0.205434	0.738192	179.689971	-72.275884	114.948312			
10035	9.143535	1.415622	-3.323400	1.443907	0.224892	-0.090668	179.940241	-72.459250	114.701896			
10036	8.500558	1.211060	-2.952905	1.211315	0.263404	-0.817740	-179.946868	-72.603581	114.541275			
10037	8.219610	0.742864	-2.823177	0.780865	0.088518	-1.125539	-179.870909	-72.700476	114.403526			
10038	8.182721	-0.027009	-2.786382	0.079323	-0.217300	-1.171619	-179.725354	-72.745423	114.211332			
10039	8.518482	-0.750256	-2.825139	-0.594281	-0.459343	-0.838021	-179.452400	-72.752694	113.914897			
10040	8.765629	-1.402099	-3.101452	-1.093530	-0.894645	-0.516188	-179.034644	-72.737276	113.506515			
10041	9.092427	-1.651747	-3.185719	-1.305067	-0.969970	-0.173954	-178.471367	-72.715511	112.992909			
10042	9.318184	-1.620381	-3.218580	-1.261447	-0.910017	0.056151	-177.804853	-72.707230	112.398879			
10043	9.186751	-1.326967	-3.337889	-0.898132	-0.915453	-0.032405	-177.069727	-72.717148	111.752426			
10044	8.964094	-0.811996	-3.172112	-0.435337	-0.607801	-0.298616	-176.302905	-72.730555	111.083065			
10045	8.586935	-0.265920	-2.945916	0.045460	-0.276855	-0.734925	-175.534367	-72.729142	110.395470			
10046	8.188345	0.311854	-2.667337	0.530339	0.109486	-1.212246	-174.791681	-72.688097	109.704375			
10047	7.866038	0.658659	-2.435909	0.810506	0.382816	-1.600593	-174.091376	-72.609526	109.021272			
10048	7.770039	0.740805	-2.213009	0.826455	0.604746	-1.764652	-173.450759	-72.487092	108.351745			
10049	7.842880	0.594525	-2.060671	0.644125	0.722803	-1.739698	-172.852790	-72.320013	107.682027			
10050	7.957774	0.363829	-1.977300	0.407295	0.763300	-1.650602	-172.298995	-72.125952	107.019083			
10051	8.168699	0.030332	-2.013719	0.115711	0.691002	-1.428618	-171.768139	-71.911002	106.354635			
10052	8.482674	-0.345321	-2.217178	-0.157095	0.494060	-1.053581	-171.276455	-71.681194	105.709663			
10053	8.831407	-0.704550	-2.459124	-0.403936	0.286928	-0.631632	-170.821508	-71.449849	105.099165			
10054	9.016568	-0.982089	-2.600166	-0.603635	0.152155	-0.398008	-170.403467	-71.241958	104.525309			
10055	9.131687	-1.176687	-2.461936	-0.832673	0.268415	-0.322276	-170.020004	-71.052762	103.998768			
10056	9.334346	-1.224412	-2.499198	-0.865518	0.316443	-0.115995	-169.706014	-70.893707	103.542705			
10057	9.209157	-1.296659	-2.416020	-0.943720	0.347419	-0.256763	-169.445958	-70.789557	103.150199			
10058	8.933227	-1.377835	-2.193133	-1.074501	0.437685	-0.584217	-169.249832	-70.731702	102.829700			
10059	8.630195	-1.409207	-1.975750	-1.157706	0.526120	-0.938420	-169.130828	-70.709721	102.588253			
10060	8.325269	-1.389033	-1.717495	-1.211695	0.663481	-1.310870	-169.078602	-70.714591	102.420115			
10061	8.227334	-1.371835	-1.381134	-1.315544	0.930549	-1.513175	-169.096996	-70.728671	102.331905			
10062	8.429988	-1.331165	-1.267253	-1.336383	1.109612	-1.361329	-169.193034	-70.745159	102.325615			
10063	8.749723	-1.185571	-1.318449	-1.208658	1.222135	-1.052147	-169.341037	-70.764072	102.377884			
10064	9.115582	-1.037330	-1.491332	-1.037709	1.242396	-0.659897	-169.522386	-70.797284	102.467273			
10065	9.454090	-0.862043	-1.980976	-0.722065	0.985059	-0.192112	-169.734326	-70.849606	102.582409			
10066	9.656207	-0.527848	-2.387577	-0.282690	0.811891	0.111142	-169.939759	-70.911807	102.695293			
10067	9.891857	-0.032243	-2.492413	0.190234	0.968900	0.340490	-170.148898	-70.983980	102.783865			
10068	10.080165	0.233407	-2.484825	0.412498	1.116694	0.503385	-170.394407	-71.081509	102.858411			
10069	10.233660	0.155349	-2.427765	0.301413	1.160234	0.637619	-170.669845	-71.222635	102.923171			
10070	10.457783	-0.330423	-2.537957	-0.129282	0.923284	0.913280	-170.888155	-71.386073	102.941246			
10071	10.731854	-0.945967	-2.694420	-0.663088	0.614381	1.255746	-170.966780	-71.546192	102.857021			
10072	10.814768	-1.602384	-2.629628	-1.294607	0.429331	1.348916	-170.895519	-71.705925	102.664085			
10073	10.945598	-2.141438	-2.161057	-1.957242	0.658439	1.358597	-170.689946	-71.888837	102.366748			
10074	11.023228	-2.334801	-1.459334	-2.369837	1.200304	1.234280	-170.394802	-72.099628	101.992252			
10075	11.249811	-2.057765	-0.959828	-2.276373	1.777074	1.294692	-170.087941	-72.314298	101.583277			
10076	11.825260	-1.426826	-0.854008	-1.730247	2.233576	1.789860	-169.820310	-72.541791	101.155052			
10077	12.195016	-0.715318	-1.231146	-0.921184	2.218912	2.227801	-169.581402	-72.803679	100.705694			
10078	12.125971	-0.201937	-1.867995	-0.180271	1.765511	2.328958	-169.326633	-73.050657	100.221309			
10079	12.295193	-0.474248	-3.086202	0.009290	0.594510	2.858843	-169.079025	-73.189467	99.766459			
10080	12.839017	-1.002929	-4.063702	-0.150674	-0.329496	3.686518	-168.763446	-73.280341	99.333049			
10081	12.512880	-1.503398	-4.083048	-0.569936	-0.633915	3.407631	-168.341023	-73.426287	98.876397			
10082	11.746325	-2.198587	-4.195452	-1.115021	-1.213819	2.744978	-167.824373	-73.546463	98.405869			
10083	11.381138	-3.380500	-5.091303	-1.858822	-2.535328	2.717125	-167.211684	-73.553166	97.924561			
10084	11.550178	-4.507639	-6.225014	-2.476100	-3.884808	3.273684	-166.462444	-73.485796	97.380393			
10085	11.466091	-4.395967	-6.391842	-2.246069	-4.007851	3.246535	-165.585502	-73.445774	96.747442			
10086	10.680405	-2.827804	-5.310391	-1.076625	-2.710820	2.093606	-164.733762	-73.458971	96.099096			
10087	9.248387	-0.775913	-4.307137	0.565126	-1.499715	0.292634	-164.097110	-73.518384	95.561126			
10088	7.478077	1.110299	-3.669904	2.164411	-0.772857	-1.729335	-163.786126	-73.616486	95.218379			
10089	5.600408	2.578226	-3.284741	3.446079	-0.454621	-3.753054	-163.874790	-73.716710	95.129893			
10090	4.744471	3.370508	-3.317902	4.210018	-0.468555	-4.622800	-164.350661	-73.750603	95.286074			
10091	4.783416	3.534794	-3.701243	4.478011	-0.771167	-4.480933	-165.139817	-73.698868	95.651502			
10092	5.933692	2.858622	-4.228084	3.960109	-1.176712	-3.165149	-166.148845	-73.577144	96.180902			
10093	7.881747	1.740317	-4.820275	2.997045	-1.548739	-1.037468	-167.242736	-73.449516	96.792639			
10094	9.363663	0.321572	-5.116336	1.642810	-1.869426	0.568283	-168.264252	-73.422519	97.379912			
10095	9.799001	-1.038729	-4.872230	0.200784	-1.979550	0.998360	-169.147478	-73.527619	97.903586			
10096	9.559829	-2.388808	-4.373878	-1.275883	-2.050711	0.694166	-169.894865	-73.734166	98.368352			
10097	9.035537	-3.164924	-3.666363	-2.246542	-1.830896	0.020956	-170.492570	-73.978418	98.753391			
10098	8.480316	-3.330006	-3.111949	-2.572650	-1.563637	-0.668000	-170.921153	-74.208964	99.048770			
10099	8.130735	-2.876253	-2.592420	-2.297329	-1.074780	-1.171543	-171.234421	-74.388532	99.296953			
10100	8.147674	-2.020840	-2.489604	-1.523294	-0.739417	-1.222035	-171.486204	-74.515712	99.551661			
10101	8.390410	-0.841484	-2.513959	-0.411088	-0.357446	-1.030303	-171.726471	-74.617254	99.842980			
10102	8.628118	0.188232	-2.704190	0.607487	-0.169935	-0.790794	-172.023239	-74.695382	100.199153			
10103	8.857639	0.861554	-2.924234	1.291340	-0.117731	-0.535310	-172.453365	-74.756937	100.668737			
10104	9.010526	1.052106	-3.074182	1.491820	-0.169158	-0.352618	-173.019503	-74.812872	101.248734			
10105	9.108632	1.009463	-3.138103	1.441567	-0.229613	-0.236521	-173.682512	-74.873096	101.916147			
10106	9.039803	0.757224	-3.014423	1.141461	-0.228901	-0.324655	-174.379158	-74.956833	102.628180			
10107	8.856044	0.476929	-2.848780	0.809869	-0.231030	-0.535663	-175.055632	-75.059372	103.331245			
10108	8.586082	0.199057	-2.761885	0.513216	-0.327212	-0.811693	-175.687502	-75.165750	103.996997			
10109	8.180569	-0.054932	-2.686882	0.254785	-0.458626	-1.217994	-176.279275	-75.258039	104.630405			
10110	7.839606	-0.111268	-2.421856	0.124970	-0.333810	-1.614510	-176.821035	-75.329649	105.227591			
10111	7.624216	-0.000412	-2.186976	0.156567	-0.148375	-1.883943	-177.331851	-75.367322	105.800349			
10112	7.649174	0.254932	-2.082758	0.348820	0.027820	-1.888657	-177.817892	-75.354446	106.357350			
10113	7.845177	0.472794	-2.072842	0.520687	0.153381	-1.702673	-178.296628	-75.306574	106.904009			
10114	8.230336	0.674430	-2.056109	0.658991	0.330835	-1.334650	-178.746424	-75.231886	107.427925			
10115	8.596658	0.856412	-2.142838	0.810481	0.405869	-0.957967	-179.158739	-75.152927	107.912423			
10116	8.888213	0.952273	-2.152331	0.861714	0.506896	-0.672657	-179.538387	-75.078728	108.368340			
10117	9.082699	0.907450	-2.073061	0.760402	0.619088	-0.503823	-179.875847	-75.021761	108.794683			
10118	9.143199	0.809208	-1.871480	0.583485	0.789444	-0.496484	179.838705	-74.999389	109.187632			
10119	9.037825	0.832901	-1.564981	0.505560	1.049762	-0.676629	179.592070	-75.009341	109.553819			
10120	8.873878	0.758295	-1.325329	0.363546	1.199555	-0.896067	179.407957	-75.033596	109.856516			
10121	8.656127	0.562545	-1.263380	0.171436	1.132672	-1.121958	179.284495	-75.069320	110.098443			
10122	8.497182	0.352078	-1.249182	-0.021095	1.030871	-1.279026	179.238996	-75.110257	110.279181			
10123	8.440288	0.126076	-1.123320	-0.269741	1.050006	-1.366331	179.306597	-75.154565	110.375065			
10124	8.518458	-0.050981	-1.054969	-0.461895	1.065565	-1.307929	179.502599	-75.201393	110.382048			
10125	8.617472	0.008706	-0.947097	-0.442478	1.202410	-1.238522	179.818442	-75.254409	110.300181			
10126	8.699991	0.336111	-1.011936	-0.109500	1.271375	-1.140985	-179.776344	-75.318083	110.122347			
10127	8.615628	0.798480	-1.411523	0.480497	1.046418	-1.121708	-179.342321	-75.383374	109.862138			
10128	8.474598	0.989846	-2.119000	0.928516	0.438176	-1.081444	-178.920251	-75.426466	109.545209			
10129	8.491990	1.228495	-2.900550	1.433774	-0.177405	-0.871263	-178.488793	-75.424375	109.191124			
10130	8.743469	1.379120	-3.384604	1.735916	-0.491716	-0.509434	-178.033446	-75.382644	108.808128			
10131	9.119173	1.554472	-3.523829	1.933582	-0.449840	-0.114650	-177.554220	-75.323505	108.398900			
10132	9.715891	1.842766	-3.287971	2.089692	0.027587	0.396987	-177.119460	-75.255835	108.027393			
10133	10.469096	2.122388	-2.571032	2.055644	0.972078	0.936549	-176.841320	-75.216144	107.774829			
10134	11.110237	2.175681	-1.779689	1.787559	1.864454	1.352736	-176.815208	-75.239932	107.721292			
10135	11.632094	1.912744	-1.094783	1.264127	2.501919	1.689708	-177.052072	-75.335218	107.887204			
10136	12.006112	1.616307	-0.602623	0.781837	2.898560	1.939301	-177.543293	-75.510608	108.281001			
10137	11.937695	1.332563	-0.440594	0.454614	2.878422	1.848620	-178.250697	-75.746572	108.873849			
10138	11.754798	0.912294	-0.469421	0.069461	2.601077	1.696313	-179.124780	-76.010149	109.617905			
10139	11.532491	0.163430	-0.771909	-0.530470	1.949054	1.568889	179.945054	-76.281576	110.439198			
10140	11.198918	-0.429881	-1.059619	-0.983384	1.346251	1.320309	179.049113	-76.502987	111.317655			
10141	11.216661	-0.471259	-1.315567	-0.963807	1.059091	1.399607	178.225879	-76.591230	112.215495			
10142	11.851306	0.182231	-1.587615	-0.350800	1.155920	2.084700	177.426178	-76.554471	113.124227			
10143	12.293251	0.665833	-1.942187	0.136431	1.094202	2.601955	176.568267	-76.459936	114.076646			
10144	11.931306	0.877917	-2.448052	0.489041	0.636738	2.372340	175.647884	-76.318924	115.083454			
10145	11.337874	1.343927	-3.765288	1.375545	-0.505588	2.119739	174.700190	-76.089280	116.098803			
10146	11.375268	2.893264	-5.685963	3.409810	-1.659948	2.665899	173.771585	-75.820641	117.034760			
10147	11.633114	4.277598	-7.330010	5.160296	-2.579946	3.380904	172.738929	-75.604962	117.939150			
10148	11.255298	3.512032	-7.612166	4.505558	-3.200812	3.087519	171.591005	-75.498344	118.847436			
10149	9.890896	1.366459	-6.437667	2.201018	-3.213646	1.410869	170.498129	-75.432009	119.724103			
10150	8.561997	-0.785905	-5.117350	-0.135647	-3.069587	-0.290513	169.638740	-75.354524	120.474534			
10151	7.367966	-2.578871	-4.492512	-1.895501	-3.390407	-1.686658	169.131001	-75.284463	121.013519			
10152	6.648109	-3.759610	-4.027219	-3.066303	-3.538510	-2.558224	169.040638	-75.221539	121.248476			
10153	7.037119	-4.333248	-3.891029	-3.689266	-3.531735	-2.239424	169.381109	-75.130679	121.130767			
10154	8.131082	-4.048381	-3.956482	-3.524433	-3.240714	-1.138953	170.083224	-75.003187	120.704981			
10155	9.556053	-2.972903	-4.135135	-2.618142	-2.676451	0.347893	170.977966	-74.872595	120.102088			
10156	10.443357	-1.563160	-4.212212	-1.357797	-2.002944	1.295611	171.880156	-74.800203	119.469030			
10157	10.522119	-0.195347	-4.099334	-0.094999	-1.355525	1.399406	172.693403	-74.809065	118.882120			
10158	10.003645	1.052541	-3.676413	1.020705	-0.616094	0.830395	173.447437	-74.873966	118.311691			
10159	9.396814	2.044162	-3.237021	1.897265	0.019488	0.155106	174.207902	-74.949336	117.698454			
10160	8.749266	2.446185	-2.908245	2.265681	0.325689	-0.552457	175.006831	-75.016216	117.003363			
10161	8.181285	2.397315	-2.522986	2.181921	0.532036	-1.210243	175.876550	-75.051667	116.191168			
10162	7.890308	1.993298	-2.411849	1.832210	0.424848	-1.535633	176.788536	-75.041813	115.275727			
10163	7.887700	1.368766	-2.420086	1.287442	0.197401	-1.551357	177.739615	-75.003247	114.253600			
10164	7.982769	0.618602	-2.553927	0.659818	-0.162996	-1.436066	178.680530	-74.943039	113.166295			
10165	7.946461	-0.071527	-2.854228	0.157776	-0.677133	-1.397553	179.579998	-74.873969	112.067862			
10166	7.948446	-0.474767	-2.889663	-0.180544	-0.834990	-1.385146	-179.566187	-74.802657	110.987199			
10167	8.038874	-0.656815	-2.854057	-0.347794	-0.825519	-1.303985	-178.735848	-74.744073	109.925765			
10168	8.118200	-0.664061	-2.793547	-0.358571	-0.733620	-1.240453	-177.905466	-74.692118	108.864947			
10169	8.180156	-0.698430	-2.890265	-0.337333	-0.798598	-1.152159	-177.091727	-74.648540	107.826695			
10170	8.205674	-0.774030	-2.944278	-0.366209	-0.850518	-1.109618	-176.297922	-74.614668	106.833659			
10171	8.287301	-0.785493	-2.997082	-0.338950	-0.867535	-1.014320	-175.518830	-74.601983	105.885830			
10172	8.299127	-0.899000	-2.835422	-0.474035	-0.746774	-1.041092	-174.768892	-74.600103	104.986650			
10173	8.037699	-1.032650	-2.622493	-0.627056	-0.658186	-1.343804	-174.057624	-74.604872	104.135071			
10174	8.038945	-1.152750	-2.420754	-0.784111	-0.506950	-1.390002	-173.436203	-74.588715	103.380483			
10175	8.227308	-1.346416	-2.331131	-0.988279	-0.430548	-1.223538	-172.923783	-74.545156	102.734182			
10176	8.528543	-1.564597	-2.166565	-1.250601	-0.260369	-0.967000	-172.513431	-74.470526	102.199269			
10177	8.850856	-1.783106	-2.016939	-1.512071	-0.093849	-0.686355	-172.185094	-74.379865	101.751102			
10178	9.137487	-1.911925	-1.900865	-1.677529	0.064926	-0.434838	-171.909409	-74.288406	101.372542			
10179	9.306358	-1.837396	-1.896205	-1.609306	0.157786	-0.275123	-171.678228	-74.203131	101.063501			
10180	9.253817	-1.595330	-1.929721	-1.359920	0.208691	-0.325376	-171.488720	-74.137550	100.805935			
10181	9.197980	-1.228128	-1.750425	-1.062273	0.486808	-0.442004	-171.361910	-74.102382	100.602862			
10182	8.976092	-0.759855	-1.536711	-0.673409	0.778741	-0.732535	-171.315639	-74.086386	100.459635			
10183	8.780193	-0.312600	-1.439914	-0.269984	0.960930	-0.965848	-171.338829	-74.074836	100.365354			
10184	8.637796	-0.008372	-1.441575	0.024676	1.020365	-1.115103	-171.440940	-74.058399	100.332420			
10185	8.667039	0.254725	-1.413861	0.260643	1.138606	-1.105386	-171.585448	-74.037957	100.331370			
10186	8.724793	0.474108	-1.375085	0.448989	1.259057	-1.069070	-171.788975	-74.025570	100.376010			
10187	8.759845	0.466815	-1.295698	0.409549	1.337063	-1.056194	-172.033789	-74.018898	100.453660			
10188	8.787899	0.275128	-1.266785	0.210466	1.308971	-1.029185	-172.284604	-74.022281	100.538482			
10189	8.652374	-0.090175	-1.458957	-0.078085	0.982156	-1.093196	-172.518062	-74.021832	100.620952			
10190	8.704199	-0.379736	-1.665661	-0.300498	0.720318	-0.976820	-172.699670	-73.988902	100.667741			
10191	8.944139	-0.368914	-1.676580	-0.305492	0.787035	-0.744508	-172.823947	-73.906589	100.642970			
10192	9.449202	-0.452478	-1.747805	-0.395508	0.849747	-0.238324	-172.941801	-73.798153	100.562070			
10193	10.127688	-0.523847	-1.913137	-0.454918	0.880763	0.459696	-173.058044	-73.708165	100.443778			
10194	10.636555	-0.570200	-2.212988	-0.441989	0.746913	1.031919	-173.149029	-73.654464	100.299016			
10195	10.967053	-0.678691	-2.595954	-0.454353	0.463225	1.459173	-173.191476	-73.644579	100.107387			
10196	10.975237	-1.066692	-2.827472	-0.759456	0.141939	1.544747	-173.168342	-73.679125	99.870970			
10197	10.855122	-1.291750	-2.535122	-1.045190	0.305395	1.356172	-173.062274	-73.766106	99.596570			
10198	10.733766	-1.336096	-1.905794	-1.244660	0.820327	1.068891	-172.900054	-73.915778	99.291043			
10199	10.735891	-1.251297	-1.241806	-1.328828	1.429107	0.890534	-172.680577	-74.106905	98.944457			
10200	10.928247	-0.802443	-0.776790	-1.011523	2.003590	0.940741	-172.421823	-74.292566	98.553431			
10201	11.613896	-0.488899	-0.802631	-0.706220	2.217307	1.604426	-172.165493	-74.481212	98.138668			
10202	12.324060	-0.744569	-1.125120	-0.864806	1.999729	2.392053	-171.886433	-74.708633	97.683714			
10203	12.667768	-0.826477	-1.811842	-0.739614	1.386735	2.913971	-171.444835	-74.937547	97.088918			
10204	12.941421	-0.743636	-3.122344	-0.282521	0.222775	3.515956	-170.857205	-75.099312	96.356743			
10205	13.244424	-1.119011	-4.393815	-0.275791	-1.012412	4.146943	-170.160878	-75.242863	95.537319			
10206	12.747616	-1.975211	-4.623706	-0.983082	-1.611822	3.759970	-169.382127	-75.455684	94.688713			
10207	11.770243	-2.896252	-4.405247	-1.858335	-1.933421	2.802430	-168.478614	-75.662063	93.817445			
10208	11.146817	-3.708350	-4.670073	-2.502301	-2.575104	2.308365	-167.338336	-75.742176	92.846522			
10209	10.603324	-4.066050	-5.109402	-2.649038	-3.220934	1.920889	-165.935831	-75.697427	91.706501			
10210	9.751172	-3.827490	-5.550605	-2.209733	-3.770048	1.207630	-164.429675	-75.573326	90.453236			
10211	9.462878	-3.215208	-5.929196	-1.437274	-4.011805	0.998333	-163.076873	-75.449557	89.273009			
10212	8.858659	-1.343448	-5.204360	0.217783	-2.975322	0.110310	-161.969669	-75.447742	88.262789			
10213	6.836565	1.052878	-3.716949	2.119153	-1.463946	-2.394544	-161.255030	-75.601723	87.514972			
10214	4.576094	3.074684	-2.147447	3.604907	-0.041897	-5.121345	-161.113702	-75.737457	87.210915			
10215	4.642567	4.112779	-1.946987	4.543538	0.419043	-5.182378	-161.658615	-75.682289	87.455009			
10216	6.601911	3.637659	-3.412541	4.487379	-0.600481	-2.886943	-162.710926	-75.502138	88.103223			
10217	9.447908	2.370595	-4.987821	3.659014	-1.683565	0.362668	-163.962933	-75.338343	88.938249			
10218	11.413944	1.112002	-5.456792	2.503740	-1.940785	2.485906	-165.153849	-75.336668	89.803904			
10219	12.112738	-0.236059	-4.860830	0.980098	-1.562175	3.110174	-166.193473	-75.503823	90.618151			
10220	11.735501	-2.059132	-4.133211	-1.025123	-1.466013	2.671094	-167.155809	-75.794617	91.396015			
10221	10.683933	-3.925839	-3.537491	-3.025527	-1.676485	1.593777	-168.106070	-76.169965	92.195231			
10222	9.449376	-4.875476	-2.847669	-4.144350	-1.614017	0.256523	-169.025391	-76.540107	93.048188			
10223	8.287588	-4.499558	-2.154738	-3.964137	-1.197157	-1.070538	-169.930477	-76.812353	93.993256			
10224	7.758852	-3.373360	-2.056882	-2.911477	-0.996762	-1.667767	-170.758531	-76.968659	94.963734			
10225	7.649056	-1.748542	-1.994258	-1.370666	-0.594611	-1.855918	-171.551915	-77.029692	95.957946			
10226	7.608826	-0.130316	-2.266326	0.242628	-0.472471	-1.890231	-172.381715	-77.027639	97.005167			
10227	7.536609	1.088179	-2.494670	1.455515	-0.396113	-1.942968	-173.300698	-76.973051	98.145726			
10228	7.717574	1.906702	-2.560470	2.227024	-0.196787	-1.765702	-174.352788	-76.875506	99.394814			
10229	8.008294	1.968264	-2.807270	2.302027	-0.330712	-1.417525	-175.486119	-76.763623	100.690049			
10230	8.182507	1.802507	-2.932340	2.127194	-0.437830	-1.205465	-176.639489	-76.678856	101.987600			
10231	8.364513	1.436950	-2.964487	1.733681	-0.515117	-1.006613	-177.789976	-76.613759	103.246437			
10232	8.575746	0.946186	-3.057401	1.232597	-0.683539	-0.768367	-178.942558	-76.577937	104.469499			
10233	8.471833	0.373134	-2.830691	0.588367	-0.654064	-0.916065	179.960754	-76.585776	105.635968			
10234	8.090513	0.045625	-2.394577	0.148428	-0.430249	-1.387414	178.931920	-76.609074	106.753131			
10235	7.805952	-0.097675	-2.052774	-0.090856	-0.223826	-1.744362	177.961273	-76.617983	107.821631			
10236	7.765796	-0.116200	-1.957412	-0.159786	-0.155987	-1.806276	177.083003	-76.581319	108.806163			
10237	7.951102	0.078197	-2.086689	0.019605	-0.184239	-1.594049	176.307429	-76.506262	109.706929			
10238	8.317939	0.355537	-2.220293	0.265155	-0.147221	-1.201522	175.618219	-76.402657	110.540590			
10239	8.785208	0.646533	-2.234047	0.482316	0.032309	-0.737715	175.021837	-76.298283	111.298161			
10240	9.323296	0.942071	-2.137606	0.667243	0.334184	-0.230216	174.526612	-76.203351	111.965936			
10241	9.717624	0.956451	-2.077250	0.605791	0.488359	0.140024	174.089070	-76.150120	112.575872			
10242	9.916255	0.947796	-1.978596	0.531969	0.623149	0.310254	173.713312	-76.127529	113.131510			
10243	9.937435	0.883590	-1.862012	0.419283	0.713677	0.302414	173.353611	-76.140755	113.674035			
10244	9.785629	0.878693	-1.582500	0.336180	0.929229	0.089758	172.992087	-76.188254	114.213056			
10245	9.533286	0.886476	-1.351040	0.289947	1.077467	-0.208019	172.622615	-76.257490	114.745092			
10246	9.322080	0.862509	-1.146418	0.217976	1.197680	-0.459753	172.232384	-76.342277	115.280224			
10247	9.077649	0.825712	-0.892271	0.123374	1.351772	-0.755143	171.848525	-76.430877	115.807349			
10248	9.059098	0.793117	-0.729043	0.036496	1.470516	-0.809132	171.468544	-76.524582	116.327990			
10249	8.945905	0.725761	-0.539113	-0.080737	1.582303	-0.961905	171.114296	-76.630410	116.829497			
10250	8.771924	0.660197	-0.500188	-0.143897	1.541480	-1.138830	170.786071	-76.742622	117.306340			
10251	8.623555	0.594806	-0.529590	-0.187483	1.442576	-1.275489	170.478056	-76.860138	117.765168			
10252	8.459184	0.560890	-0.599612	-0.185766	1.313867	-1.417979	170.207338	-76.971697	118.193905			
10253	8.402191	0.462314	-0.737150	-0.234802	1.125328	-1.444150	169.975839	-77.072813	118.592540			
10254	8.327307	0.307045	-0.927370	-0.317352	0.867890	-1.479359	169.812953	-77.168327	118.950902			
10255	8.370786	0.247884	-1.011896	-0.351737	0.764646	-1.419415	169.759767	-77.248107	119.244972			
10256	8.527193	0.241927	-1.142677	-0.330800	0.661861	-1.237738	169.861397	-77.306393	119.437721			
10257	8.765940	0.341692	-1.192085	-0.241343	0.689887	-0.989688	170.127963	-77.352036	119.512780			
10258	8.951376	0.587526	-1.309032	0.016767	0.700818	-0.774190	170.555729	-77.386732	119.463082			
10259	9.305146	0.820118	-1.402236	0.240356	0.768320	-0.401179	171.123473	-77.409357	119.299687			
10260	9.690846	1.235610	-1.411928	0.606657	0.988923	-0.010303	171.770902	-77.441419	119.068853			
10261	10.039608	1.961326	-1.176540	1.182007	1.542036	0.299173	172.406198	-77.492870	118.823635			
10262	10.323258	2.581362	-0.914936	1.652065	2.069674	0.534163	172.931305	-77.570813	118.627658			
10263	10.440006	3.159720	-0.680439	2.105181	2.522503	0.610640	173.299179	-77.670529	118.525401			
10264	10.350838	3.655211	-0.643100	2.568748	2.723332	0.526509	173.517581	-77.773736	118.500513			
10265	10.444321	4.065964	-0.948225	3.055739	2.612077	0.692290	173.501921	-77.866416	118.622197			
10266	10.733513	3.576261	-1.976651	2.948010	1.537664	1.180488	173.240850	-77.906587	118.919679			
10267	11.763084	2.673169	-3.186834	2.436778	0.284542	2.420586	172.819540	-77.836966	119.388486			
10268	13.195538	1.982132	-3.670336	1.792772	-0.141207	3.909130	172.212312	-77.682160	120.038368			
10269	13.923227	1.773914	-3.876334	1.543582	-0.265333	4.664038	171.174017	-77.559013	120.982125			
10270	13.363159	1.629675	-4.444483	1.609436	-0.959107	4.239804	169.680710	-77.514783	122.249174			
10271	11.982005	1.600929	-4.690455	1.751126	-1.490070	2.948357	167.863596	-77.488386	123.755057			
10272	11.074193	1.402359	-5.422743	1.843842	-2.441833	2.214248	165.890716	-77.382715	125.323309			
10273	11.337516	1.633084	-6.474604	2.278016	-3.314763	2.715212	163.860051	-77.211435	126.894450			
10274	11.525403	1.652149	-6.564296	2.178157	-3.406083	2.927298	161.831825	-77.085110	128.452276			
10275	10.354800	0.324360	-6.167521	0.861498	-3.768615	1.607460	159.938193	-77.042506	129.912407			
10276	9.056100	-2.200682	-5.467474	-1.618912	-4.259977	-0.015722	158.492712	-77.016292	131.087398			
10277	7.700655	-4.004074	-4.289854	-3.524483	-4.039531	-1.750698	157.671025	-77.031459	131.852346			
10278	6.228173	-5.397180	-3.262975	-4.940515	-3.827096	-3.526885	157.601248	-77.076355	132.034853			
10279	6.211382	-6.025041	-2.897405	-5.623713	-3.718554	-3.662611	158.415769	-77.050647	131.470626			
10280	7.723103	-5.633108	-3.172539	-5.356582	-3.580228	-2.071115	159.923940	-76.939681	130.315205			
10281	10.046521	-4.118237	-3.679986	-4.063939	-3.085950	0.453544	161.726979	-76.796032	128.922667			
10282	11.891593	-2.483641	-3.901635	-2.666822	-2.330785	2.445210	163.445081	-76.728450	127.631847			
10283	12.652774	-0.584043	-4.052570	-0.881910	-1.598375	3.360162	164.885736	-76.789768	126.600695			
10284	12.346068	1.453115	-3.770282	1.024785	-0.619350	3.122447	166.071587	-76.950832	125.793155			
10285	11.682305	3.276485	-2.858164	2.539718	0.782033	2.365926	167.064363	-77.166929	125.069369			
10286	10.291362	3.895215	-2.039233	3.046872	1.502225	0.850472	167.883972	-77.390007	124.338141			
10287	8.894069	3.159363	-2.001307	2.569850	0.994056	-0.566128	168.700123	-77.535910	123.464083			
10288	8.031826	1.899442	-2.358316	1.671790	0.035069	-1.393449	169.619011	-77.572244	122.428526			
10289	8.051553	0.687691	-2.637872	0.675874	-0.659152	-1.364763	170.696100	-77.518245	121.218606			
10290	8.060692	-0.332764	-2.780191	-0.196648	-1.142351	-1.358624	171.862296	-77.404611	119.925308			
10291	8.145024	-1.100844	-2.906472	-0.851403	-1.492247	-1.265816	173.068626	-77.271540	118.617963			
10292	8.270820	-1.354051	-2.703603	-1.149115	-1.339948	-1.185214	174.288499	-77.148806	117.328131			
10293	8.428664	-1.311673	-2.419143	-1.200762	-0.998956	-1.084846	175.504657	-77.042312	116.069092			
10294	8.591427	-1.255509	-2.260860	-1.190871	-0.769705	-0.953250	176.704250	-76.965448	114.860022			
10295	8.646347	-0.983511	-2.119538	-0.959826	-0.505637	-0.922132	177.861256	-76.946787	113.730044			
10296	8.364557	-0.813962	-2.101240	-0.747252	-0.469676	-1.195004	178.963300	-76.974473	112.673266			
10297	7.796888	-0.582932	-1.814198	-0.551120	-0.234579	-1.808705	-179.971799	-77.029624	111.670043			
10298	7.162728	-0.470562	-1.424339	-0.503122	0.032589	-2.511963	-178.963404	-77.076904	110.719736			
10299	7.005387	-0.420708	-1.221976	-0.491070	0.208190	-2.709089	-178.031740	-77.071872	109.826858			
10300	6.965393	-0.413476	-1.257914	-0.446690	0.182098	-2.738985	-177.200100	-77.011016	109.010038			
10301	7.258440	-0.559599	-1.436499	-0.521650	0.046585	-2.410844	-176.472289	-76.897436	108.269528			
10302	7.820587	-0.565939	-1.547873	-0.513322	0.089558	-1.837339	-175.839465	-76.729555	107.604921			
10303	8.271424	-0.550755	-1.482537	-0.542838	0.282786	-1.413701	-175.278787	-76.551758	106.986658			
10304	8.564948	-0.586649	-1.414519	-0.610418	0.428217	-1.143934	-174.775188	-76.370348	106.394184			
10305	8.933468	-0.562105	-1.628877	-0.525464	0.360212	-0.736891	-174.324398	-76.183559	105.853224			
10306	9.362257	-0.309682	-1.853515	-0.229742	0.381185	-0.274076	-173.949092	-76.009621	105.388780			
10307	9.562435	-0.111411	-1.790258	-0.073032	0.585314	-0.101374	-173.639395	-75.878972	104.981570			
10308	9.531926	-0.059274	-1.560086	-0.096933	0.825066	-0.189546	-173.404172	-75.797738	104.638080			
10309	9.451596	0.041372	-1.326204	-0.073872	1.065604	-0.328373	-173.247702	-75.752450	104.358565			
10310	9.423701	0.042318	-1.141219	-0.130644	1.232940	-0.401359	-173.177209	-75.734085	104.147785			
10311	9.473885	-0.005549	-1.077235	-0.196338	1.286818	-0.367026	-173.184970	-75.748338	103.994308			
10312	9.463496	-0.090225	-0.958809	-0.312626	1.357318	-0.402843	-173.253468	-75.794947	103.891797			
10313	9.526081	-0.200124	-0.912165	-0.432283	1.365820	-0.348758	-173.372801	-75.879480	103.826730			
10314	9.448263	-0.333848	-0.813540	-0.583677	1.374384	-0.441810	-173.520046	-76.003685	103.789207			
10315	9.117216	-0.524178	-0.807440	-0.741939	1.215838	-0.756112	-173.692261	-76.156620	103.770595			
10316	8.838365	-0.663944	-0.940634	-0.809961	0.959462	-0.988535	-173.887799	-76.315279	103.773976			
10317	8.545512	-0.769521	-1.117635	-0.832753	0.672943	-1.226613	-174.110948	-76.467531	103.793284			
10318	8.273562	-0.873614	-1.249055	-0.873437	0.437479	-1.456799	-174.363091	-76.590377	103.831815			
10319	8.411800	-1.113094	-1.398754	-1.062408	0.239409	-1.282281	-174.652512	-76.665050	103.899305			
10320	8.969608	-1.575589	-1.467464	-1.515066	0.145556	-0.714710	-174.907444	-76.680592	103.953532			
10321	9.897212	-1.956273	-1.478705	-1.929875	0.222322	0.197035	-175.054155	-76.668459	103.943885			
10322	10.491049	-2.273235	-1.477332	-2.266810	0.260400	0.780045	-175.092407	-76.662704	103.850847			
10323	10.588298	-2.454215	-1.547546	-2.421193	0.165821	0.894341	-175.045759	-76.654805	103.696844			
10324	10.641254	-2.526640	-1.540141	-2.492473	0.168596	0.946094	-174.956457	-76.637508	103.530182			
10325	10.964323	-2.655946	-1.441397	-2.659280	0.299062	1.241128	-174.821039	-76.613905	103.349762			
10326	11.281145	-2.481881	-1.321236	-2.541587	0.543642	1.519321	-174.606803	-76.592702	103.128766			
10327	11.639811	-2.269172	-1.296194	-2.355516	0.720670	1.859785	-174.314487	-76.585028	102.833880			
10328	11.990518	-1.851576	-1.574849	-1.874079	0.676686	2.258389	-173.931888	-76.612189	102.452587			
10329	12.180442	-1.256911	-1.813149	-1.222079	0.683533	2.486489	-173.441034	-76.666319	101.965251			
10330	12.302719	-1.100899	-2.442630	-0.854588	0.176481	2.748116	-172.844471	-76.700859	101.352563			
10331	12.569659	-1.078406	-3.162278	-0.588492	-0.414713	3.173492	-172.173706	-76.681408	100.666295			
10332	12.760766	-0.983061	-3.218534	-0.452357	-0.385013	3.370997	-171.428706	-76.689458	99.926698			
10333	11.898952	-1.203206	-2.361248	-0.855119	0.134594	2.347031	-170.656351	-76.805862	99.187196			
10334	9.998068	-1.211269	-2.303789	-0.772482	-0.262985	0.486339	-169.848127	-76.949121	98.471346			
10335	9.030628	-1.421218	-3.948924	-0.387026	-2.074335	-0.080607	-169.153181	-76.978977	97.861025			
10336	10.365180	-2.148246	-6.138290	-0.396724	-4.016299	1.739040	-168.646282	-76.897371	97.385632			
10337	11.746088	-2.014457	-6.782438	-0.083207	-4.239619	3.227585	-168.176819	-76.839134	96.927763			
10338	11.546389	-0.973063	-5.781712	0.613890	-3.023783	2.764036	-167.668785	-76.838081	96.416856			
10339	10.520745	0.533538	-4.979575	1.835183	-2.041419	1.511251	-167.143975	-76.862237	95.851928			
10340	8.863258	1.807469	-4.833657	3.053233	-1.889111	-0.205528	-166.680066	-76.922315	95.300384			
10341	6.916216	2.306454	-4.687298	3.530103	-2.052387	-2.167389	-166.408631	-76.996474	94.887829			
10342	5.885634	2.299648	-4.234004	3.400213	-1.881171	-3.273912	-166.377943	-77.001373	94.689907			
10343	6.160545	1.771332	-3.817625	2.755473	-1.600578	-3.066599	-166.567488	-76.889328	94.698368			
10344	7.506212	0.628668	-3.772177	1.614751	-1.589080	-1.698805	-166.956372	-76.683313	94.918619			
10345	9.269895	-0.596332	-3.798438	0.398867	-1.551975	0.094221	-167.463925	-76.488653	95.277204			
10346	10.438419	-1.761115	-3.632458	-0.814588	-1.451856	1.254622	-168.016229	-76.396232	95.682715			
10347	10.946735	-2.618340	-3.343668	-1.760947	-1.315883	1.721360	-168.632423	-76.434556	96.168641			
10348	10.950445	-2.807641	-3.051334	-2.059415	-1.117804	1.659667	-169.321745	-76.570874	96.766824			
10349	10.565495	-2.613021	-2.936346	-1.926601	-1.077073	1.242068	-170.058726	-76.766836	97.455829			
10350	9.562294	-1.996590	-2.848478	-1.360661	-1.083594	0.212873	-170.831689	-76.989719	98.233363			
10351	8.678721	-1.045758	-2.692327	-0.494605	-0.894641	-0.723284	-171.670227	-77.187330	99.117135			
10352	8.129746	-0.010128	-2.615923	0.466854	-0.667084	-1.311342	-172.560534	-77.326648	100.093478			
10353	7.945352	0.801177	-2.362996	1.147806	-0.249507	-1.568025	-173.488274	-77.408653	101.107305			
10354	7.636716	1.192385	-2.241444	1.471430	-0.096875	-1.901257	-174.428072	-77.450930	102.125061			
10355	7.451040	1.419386	-1.981203	1.592174	0.168683	-2.138426	-175.329973	-77.440841	103.101127			
10356	7.558275	1.317439	-1.883858	1.434442	0.252137	-2.047971	-176.161958	-77.383606	104.003995			
10357	7.705865	1.072331	-1.880071	1.166064	0.217521	-1.897017	-176.939861	-77.303761	104.856870			
10358	8.077516	0.679475	-2.037433	0.792763	0.037723	-1.492283	-177.659031	-77.211173	105.665861			
10359	8.284855	0.249014	-2.285582	0.420885	-0.271944	-1.229357	-178.306565	-77.110633	106.433977			
10360	8.476187	-0.064196	-2.382841	0.117638	-0.409393	-1.018012	-178.882135	-77.018470	107.161543			
10361	8.414694	-0.405514	-2.390037	-0.220831	-0.530164	-1.074614	-179.427294	-76.947301	107.885196			
10362	8.176893	-0.657624	-2.250911	-0.504461	-0.530123	-1.337717	-179.934426	-76.891966	108.591685			
10363	8.127180	-0.695911	-2.179048	-0.576127	-0.486318	-1.403457	179.571018	-76.833576	109.303755			
10364	8.110349	-0.538319	-2.166406	-0.446396	-0.425808	-1.423393	179.085552	-76.763244	110.020955			
10365	8.307266	-0.285234	-2.147030	-0.246667	-0.279136	-1.235801	178.605711	-76.679289	110.747349			
10366	8.524335	0.044382	-2.212178	0.048085	-0.175404	-1.007753	178.146398	-76.572827	111.466213			
10367	8.757968	0.450268	-2.303131	0.419283	-0.060524	-0.755665	177.714776	-76.458045	112.158030			
10368	8.813471	0.726176	-2.373510	0.676009	-0.005128	-0.681363	177.317507	-76.344434	112.812682			
10369	8.817222	0.895082	-2.305823	0.791136	0.130154	-0.690269	176.953452	-76.231945	113.425568			
10370	8.831412	0.963895	-2.275015	0.824815	0.199492	-0.681507	176.647146	-76.132574	113.970716			
10371	8.877037	0.970259	-2.099491	0.749625	0.383356	-0.678021	176.386945	-76.051159	114.458215			
10372	8.830285	0.780321	-1.888727	0.489494	0.506721	-0.776442	176.183075	-75.976774	114.891301			
10373	8.766315	0.623361	-1.657836	0.256049	0.654228	-0.896876	176.024575	-75.902905	115.276181			
10374	8.668140	0.492044	-1.577771	0.104067	0.666293	-1.014203	175.927492	-75.827036	115.593836			
10375	8.597088	0.392115	-1.497001	-0.019833	0.695668	-1.105201	175.874911	-75.756049	115.857693			
10376	8.507131	0.378449	-1.400330	-0.065409	0.767326	-1.217204	175.891761	-75.681429	116.045617			
10377	8.439953	0.362856	-1.313676	-0.110299	0.835402	-1.305036	175.963738	-75.598462	116.177904			
10378	8.538309	0.410781	-1.277128	-0.095464	0.921541	-1.219425	176.100005	-75.505517	116.254049			
10379	8.494578	0.443026	-1.266703	-0.069586	0.949557	-1.265633	176.281959	-75.391129	116.287966			
10380	8.638034	0.538651	-1.319952	0.016705	0.992232	-1.114228	176.492490	-75.243455	116.291730			
10381	8.782667	0.575060	-1.435009	0.069828	0.962509	-0.947372	176.706061	-75.070883	116.289922			
10382	9.014473	0.718414	-1.600073	0.228943	0.954917	-0.681821	176.909527	-74.885284	116.296206			
10383	9.285070	0.781879	-1.671940	0.273500	1.010586	-0.404017	177.079461	-74.700727	116.331888			
10384	9.494681	0.610951	-1.936889	0.183383	0.787668	-0.136963	177.229987	-74.530913	116.398261			
10385	9.685477	0.374160	-2.054229	-0.020168	0.662227	0.073126	177.366989	-74.375702	116.504774			
10386	9.872381	0.108950	-2.115145	-0.269573	0.570543	0.264583	177.498685	-74.242308	116.645161			
10387	9.952769	-0.124999	-2.173914	-0.476629	0.462173	0.353842	177.606845	-74.132851	116.834252			
10388	10.069935	-0.359980	-2.145885	-0.722390	0.432106	0.455196	177.672264	-74.046899	117.081093			
10389	10.182530	-0.504669	-2.009376	-0.929266	0.525496	0.523488	177.680795	-73.993559	117.393440			
10390	10.210454	-0.560949	-1.884943	-1.041417	0.616862	0.514750	177.634376	-73.972208	117.766921			
10391	10.146891	-0.644846	-1.721350	-1.183769	0.700794	0.407187	177.547390	-73.974366	118.191179			
10392	10.165195	-0.585093	-1.499571	-1.232771	0.912642	0.364227	177.453721	-73.989639	118.645683			
10393	10.100534	-0.428479	-1.045413	-1.284992	1.343029	0.179425	177.311988	-74.033014	119.162757			
10394	9.912341	-0.205217	-0.446680	-1.329035	1.893206	-0.161495	177.132394	-74.094337	119.732316			
10395	9.811618	0.128854	0.227226	-1.328126	2.577199	-0.435581	176.898610	-74.150557	120.349897			
10396	9.966333	0.851760	0.551680	-0.874929	3.202469	-0.360903	176.579863	-74.203854	121.017461			
10397	9.980998	1.261440	0.028560	-0.310902	2.929920	-0.193375	176.112345	-74.249142	121.762293			
10398	10.414489	1.379645	-0.927563	0.126916	2.256200	0.488706	175.559906	-74.224710	122.575168			
10399	11.333218	1.311831	-2.235782	0.482606	1.318536	1.728103	174.979777	-74.121206	123.431127			
10400	12.077519	0.551320	-3.123481	0.060061	0.377603	2.668505	174.420236	-73.972035	124.346476			
10401	12.465591	0.341255	-3.635007	0.002795	-0.056471	3.176435	173.917207	-73.800060	125.274849			
10402	11.856149	1.000414	-4.315817	0.947287	-0.430562	2.801293	173.396856	-73.663726	126.195431			
10403	10.457345	2.351693	-6.111990	3.154645	-1.565297	2.012745	172.706052	-73.524814	127.163812			
10404	9.522404	4.035071	-8.559279	5.876779	-2.959614	1.888721	171.766665	-73.324823	128.199452			
10405	9.360733	4.781021	-9.840457	7.077757	-3.682495	2.173124	170.535682	-73.045532	129.372980			
10406	9.475336	3.719058	-9.403986	5.825073	-3.834859	2.162668	169.036991	-72.687800	130.710732			
10407	9.519923	0.610210	-7.655430	2.186573	-3.932443	1.560969	167.492491	-72.223239	132.079572			
10408	10.114195	-1.509426	-6.406986	-0.480315	-3.804666	1.629205	166.103463	-71.683777	133.325909			
10409	11.184575	-2.252660	-5.773722	-1.771649	-3.385299	2.389972	164.998587	-71.265601	134.331220			
10410	11.293006	-2.236867	-5.472661	-2.007134	-3.103827	2.386612	164.198113	-71.140137	135.085890			
10411	10.711191	-1.821509	-4.916405	-1.800839	-2.588885	1.688318	163.779342	-71.204436	135.518572			
10412	10.857779	-1.381405	-5.021150	-1.403827	-2.446338	1.894415	163.765750	-71.306328	135.585916			
10413	11.512186	-0.489464	-4.974614	-0.775566	-1.828719	2.579685	164.086913	-71.482528	135.377406			
10414	11.532633	0.250200	-4.796727	-0.166581	-1.318008	2.609369	164.627703	-71.752689	135.003020			
10415	11.477503	1.209857	-4.543300	0.631799	-0.648122	2.557380	165.374684	-72.062315	134.463518			
10416	11.019284	2.129317	-4.255882	1.475808	-0.053325	2.099052	166.284961	-72.421250	133.756039			
10417	9.919734	3.005878	-3.582447	2.233013	0.703066	0.901276	167.275752	-72.813933	132.910743			
10418	8.797482	3.020070	-3.133406	2.341101	0.829399	-0.317132	168.256360	-73.178985	131.975891			
10419	7.859047	2.591474	-2.821338	2.074413	0.657212	-1.344815	169.173317	-73.485434	131.028968			
10420	7.139320	1.806940	-2.367432	1.369882	0.473306	-2.214076	169.965383	-73.708790	130.111551			
10421	6.604731	0.733322	-2.262295	0.528541	-0.101686	-2.813513	170.650508	-73.860630	129.225398			
10422	6.145098	-0.142884	-2.031552	-0.231257	-0.446388	-3.358458	171.294694	-73.956224	128.343418			
10423	5.945651	-0.915229	-2.050196	-0.839833	-0.881129	-3.574901	171.966849	-73.984136	127.413549			
10424	5.901753	-1.296561	-2.077281	-1.139328	-1.082689	-3.619424	172.753685	-73.925348	126.372902			
10425	6.336651	-1.377927	-2.413774	-1.116993	-1.279536	-3.104995	173.616348	-73.794536	125.259305			
10426	7.080485	-1.018965	-2.728548	-0.769223	-1.164118	-2.284771	174.534791	-73.644584	124.115412			
10427	8.025933	-0.705321	-3.134820	-0.442942	-1.099931	-1.249160	175.405184	-73.566101	123.041927			
10428	8.696960	-0.318954	-3.026306	-0.232053	-0.641067	-0.623973	176.157737	-73.607078	122.097441			
10429	9.146688	-0.186911	-3.221752	-0.060903	-0.630959	-0.134125	176.849197	-73.749923	121.242515			
10430	9.171587	0.037707	-3.176112	0.155140	-0.487742	-0.120166	177.575291	-73.953774	120.441118			
10431	8.860560	0.514844	-2.701096	0.452051	0.051864	-0.546444	178.301678	-74.182048	119.665750			
10432	8.521957	0.696272	-2.573399	0.645192	0.149514	-0.908075	179.019745	-74.400734	118.893164			
10433	8.038798	0.705398	-2.212034	0.593851	0.332591	-1.473051	179.700917	-74.603243	118.136990			
10434	7.833911	0.578307	-1.680494	0.301356	0.667402	-1.813166	-179.740304	-74.738665	117.431848			
10435	7.998925	0.299070	-1.571948	0.010986	0.664665	-1.682415	-179.276913	-74.803691	116.760857			
10436	8.200316	-0.022143	-1.686965	-0.226440	0.468068	-1.456784	-178.845610	-74.822340	116.092215			
10437	8.299924	-0.253327	-1.866080	-0.348185	0.241688	-1.312364	-178.412725	-74.788976	115.417182			
10438	8.303541	-0.589899	-2.322980	-0.435996	-0.285025	-1.185890	-177.946149	-74.699771	114.744801			
10439	8.404214	-0.587242	-2.341297	-0.427052	-0.250167	-1.082721	-177.431568	-74.561892	114.066343			
10440	8.701684	-0.666020	-2.141639	-0.607004	-0.008348	-0.847150	-176.894181	-74.383246	113.383279			
10441	9.203897	-0.719151	-1.970580	-0.771890	0.278456	-0.408509	-176.332955	-74.184909	112.689169			
10442	9.650300	-0.691265	-2.065871	-0.740730	0.362571	0.045998	-175.771726	-74.000690	112.003879			
10443	9.696363	-0.586583	-1.989181	-0.669661	0.524470	0.066418	-175.232279	-73.851936	111.334818			
10444	9.451174	-0.403413	-1.917268	-0.494652	0.635661	-0.194241	-174.723422	-73.723288	110.678460			
10445	9.154967	-0.180790	-1.906125	-0.254262	0.692551	-0.488789	-174.285640	-73.600609	110.055938			
10446	8.965019	-0.103627	-1.935032	-0.141364	0.676709	-0.666723	-173.920583	-73.470727	109.478706			
10447	8.842137	-0.027116	-1.992986	-0.026506	0.650640	-0.772111	-173.634754	-73.345732	108.956156			
10448	8.814645	0.047614	-1.897507	0.011932	0.777878	-0.829620	-173.435832	-73.244265	108.496628			
10449	8.758450	0.128108	-1.686996	0.009918	0.993225	-0.947801	-173.345537	-73.172915	108.126493			
10450	8.770426	0.165102	-1.377026	-0.078326	1.289960	-1.027831	-173.344337	-73.130781	107.827592			
10451	8.846621	0.041409	-1.016958	-0.337812	1.578033	-1.055159	-173.426797	-73.115696	107.596580			
10452	9.020147	-0.266167	-0.708255	-0.752283	1.772659	-0.968069	-173.570469	-73.124048	107.414460			
10453	9.151211	-0.744322	-0.583543	-1.246643	1.727071	-0.862699	-173.742592	-73.157239	107.263700			
10454	9.392741	-1.185664	-0.634702	-1.649620	1.573715	-0.602128	-173.930076	-73.213228	107.128009			
10455	9.447960	-1.537245	-0.871854	-1.884719	1.240436	-0.469436	-174.115978	-73.292149	106.978066			
10456	9.265285	-1.751715	-1.299471	-1.904858	0.727802	-0.515136	-174.280796	-73.366042	106.792703			
10457	9.259134	-1.436961	-1.651166	-1.482958	0.534606	-0.429841	-174.404815	-73.396508	106.560773			
10458	9.463440	-0.971680	-1.797008	-1.015750	0.639881	-0.205976	-174.499891	-73.384094	106.292148			
10459	9.885399	-0.546282	-1.930488	-0.606121	0.799798	0.224208	-174.559489	-73.365490	106.009195			
10460	10.118412	-0.274039	-1.747285	-0.432820	1.127462	0.387894	-174.599142	-73.388517	105.761139			
10461	10.227849	-0.516936	-1.648643	-0.697084	1.152783	0.472219	-174.633604	-73.457577	105.566447			
10462	10.589212	-0.948860	-1.678233	-1.111910	1.061466	0.840253	-174.650615	-73.546276	105.420888			
10463	10.943948	-1.554871	-1.937994	-1.608813	0.699379	1.271807	-174.596601	-73.641380	105.265060			
10464	11.663817	-1.691293	-2.097471	-1.725055	0.691189	2.013170	-174.487309	-73.724153	105.076626			
10465	12.650224	-1.860363	-2.734900	-1.724334	0.316282	3.144759	-174.306276	-73.791452	104.818485			
10466	13.132606	-1.327060	-3.271271	-1.055044	0.144715	3.744360	-173.920733	-73.825840	104.390563			
10467	13.577017	-0.860089	-4.073392	-0.344361	-0.286290	4.381220	-173.366808	-73.792126	103.814251			
10468	13.719924	-1.290634	-4.895709	-0.437356	-1.119279	4.762145	-172.682424	-73.782600	103.162393			
10469	12.597171	-1.785998	-4.692614	-0.845946	-1.410736	3.648108	-171.833444	-73.869050	102.442619			
10470	11.221392	-2.371987	-4.793693	-1.213013	-2.085170	2.381808	-170.802100	-73.941136	101.623460			
10471	10.825276	-3.404028	-5.613173	-1.794724	-3.283962	2.281758	-169.531165	-73.903579	100.649056			
10472	10.866729	-4.280428	-6.579561	-2.175321	-4.424029	2.652994	-167.992357	-73.772949	99.500061			
10473	10.817339	-3.911368	-6.938121	-1.578590	-4.588317	2.713481	-166.252259	-73.605039	98.215372			
10474	10.144883	-1.933288	-6.317704	0.179777	-3.462976	1.786618	-164.530936	-73.476196	96.891735			
10475	8.915410	0.660813	-5.085474	2.254687	-1.729601	0.072029	-163.106284	-73.422350	95.664732			
10476	6.875000	2.735016	-3.859104	3.817901	-0.445465	-2.405685	-162.173604	-73.456338	94.709407			
10477	4.729735	3.503282	-3.181530	4.341482	-0.183195	-4.725109	-161.885694	-73.518207	94.228966			
10478	4.498179	3.261685	-3.267210	4.152863	-0.431766	-4.902074	-162.255518	-73.476784	94.317018			
10479	6.613278	3.007953	-4.024891	4.131066	-0.606947	-2.632941	-163.127016	-73.322733	94.862416			
10480	9.508344	2.285326	-4.824353	3.631416	-0.748673	0.441951	-164.263359	-73.153933	95.619309			
10481	11.414410	1.264264	-5.310386	2.727637	-0.997647	2.501997	-165.432297	-73.110287	96.377637			
10482	11.800003	-0.420555	-5.408711	1.094951	-1.587945	3.030596	-166.565126	-73.240692	97.116749			
10483	10.989934	-2.640289	-4.943390	-1.191063	-2.214143	2.264775	-167.638382	-73.525689	97.881630			
10484	9.602601	-4.370908	-4.075743	-3.114939	-2.470605	0.775945	-168.609879	-73.870860	98.676407			
10485	8.326923	-4.951583	-3.082618	-3.980104	-2.177211	-0.714525	-169.432945	-74.151145	99.470872			
10486	7.549603	-4.534784	-2.341823	-3.826706	-1.618923	-1.702189	-170.135413	-74.301206	100.246474			
10487	7.510059	-3.724680	-2.226307	-3.121498	-1.277425	-1.821753	-170.764315	-74.342020	101.019675			
10488	7.765402	-2.514245	-2.281819	-1.998030	-0.862084	-1.621580	-171.361484	-74.322227	101.816484			
10489	7.969708	-0.965623	-2.433478	-0.526740	-0.416583	-1.450903	-171.990738	-74.265815	102.681699			
10490	8.196415	0.149729	-2.759559	0.590302	-0.257549	-1.186915	-172.692082	-74.190985	103.621449			
10491	8.180305	0.993236	-2.853658	1.382177	-0.041554	-1.202517	-173.446455	-74.128220	104.599747			
10492	8.159099	1.429186	-2.829596	1.749167	0.136441	-1.237037	-174.247376	-74.082019	105.602230			
10493	8.096994	1.509000	-2.784405	1.777948	0.191321	-1.304250	-175.089104	-74.064207	106.609681			
10494	8.163323	1.372333	-2.661069	1.567453	0.265284	-1.264177	-175.948179	-74.074281	107.597663			
10495	8.175904	0.995671	-2.757918	1.218297	0.033605	-1.212838	-176.778875	-74.114681	108.534596			
10496	8.220645	0.651960	-2.791571	0.879105	-0.125912	-1.151962	-177.501714	-74.171140	109.375238			
10497	7.931897	0.443353	-2.753539	0.676288	-0.258801	-1.435985	-178.082565	-74.233860	110.096321			
10498	7.810570	0.292008	-2.707275	0.514668	-0.318540	-1.563250	-178.560118	-74.290183	110.719328			
10499	7.890308	0.249996	-2.577082	0.407498	-0.209581	-1.521077	-178.980685	-74.330034	111.293495			
10500	8.073752	0.295460	-2.584375	0.421623	-0.160178	-1.342249	-179.343344	-74.337506	111.810588			
10501	8.389911	0.393860	-2.597307	0.472961	-0.058660	-1.034043	-179.666208	-74.328494	112.300191			
10502	8.722488	0.570815	-2.578579	0.582645	0.108586	-0.718435	-179.937773	-74.305021	112.751130			
10503	9.082606	0.716183	-2.678431	0.705029	0.166668	-0.344013	179.852220	-74.294913	113.150224			
10504	9.241733	0.653019	-2.611733	0.597009	0.238800	-0.208326	179.694707	-74.318300	113.507542			
10505	9.210681	0.548747	-2.487784	0.453231	0.292243	-0.271408	179.553320	-74.380862	113.857477			
10506	9.069120	0.447950	-2.309494	0.306404	0.362300	-0.455434	179.422341	-74.473479	114.197089			
10507	8.758142	0.360335	-2.091430	0.176142	0.427893	-0.812975	179.295921	-74.578249	114.523620			
10508	8.518243	0.304073	-1.894830	0.075251	0.504587	-1.095864	179.185296	-74.678867	114.819540			
10509	8.279201	0.187152	-1.754850	-0.059192	0.509084	-1.363012	179.109222	-74.758791	115.070600			
10510	8.158909	0.084275	-1.587265	-0.205354	0.575806	-1.522900	179.071702	-74.810654	115.285096			
10511	8.251864	-0.027521	-1.417107	-0.384984	0.694536	-1.477724	179.087435	-74.843558	115.454494			
10512	8.384157	-0.066385	-1.285785	-0.487513	0.821216	-1.384183	179.152344	-74.856139	115.593016			
10513	8.507007	-0.064235	-1.181441	-0.541689	0.941283	-1.292731	179.250883	-74.853023	115.723849			
10514	8.636371	0.059878	-1.073090	-0.489130	1.120559	-1.196011	179.377695	-74.831347	115.851650			
10515	8.837853	0.310818	-1.121464	-0.267634	1.236736	-0.988811	179.502325	-74.802151	115.983834			
10516	8.960711	0.713060	-1.183116	0.103794	1.391469	-0.854139	179.628076	-74.768900	116.095239			
10517	9.012379	1.074130	-1.476154	0.542469	1.314017	-0.727819	179.738059	-74.730146	116.191319			
10518	9.071472	1.242819	-1.798905	0.819979	1.132943	-0.586836	179.844514	-74.673827	116.274411			
10519	9.368149	1.192754	-2.042284	0.839690	0.985098	-0.237706	179.965459	-74.597741	116.357014			
10520	9.716904	1.059487	-2.155538	0.724346	0.928790	0.127118	-179.854023	-74.521467	116.412584			
10521	9.988012	1.087679	-2.029757	0.662365	1.131731	0.353127	-179.629141	-74.468812	116.442130			
10522	10.188570	1.184534	-1.950958	0.692546	1.304473	0.523416	-179.405682	-74.450725	116.443350			
10523	10.268811	1.169352	-1.952627	0.673330	1.322227	0.600139	-179.262043	-74.461309	116.482195			
10524	10.381977	1.177651	-1.749868	0.579626	1.527475	0.654653	-179.211738	-74.491542	116.581482			
10525	10.361669	1.160567	-1.227291	0.334137	1.955677	0.496581	-179.282713	-74.547423	116.772879			
10526	10.252296	1.386431	-0.808444	0.356770	2.378895	0.281811	-179.493414	-74.626105	117.059936			
10527	10.011812	1.489385	-0.490547	0.326689	2.623133	-0.029657	-179.889345	-74.705600	117.467136			
10528	10.080336	1.391386	-0.550520	0.243020	2.524373	0.057502	179.549232	-74.734594	117.995725			
10529	10.697209	1.366368	-1.210841	0.413037	2.076347	0.830689	178.825256	-74.713007	118.673988			
10530	11.230702	0.868912	-2.223404	0.314254	1.093200	1.612423	177.960640	-74.622216	119.516877			
10531	12.031027	0.234698	-3.358815	0.091577	0.015233	2.680243	177.009395	-74.413787	120.501659			
10532	13.099544	0.282859	-3.977555	0.183481	-0.228520	3.877179	175.993094	-74.153944	121.578561			
10533	13.352008	1.207981	-4.119648	0.937041	0.148749	4.180378	174.776085	-73.946657	122.775236			
10534	12.577810	2.244871	-4.324952	1.960098	0.265250	3.530199	173.262017	-73.758320	124.104585			
10535	11.941864	2.748568	-5.006030	2.686667	-0.258216	3.146352	171.450392	-73.504507	125.551864			
10536	11.513514	2.505184	-5.545754	2.630367	-0.964104	2.905087	169.410422	-73.151405	127.109859			
10537	10.843656	3.011529	-6.284089	3.347390	-1.562903	2.536147	167.334196	-72.774465	128.643759			
10538	9.968741	3.155024	-7.933064	4.152214	-3.176013	2.226128	165.500851	-72.449453	129.912733			
10539	9.494501	1.958718	-8.654553	3.321429	-4.486399	1.922829	164.124923	-72.246743	130.860163			
10540	8.701284	0.342294	-7.142136	1.346033	-4.085297	0.595858	163.297726	-72.186508	131.436400			
10541	6.940344	-1.629858	-5.074846	-0.905280	-3.547140	-1.864284	163.069659	-72.243116	131.556744			
10542	5.748712	-3.288606	-3.477078	-2.772888	-3.131030	-3.611041	163.473520	-72.255936	131.172859			
10543	6.627376	-4.202891	-3.335931	-3.809092	-3.180534	-2.878013	164.405108	-72.158020	130.389110			
10544	8.346755	-3.536266	-3.738808	-3.361520	-2.811663	-1.040768	165.634904	-72.030437	129.402593			
10545	10.262358	-2.258735	-3.680724	-2.564471	-1.708200	0.886410	166.877548	-71.969935	128.390228			
10546	11.329643	-1.215118	-3.537409	-1.834480	-0.829955	1.947247	167.932861	-71.997715	127.454088			
10547	11.445142	0.204208	-3.878121	-0.389844	-0.451709	2.258621	168.765162	-72.103347	126.613487			
10548	10.762243	1.685596	-4.397168	1.323542	-0.415231	1.852554	169.380918	-72.223147	125.917281			
10549	10.225981	2.723527	-4.181298	2.305979	0.086908	1.329410	169.845386	-72.330632	125.333790			
10550	9.733365	2.937539	-3.562463	2.370320	0.585574	0.680037	170.211980	-72.433265	124.820569			
10551	9.072131	2.478501	-2.920766	1.841566	0.770903	-0.169467	170.484873	-72.520050	124.349417			
10552	8.464605	1.522724	-2.815455	1.058892	0.296329	-0.830153	170.730885	-72.577436	123.876359			
10553	8.095469	0.484879	-2.833966	0.203359	-0.252115	-1.227925	171.038603	-72.619756	123.348223			
10554	7.966296	-0.611948	-3.028666	-0.679610	-0.907789	-1.343733	171.499039	-72.645873	122.706740			
10555	7.865363	-1.446441	-3.086477	-1.380977	-1.316218	-1.455483	172.144435	-72.645454	121.943724			
10556	8.017677	-1.662272	-3.038367	-1.595933	-1.302396	-1.325366	172.994042	-72.616667	121.031980			
10557	8.297279	-1.591417	-3.289458	-1.445884	-1.394110	-0.971666	174.006476	-72.594516	120.000017			
10558	8.369706	-1.098854	-3.293623	-0.965415	-1.150514	-0.876722	175.103467	-72.611641	118.910192			
10559	8.359878	-0.696496	-3.252538	-0.566472	-0.932354	-0.881770	176.188984	-72.673211	117.820703			
10560	8.062694	-0.146208	-2.975684	-0.083341	-0.531618	-1.234029	177.185456	-72.771529	116.789285			
10561	7.656894	0.369469	-2.770185	0.405407	-0.244629	-1.675481	178.094014	-72.889265	115.816535			
10562	7.113704	0.877986	-2.581684	0.905332	-0.016634	-2.248250	178.948189	-72.998491	114.876171			
10563	6.859693	1.243126	-2.524421	1.281752	0.113681	-2.510800	179.736694	-73.067799	113.967151			
10564	6.708160	1.192936	-2.392960	1.232036	0.170353	-2.699196	-179.508687	-73.097774	113.050086			
10565	6.947957	1.040222	-2.098643	0.977976	0.436839	-2.559195	-178.819983	-73.083255	112.143260			
10566	7.421612	0.654401	-2.212294	0.637240	0.322898	-2.073668	-178.215979	-73.014967	111.258167			
10567	8.073666	0.144575	-2.626560	0.272836	-0.045547	-1.325802	-177.672330	-72.913365	110.414115			
10568	8.535681	-0.201696	-2.938794	0.037621	-0.305281	-0.788256	-177.168550	-72.819503	109.610724			
10569	8.726744	-0.455760	-3.085161	-0.146457	-0.457969	-0.557918	-176.662540	-72.758707	108.816707			
10570	8.831131	-0.743798	-2.945137	-0.456423	-0.397127	-0.493360	-176.186387	-72.735358	108.065638			
10571	8.762340	-1.043878	-2.708945	-0.795036	-0.307449	-0.621386	-175.754786	-72.741722	107.390635			
10572	8.639539	-1.214951	-2.368249	-1.046459	-0.094691	-0.833697	-175.371819	-72.758996	106.797164			
10573	8.520987	-1.268889	-1.913831	-1.230234	0.261575	-1.077807	-175.057068	-72.780243	106.299521			
10574	8.566019	-1.321290	-1.571896	-1.388715	0.565070	-1.132509	-174.828786	-72.791997	105.899666			
10575	8.774786	-1.241241	-1.359289	-1.394214	0.846921	-0.996560	-174.695311	-72.803280	105.603732			
10576	8.904525	-1.144340	-1.145771	-1.380633	1.111325	-0.937346	-174.668493	-72.820599	105.415577			
10577	8.992074	-0.859142	-0.988526	-1.170812	1.376361	-0.907210	-174.742755	-72.848962	105.316088			
10578	9.067391	-0.725689	-1.131317	-1.002367	1.313833	-0.796414	-174.881812	-72.885086	105.266163			
10579	9.038691	-0.713551	-1.486736	-0.871309	0.987373	-0.719647	-175.071476	-72.919047	105.264265			
10580	9.151870	-0.957054	-1.915659	-0.970905	0.548469	-0.480005	-175.262078	-72.937077	105.273148			
10581	9.431120	-1.107706	-2.053071	-1.094859	0.451791	-0.169799	-175.418427	-72.944805	105.266230			
10582	9.904806	-1.217627	-2.005285	-1.255091	0.592204	0.271112	-175.516460	-72.950444	105.212259			
10583	10.447933	-1.276847	-1.868403	-1.397745	0.849165	0.751678	-175.537131	-72.972604	105.090810			
10584	10.825106	-1.430474	-2.022635	-1.516107	0.763988	1.161736	-175.443732	-73.015899	104.883755			
10585	11.074759	-1.633255	-2.329804	-1.614508	0.486629	1.496704	-175.198080	-73.070886	104.573886			
10586	11.223048	-1.826282	-2.502287	-1.730218	0.303932	1.696763	-174.784462	-73.140966	104.144751			
10587	10.925031	-2.054931	-2.346161	-1.944635	0.276532	1.377725	-174.250631	-73.242434	103.636793			
10588	10.486278	-1.939935	-1.762335	-1.959873	0.702591	0.793741	-173.692324	-73.382483	103.121018			
10589	10.038235	-1.407796	-0.888535	-1.678769	1.522100	0.107110	-173.185132	-73.525378	102.648666			
10590	9.868361	-0.895822	-0.108084	-1.411656	2.330664	-0.285154	-172.802610	-73.652324	102.253321			
10591	10.110476	-0.478488	0.166291	-1.099643	2.764754	-0.136676	-172.554151	-73.788197	101.941038			
10592	10.451790	0.031926	-0.078040	-0.538676	2.785276	0.247086	-172.377533	-73.913880	101.643033			
10593	10.979819	0.230709	-1.084609	-0.038096	2.067174	1.027577	-172.215817	-73.973576	101.313087			
10594	11.583695	0.090621	-2.374602	0.225728	1.014578	1.966472	-171.953121	-73.945959	100.891119			
10595	12.137106	-0.505974	-3.350828	-0.038781	0.101882	2.788164	-171.530874	-73.875594	100.350596			
10596	12.428749	-1.119151	-3.692888	-0.497965	-0.306058	3.188158	-170.952486	-73.842390	99.703912			
10597	11.894336	-1.066421	-3.453898	-0.459672	-0.211743	2.608488	-170.247328	-73.877433	98.962634			
10598	10.811571	-0.348562	-3.547054	0.339564	-0.364481	1.560301	-169.471913	-73.875141	98.165161			
10599	10.551348	-0.932853	-4.969508	0.284087	-1.894311	1.729750	-168.679301	-73.757153	97.334962			
10600	11.264713	-3.447992	-7.568500	-1.261523	-4.805352	3.278579	-167.718655	-73.588863	96.395121			
10601	11.803709	-5.334270	-9.325620	-2.426625	-6.798885	4.422288	-166.291788	-73.479350	95.187696			
10602	11.518006	-4.252105	-8.673587	-1.464379	-5.926786	3.924216	-164.386101	-73.429590	93.676185			
10603	10.379191	-1.008355	-6.585735	1.086156	-3.311457	2.018168	-162.325310	-73.392229	92.013538			
10604	8.833574	1.921800	-4.876144	3.401019	-1.243977	-0.200871	-160.580044	-73.366261	90.475754			
10605	7.004172	3.013619	-4.416050	4.339825	-0.996358	-2.209083	-159.432159	-73.407721	89.274877			
10606	5.714632	3.090462	-4.368132	4.416528	-1.316152	-3.484141	-158.955806	-73.465458	88.561521			
10607	6.245174	3.314697	-4.324517	4.615669	-1.081438	-3.014388	-159.095241	-73.473605	88.352319			
10608	7.666534	2.763485	-4.490357	4.139900	-1.027303	-1.543369	-159.724945	-73.438609	88.544597			
10609	9.279520	1.704776	-4.674055	3.165624	-1.082179	0.170798	-160.648622	-73.408884	88.981416			
10610	10.603787	0.501257	-4.948571	2.055438	-1.334511	1.640424	-161.665368	-73.427493	89.513278			
10611	11.252678	-0.794139	-4.751845	0.695934	-1.377060	2.330308	-162.617015	-73.569648	90.014168			
10612	10.278553	-2.098256	-4.080241	-0.811203	-1.454376	1.319516	-163.488479	-73.854298	90.484639			
10613	8.805464	-3.193803	-3.167156	-2.172536	-1.380031	-0.265818	-164.309063	-74.177718	90.972453			
10614	7.826692	-3.678663	-2.634239	-2.824707	-1.324599	-1.327691	-165.075899	-74.427691	91.491220			
10615	7.574849	-3.349057	-2.319676	-2.626636	-1.033107	-1.688108	-165.765919	-74.574394	92.035581			
10616	7.533768	-2.390445	-2.059866	-1.803594	-0.555913	-1.865808	-166.392646	-74.641305	92.594631			
10617	7.857206	-1.306500	-2.207417	-0.748678	-0.319446	-1.587561	-167.020829	-74.652967	93.196510			
10618	7.921506	-0.306933	-2.437566	0.250312	-0.246036	-1.526376	-167.664006	-74.639373	93.847526			
10619	7.861599	0.449995	-2.589415	0.994654	-0.195665	-1.585621	-168.383875	-74.612643	94.591510			
10620	7.747961	0.885750	-2.802597	1.445702	-0.300248	-1.658565	-169.185682	-74.565403	95.424075			
10621	7.867601	0.821747	-3.002206	1.405059	-0.465753	-1.482234	-170.017551	-74.524097	96.295622			
10622	7.988205	0.459494	-3.027948	1.028449	-0.553969	-1.337645	-170.851460	-74.500130	97.182570			
10623	8.071502	0.003512	-3.072390	0.568486	-0.701108	-1.223512	-171.667222	-74.518113	98.066765			
10624	7.999827	-0.345854	-3.003019	0.187030	-0.760860	-1.296760	-172.446644	-74.559713	98.928523			
10625	7.839344	-0.670375	-2.901806	-0.172393	-0.811546	-1.467820	-173.172454	-74.610814	99.749833			
10626	7.765889	-0.905838	-2.735105	-0.465220	-0.755108	-1.577173	-173.854806	-74.656163	100.543981			
10627	7.731103	-1.025852	-2.555110	-0.650513	-0.643469	-1.657098	-174.472844	-74.687075	101.301657			
10628	7.735396	-0.822158	-2.379998	-0.524639	-0.431059	-1.706172	-175.031370	-74.692717	102.028879			
10629	7.949565	-0.540981	-2.342280	-0.296764	-0.263731	-1.517094	-175.529524	-74.664699	102.726051			
10630	8.282858	-0.047187	-2.355417	0.140863	-0.042792	-1.202562	-175.969790	-74.601985	103.392066			
10631	8.732734	0.398059	-2.463171	0.550629	0.114449	-0.747921	-176.353422	-74.527618	104.028143			
10632	8.977739	0.849985	-2.489987	0.955610	0.300217	-0.511131	-176.659688	-74.466166	104.607594			
10633	9.161179	1.182273	-2.399853	1.216949	0.542390	-0.362339	-176.893265	-74.426587	105.123015			
10634	9.178444	1.377610	-2.250776	1.343420	0.751609	-0.387300	-177.062233	-74.421733	105.563819			
10635	9.100370	1.413030	-1.997743	1.294683	0.975769	-0.529583	-177.211982	-74.452022	105.962886			
10636	9.013503	1.327465	-1.878147	1.174525	1.032740	-0.642803	-177.338874	-74.499541	106.312761			
10637	8.962876	1.099093	-1.721781	0.906492	1.082505	-0.729068	-177.450353	-74.560306	106.634507			
10638	8.990072	0.747947	-1.557657	0.515753	1.115907	-0.740981	-177.509424	-74.627847	106.900933			
10639	8.936936	0.354324	-1.390258	0.092394	1.113927	-0.830605	-177.520764	-74.708269	107.126448			
10640	8.866973	-0.006155	-1.200544	-0.303897	1.135933	-0.942409	-177.488704	-74.789211	107.327382			
10641	8.913879	-0.207775	-1.060105	-0.542190	1.193864	-0.929842	-177.389550	-74.869988	107.487884			
10642	8.940932	-0.339516	-1.100021	-0.651762	1.105694	-0.889783	-177.254004	-74.956187	107.639574			
10643	8.773233	-0.178332	-1.256099	-0.429645	0.965053	-1.011366	-177.067968	-75.045885	107.761624			
10644	8.548414	0.175801	-1.446216	-0.008390	0.851874	-1.182968	-176.846248	-75.123817	107.828379			
10645	8.429520	0.579015	-1.841604	0.523515	0.603826	-1.201945	-176.607034	-75.182219	107.828244			
10646	8.433871	0.796004	-2.310625	0.899693	0.261443	-1.081996	-176.346538	-75.192671	107.784745			
10647	8.724004	1.062494	-2.671932	1.263375	0.113267	-0.715029	-176.031420	-75.160217	107.708565			
10648	9.094050	1.437219	-2.595256	1.566419	0.426225	-0.385740	-175.640623	-75.115380	107.566781			
10649	9.518306	1.807643	-2.390773	1.814334	0.868990	-0.038511	-175.260223	-75.075950	107.415310			
10650	9.935309	2.098063	-2.131646	1.965061	1.328567	0.288281	-174.972025	-75.045276	107.305976			
10651	10.505214	2.157057	-1.786602	1.852670	1.809442	0.746569	-174.847957	-75.045260	107.307757			
10652	11.000149	1.946474	-1.253394	1.420089	2.326031	1.093089	-174.933850	-75.093960	107.472695			
10653	11.254655	1.543053	-0.749721	0.831452	2.668492	1.223532	-175.253748	-75.196664	107.834565			
10654	11.244900	1.331622	-0.388416	0.487076	2.879132	1.134690	-175.803200	-75.341721	108.385651			
10655	10.979237	1.050921	-0.384248	0.226727	2.674185	0.892118	-176.579284	-75.505245	109.111076			
10656	10.884431	0.762848	-0.814476	0.100493	2.117542	0.921457	-177.559070	-75.639800	110.006324			
10657	10.959932	0.142868	-1.660705	-0.202308	1.105547	1.216141	-178.641980	-75.725259	111.019019			
10658	11.231040	-0.439217	-2.375984	-0.547423	0.280164	1.658845	-179.755876	-75.712276	112.154747			
10659	11.784378	-0.213057	-2.727559	-0.316866	0.169276	2.279755	179.183603	-75.590334	113.333717			
10660	12.477226	0.876367	-2.783162	0.573462	0.700166	2.969160	178.035644	-75.432210	114.593134			
10661	12.489339	1.506526	-2.846652	1.095165	0.893602	3.007533	176.623411	-75.263165	116.017131			
10662	11.915217	1.209743	-3.265484	0.941568	0.276206	2.562103	174.904686	-75.014878	117.645161			
10663	11.241589	1.592617	-4.706957	1.787652	-1.007156	2.305635	173.087101	-74.646284	119.317997			
10664	11.281239	3.787540	-6.756791	4.417271	-1.970742	2.988405	171.288488	-74.244744	120.877369			
10665	11.671096	4.779250	-8.442519	5.736207	-3.022912	3.909104	169.520441	-73.983447	122.259373			
10666	10.884128	3.109314	-8.287007	4.120200	-3.750923	3.062076	167.853020	-73.920472	123.514793			
10667	9.397255	0.619916	-6.950267	1.486393	-3.872615	1.132256	166.546579	-73.913064	124.541914			
10668	7.906657	-1.835105	-5.449928	-1.121658	-3.789805	-0.870448	165.740988	-73.875231	125.193848			
10669	6.989305	-3.654137	-5.067876	-2.819276	-4.323090	-1.986511	165.465431	-73.819880	125.428594			
10670	7.236923	-4.336540	-5.054365	-3.502827	-4.495502	-1.797334	165.713740	-73.701753	125.267140			
10671	8.458155	-4.130194	-4.877191	-3.556040	-3.960316	-0.644469	166.346471	-73.554306	124.818438			
10672	9.791913	-3.237791	-4.554300	-3.027315	-3.001862	0.624290	167.148924	-73.439181	124.232481			
10673	10.835859	-1.915180	-4.271310	-2.030523	-1.981238	1.645031	167.960123	-73.402697	123.630068			
10674	11.127226	-0.639477	-4.221576	-0.871002	-1.372464	1.994231	168.636040	-73.479286	123.122712			
10675	10.395660	0.548283	-4.413614	0.453123	-1.268557	1.413871	169.249912	-73.616850	122.660086			
10676	9.629750	1.467270	-4.355754	1.442966	-1.050425	0.707381	169.903096	-73.744503	122.172521			
10677	9.165761	2.008908	-3.940516	1.907729	-0.578139	0.167329	170.659028	-73.853634	121.571110			
10678	8.467591	2.235546	-3.224575	2.003127	-0.011379	-0.697708	171.464267	-73.965509	120.842777			
10679	7.754365	2.035569	-2.931700	1.852241	0.008862	-1.479765	172.329259	-74.050991	119.968551			
10680	7.405095	1.630257	-3.030852	1.596860	-0.310055	-1.810624	173.282876	-74.086198	118.951346			
10681	7.335701	1.063348	-3.087655	1.136082	-0.581461	-1.885017	174.281024	-74.092528	117.860733			
10682	7.448938	0.499009	-3.014344	0.605518	-0.686600	-1.813702	175.296513	-74.075485	116.733667			
10683	7.686609	-0.152339	-2.946509	-0.019127	-0.793688	-1.617649	176.327110	-74.040451	115.583707			
10684	8.051929	-0.499830	-2.887105	-0.371855	-0.758180	-1.285935	177.381260	-74.019653	114.422626			
10685	8.200244	-0.471593	-2.661515	-0.405059	-0.490051	-1.201898	178.425711	-74.037257	113.281774			
10686	8.370913	-0.267530	-2.580226	-0.222944	-0.285605	-1.056552	179.421108	-74.086748	112.167556			
10687	8.346540	-0.005804	-2.839925	0.154344	-0.421053	-1.007648	-179.659494	-74.157178	111.091070			
10688	8.199603	0.113556	-3.008234	0.376637	-0.565286	-1.104397	-178.798908	-74.258461	110.052574			
10689	7.944012	0.343098	-2.881600	0.605473	-0.438874	-1.388357	-177.990290	-74.366976	109.054149			
10690	7.667270	0.338889	-2.723035	0.602334	-0.374376	-1.700119	-177.248336	-74.455928	108.097159			
10691	7.489809	0.200747	-2.439321	0.417546	-0.217011	-1.947172	-176.562406	-74.514349	107.183192			
10692	7.734640	-0.080350	-2.204191	0.078917	-0.039850	-1.770194	-175.932736	-74.531933	106.302398			
10693	8.218432	-0.350823	-2.029432	-0.247730	0.154352	-1.345157	-175.377590	-74.524731	105.462863			
10694	8.551805	-0.663454	-1.891446	-0.590933	0.268311	-1.053129	-174.905385	-74.505128	104.678075			
10695	8.793921	-0.956241	-1.909867	-0.858963	0.227621	-0.806836	-174.508845	-74.484892	103.970892			
10696	9.075559	-1.077731	-2.044308	-0.932397	0.150633	-0.495263	-174.153212	-74.464107	103.336273			
10697	9.148125	-1.142982	-2.114990	-0.961808	0.094217	-0.403447	-173.847540	-74.453969	102.793124			
10698	8.976288	-1.137565	-2.081595	-0.944813	0.088945	-0.576874	-173.583789	-74.453838	102.331987			
10699	8.639389	-1.207897	-1.988610	-1.010595	0.067202	-0.922986	-173.356485	-74.470988	101.941411			
10700	8.245114	-1.129104	-1.798774	-0.964180	0.164108	-1.354804	-173.175258	-74.486194	101.620274			
10701	7.891307	-1.027738	-1.579692	-0.910153	0.305632	-1.756472	-173.060115	-74.483560	101.366072			
10702	7.878601	-0.701701	-1.338061	-0.670302	0.629762	-1.843419	-173.017735	-74.444047	101.167664			
10703	8.129843	-0.269738	-1.243688	-0.300303	0.923734	-1.641372	-173.054340	-74.374316	101.022398			
10704	8.534217	0.122068	-1.286964	0.062938	1.121483	-1.254514	-173.183756	-74.284478	100.937515			
10705	8.914301	0.332260	-1.489266	0.298917	1.110839	-0.842194	-173.397655	-74.206361	100.909337			
10706	9.096822	0.121939	-1.913817	0.204330	0.715784	-0.545778	-173.690747	-74.145812	100.954405			
10707	9.263309	-0.148905	-2.179479	0.001645	0.442792	-0.305579	-173.981336	-74.100675	101.020929			
10708	9.411699	-0.409665	-2.178023	-0.268456	0.414886	-0.156214	-174.240297	-74.047640	101.067301			
10709	9.801018	-0.664155	-2.176567	-0.544268	0.458634	0.223842	-174.439246	-73.972819	101.046073			
10710	10.187686	-0.821942	-2.256634	-0.702444	0.458467	0.620591	-174.572445	-73.906980	100.949828			
10711	10.530889	-0.901879	-2.383176	-0.767943	0.423427	0.986549	-174.657941	-73.876445	100.811850			
10712	10.764115	-0.976545	-2.515700	-0.818328	0.349495	1.248811	-174.699308	-73.878295	100.638010			
10713	10.922238	-1.213314	-2.617196	-1.025572	0.233196	1.435021	-174.674212	-73.924839	100.416182			
10714	10.852559	-1.500207	-2.496852	-1.324614	0.239480	1.343071	-174.607460	-74.017601	100.189050			
10715	10.637490	-1.568363	-2.173499	-1.454690	0.444113	1.051319	-174.484439	-74.163178	99.945061			
10716	10.165245	-1.234328	-1.427196	-1.291295	1.073943	0.388871	-174.326746	-74.313366	99.684597			
10717	9.851134	-0.701108	-0.761996	-0.920654	1.726515	-0.102459	-174.184649	-74.436404	99.422854			
10718	9.783447	-0.304088	-0.378522	-0.619941	2.151678	-0.276571	-174.086074	-74.539743	99.189352			
10719	9.907465	-0.079330	-0.087755	-0.470422	2.497952	-0.236113	-174.028724	-74.634102	98.992457			
10720	10.299206	0.057014	-0.164740	-0.324572	2.552527	0.161443	-173.969864	-74.688675	98.792898			
10721	11.137705	-0.032476	-0.744702	-0.288891	2.205576	1.126055	-173.865641	-74.681984	98.533481			
10722	12.085114	-0.180332	-1.703092	-0.218587	1.530453	2.294870	-173.647405	-74.632009	98.167191			
10723	12.645217	0.008171	-2.421151	0.136733	1.066798	3.017229	-173.339058	-74.583093	97.686532			
10724	12.704417	-0.037204	-3.042832	0.261083	0.499951	3.238914	-173.058937	-74.567046	97.150004			
10725	12.380021	-0.082274	-3.628327	0.384895	-0.144913	3.081780	-172.807271	-74.597292	96.591579			
10726	11.763451	0.535765	-3.845227	1.071090	-0.375900	2.522751	-172.488930	-74.640992	95.991144			
10727	11.054858	0.238456	-4.375466	0.942168	-1.136064	1.987020	-172.017808	-74.651883	95.271501			
10728	10.814012	-1.958898	-5.781944	-0.848523	-3.010736	2.205066	-171.272038	-74.652132	94.342756			
10729	10.708927	-4.290119	-7.124304	-2.771271	-4.807934	2.558465	-170.072095	-74.663567	93.124875			
10730	10.626738	-4.628992	-7.282074	-2.979257	-5.049631	2.556951	-168.357137	-74.653530	91.587532			
10731	10.311256	-2.640347	-6.253685	-1.160227	-3.721248	1.900849	-166.358137	-74.582540	89.866450			
10732	8.931722	0.475848	-4.519295	1.566856	-1.744958	-0.069712	-164.544051	-74.472783	88.198802			
10733	6.888601	2.127410	-3.431066	2.958569	-0.889063	-2.450135	-163.305283	-74.385859	86.817557			
10734	5.450716	2.481371	-3.497128	3.320934	-1.267666	-3.857707	-162.692606	-74.320040	85.813662			
10735	5.321817	2.507635	-3.822358	3.416047	-1.624005	-3.903918	-162.644075	-74.251007	85.219112			
10736	6.576264	2.503451	-4.293313	3.520757	-1.752405	-2.568361	-163.113340	-74.145432	85.067428			
10737	8.548262	1.855934	-4.792302	2.994309	-1.829949	-0.476279	-163.974465	-74.042231	85.288396			
10738	10.485676	0.843009	-5.243855	2.070190	-1.920439	1.597126	-165.021222	-73.980089	85.748717			
10739	11.643347	-0.491274	-5.436249	0.743827	-2.027129	2.864009	-166.037618	-74.035247	86.280997			
10740	11.176589	-2.224050	-4.731332	-1.169008	-1.803219	2.337595	-166.965975	-74.243611	86.799906			
10741	9.968520	-3.783254	-3.848286	-2.937960	-1.579252	1.020948	-167.854398	-74.518501	87.328339			
10742	8.934848	-4.786630	-3.303642	-4.081566	-1.523313	-0.082453	-168.668236	-74.776793	87.873349			
10743	7.976528	-4.702299	-2.668074	-4.147251	-1.178888	-1.194937	-169.341166	-74.963428	88.419143			
10744	7.536581	-3.702942	-2.283710	-3.249636	-0.792772	-1.779103	-169.896712	-75.075985	88.970385			
10745	7.549301	-2.300075	-2.175963	-1.900549	-0.484821	-1.864735	-170.416368	-75.100238	89.554765			
10746	7.949584	-0.728828	-2.548057	-0.307799	-0.496972	-1.453386	-170.949274	-75.069158	90.179936			
10747	7.974041	0.497357	-2.883297	0.936185	-0.613974	-1.392910	-171.536083	-75.021175	90.858868			
10748	8.058268	1.320761	-3.143492	1.766948	-0.701712	-1.271782	-172.232834	-74.972540	91.624542			
10749	7.923971	1.577022	-3.290165	2.016854	-0.826580	-1.365766	-173.027299	-74.923002	92.465117			
10750	7.616959	1.470358	-3.240807	1.876247	-0.868542	-1.663571	-173.906081	-74.878183	93.374014			
10751	7.635508	1.198300	-3.158699	1.562181	-0.823044	-1.652027	-174.782944	-74.831280	94.278447			
10752	7.690922	0.708635	-3.043930	1.027627	-0.772927	-1.611197	-175.626545	-74.784919	95.149834			
10753	7.861889	0.207992	-2.914874	0.477910	-0.683567	-1.466831	-176.433447	-74.753743	95.985559			
10754	7.786586	-0.201970	-2.820734	0.030559	-0.680239	-1.556506	-177.216625	-74.737923	96.806050			
10755	7.788630	-0.552982	-2.804734	-0.346053	-0.723552	-1.554858	-177.941256	-74.718049	97.587855			
10756	7.825326	-0.675364	-2.716589	-0.508137	-0.650598	-1.542852	-178.614433	-74.681788	98.345082			
10757	8.053580	-0.562108	-2.683294	-0.434960	-0.537307	-1.333404	-179.218770	-74.612905	99.064139			
10758	8.409851	-0.212020	-2.599475	-0.141867	-0.295767	-1.013815	-179.733252	-74.508113	99.728565			
10759	8.878837	0.190775	-2.562309	0.205397	-0.052447	-0.571985	179.839257	-74.380516	100.329577			
10760	9.321136	0.468979	-2.588196	0.441744	0.109223	-0.138229	179.511738	-74.242180	100.851129			
10761	9.644173	0.637469	-2.582738	0.572167	0.251576	0.172114	179.264545	-74.125485	101.302144			
10762	9.869445	0.719385	-2.556927	0.621155	0.368724	0.382386	179.072873	-74.046057	101.707138			
10763	9.738470	0.807116	-2.431091	0.680488	0.478929	0.222600	178.926753	-74.017321	102.074956			
10764	9.432849	0.870508	-2.214191	0.712050	0.616785	-0.130145	178.810326	-74.026347	102.407009			
10765	9.039709	0.939456	-2.013828	0.759349	0.711810	-0.562220	178.722606	-74.059637	102.698793			
10766	8.683176	0.838048	-1.788503	0.634453	0.804570	-0.966855	178.669571	-74.102450	102.938269			
10767	8.471816	0.624425	-1.720624	0.422873	0.763790	-1.189467	178.664551	-74.146895	103.130754			
10768	8.378821	0.321976	-1.498479	0.088721	0.882150	-1.341106	178.729120	-74.175014	103.269446			
10769	8.401822	0.077475	-1.378589	-0.173835	0.947929	-1.352880	178.899728	-74.187377	103.334970			
10770	8.597515	-0.081564	-1.226612	-0.367586	1.108992	-1.206672	179.181165	-74.189142	103.314963			
10771	8.683812	0.091671	-1.338168	-0.172281	1.066447	-1.092556	179.560741	-74.187513	103.210522			
10772	8.693112	0.570289	-1.578938	0.356973	0.954093	-1.017761	179.994440	-74.177439	103.020970			
10773	8.524611	0.993782	-2.183768	0.925077	0.446777	-1.016664	-179.591127	-74.146038	102.787108			
10774	8.483368	1.013643	-2.792158	1.094615	-0.115043	-0.891942	-179.215823	-74.072226	102.561757			
10775	8.678500	1.000567	-3.153254	1.164519	-0.383190	-0.606304	-178.821338	-73.965713	102.344034			
10776	8.970695	1.048428	-3.102129	1.197380	-0.220511	-0.340974	-178.397331	-73.855522	102.124180			
10777	9.317176	1.146973	-2.867103	1.234432	0.140241	-0.076053	-178.000801	-73.767139	101.922949			
10778	9.768436	1.237619	-2.698740	1.270025	0.462460	0.307113	-177.702731	-73.700957	101.786219			
10779	10.270492	1.281663	-2.407725	1.223492	0.894403	0.705197	-177.552966	-73.681636	101.760715			
10780	10.742811	1.294232	-1.929683	1.096505	1.472456	1.024113	-177.588409	-73.725361	101.878757			
10781	10.973368	1.103708	-1.493818	0.788966	1.879262	1.128534	-177.805107	-73.839588	102.151131			
10782	11.000461	0.751980	-1.137595	0.349829	2.102407	1.065140	-178.160248	-74.010764	102.559923			
10783	10.869338	0.487544	-0.711068	-0.016209	2.359473	0.832418	-178.600437	-74.220220	103.069344			
10784	10.746962	0.425564	-0.517576	-0.132958	2.446394	0.672703	-179.106585	-74.457778	103.649739			
10785	10.300624	0.291362	-0.525843	-0.251955	2.240948	0.256012	-179.698550	-74.693368	104.312568			
10786	10.099899	0.178275	-0.913488	-0.276184	1.757942	0.172672	179.673384	-74.858604	105.034702			
10787	10.369557	0.052127	-1.590299	-0.277472	1.134214	0.613048	179.037709	-74.919722	105.822739			
10788	10.869424	0.085724	-2.110439	-0.184870	0.773707	1.231441	178.426407	-74.858840	106.667363			
10789	11.550575	0.336317	-2.716111	0.118780	0.457120	2.048295	177.856506	-74.701694	107.537276			
10790	12.081152	0.819488	-2.726430	0.498588	0.736598	2.567449	177.233094	-74.512867	108.458748			
10791	12.208055	1.190055	-2.431576	0.711701	1.171474	2.616559	176.434655	-74.326885	109.470002			
10792	11.647617	1.566352	-2.953515	1.192677	0.673864	2.227521	175.380944	-74.116260	110.605913			
10793	11.160693	2.767080	-4.702647	2.769331	-0.712074	2.276799	174.091586	-73.853077	111.840221			
10794	11.248698	4.304786	-6.997073	4.727688	-2.368599	3.073769	172.549116	-73.578246	113.160117			
10795	11.648799	4.275717	-7.936189	4.760826	-3.151652	3.765197	170.760094	-73.359606	114.577690			
10796	11.150553	2.551827	-7.345865	2.872252	-3.232535	3.075581	168.926468	-73.211198	115.995169			
10797	10.036456	0.114058	-6.262728	0.282603	-3.186500	1.577246	167.361698	-73.045267	117.246891			
10798	9.100185	-1.868941	-5.916509	-1.674046	-3.627666	0.451257	166.262013	-72.861717	118.206403			
10799	7.841558	-2.910906	-5.789685	-2.580929	-4.104424	-0.869740	165.677029	-72.744589	118.845802			
10800	6.840319	-3.718129	-5.215695	-3.355343	-4.045399	-2.054187	165.596740	-72.691632	119.143972			
10801	6.850936	-4.101111	-4.563403	-3.857782	-3.547676	-2.255538	165.955846	-72.671552	119.097678			
10802	7.660194	-3.902208	-4.237647	-3.825661	-2.989407	-1.548848	166.662675	-72.657638	118.749378			
10803	8.786428	-3.167716	-4.148174	-3.257577	-2.411710	-0.431073	167.547716	-72.648563	118.239232			
10804	9.697322	-1.986664	-4.149392	-2.202057	-1.838875	0.530018	168.403458	-72.689010	117.738712			
10805	9.900474	-0.604994	-4.312043	-0.813671	-1.540264	0.861787	169.129766	-72.798153	117.317974			
10806	9.570778	0.951035	-4.490922	0.813695	-1.341573	0.685433	169.753242	-72.924353	116.967847			
10807	9.604157	2.177413	-4.448333	2.011604	-0.934620	0.763154	170.285663	-73.065181	116.673581			
10808	9.357448	3.068715	-3.989790	2.805992	-0.318519	0.430462	170.701455	-73.240946	116.431412			
10809	8.868876	3.211789	-3.464988	2.889843	0.065468	-0.188596	170.968325	-73.423947	116.246361			
10810	8.682019	2.437975	-3.337573	2.162386	-0.117140	-0.444076	171.132098	-73.573064	116.089389			
10811	8.685236	1.412649	-3.331417	1.199783	-0.438281	-0.490905	171.253914	-73.706892	115.946444			
10812	8.472883	0.119814	-3.155160	-0.040325	-0.735775	-0.800690	171.404490	-73.838850	115.772273			
10813	8.308485	-0.912919	-2.906006	-1.057804	-0.872976	-1.070368	171.636099	-73.969875	115.534112			
10814	8.201514	-1.760806	-2.753354	-1.876983	-1.025956	-1.247027	171.961282	-74.093512	115.229921			
10815	8.135120	-2.141131	-2.661668	-2.234922	-1.084026	-1.346340	172.384447	-74.223390	114.871773			
10816	8.047808	-2.053997	-2.722758	-2.098451	-1.146768	-1.405496	172.911706	-74.346421	114.443510			
10817	7.959384	-1.642103	-2.841329	-1.633156	-1.163026	-1.440022	173.512172	-74.462893	113.976002			
10818	7.725163	-1.004098	-2.996703	-0.925438	-1.175651	-1.601237	174.161241	-74.559774	113.458898			
10819	7.581156	-0.257565	-3.136859	-0.128978	-1.112829	-1.680956	174.835534	-74.618488	112.961684			
10820	7.404602	0.292072	-3.048500	0.414000	-0.900249	-1.861280	175.520630	-74.642888	112.428846			
10821	7.463569	0.789718	-2.650421	0.789481	-0.355888	-1.900466	176.226277	-74.640275	111.882857			
10822	7.707924	0.994018	-2.320548	0.884458	0.084540	-1.750700	176.920471	-74.601412	111.287295			
10823	7.896308	1.067071	-2.194826	0.919327	0.285980	-1.604120	177.589052	-74.545275	110.694027			
10824	8.187772	0.964802	-2.136560	0.796833	0.398512	-1.342651	178.200410	-74.458146	110.074737			
10825	8.565951	0.718411	-2.247358	0.578590	0.336707	-0.953001	178.748760	-74.342706	109.481153			
10826	8.829817	0.528665	-2.315416	0.410272	0.306438	-0.683393	179.245027	-74.218547	108.861736			
10827	8.919635	0.190189	-2.347442	0.103710	0.218662	-0.590544	179.668050	-74.104707	108.298777			
10828	9.029695	0.093890	-2.340135	0.012313	0.246139	-0.487471	-179.968071	-74.004747	107.750113			
10829	9.066512	-0.031525	-2.251782	-0.125220	0.316191	-0.476871	-179.665234	-73.933944	107.272431			
10830	8.865607	-0.061841	-2.165074	-0.153038	0.346715	-0.694206	-179.430338	-73.886541	106.830708			
10831	8.669092	-0.187630	-1.935326	-0.315283	0.476384	-0.946601	-179.264662	-73.858753	106.471998			
10832	8.606518	-0.315002	-1.701484	-0.492085	0.643607	-1.071403	-179.164425	-73.837381	106.155020			
10833	8.651641	-0.422155	-1.464650	-0.659938	0.846725	-1.093637	-179.133287	-73.829550	105.918935			
10834	8.901221	-0.424724	-1.251936	-0.737054	1.112134	-0.913284	-179.175670	-73.826509	105.719405			
10835	9.128148	-0.455095	-1.278321	-0.774438	1.141668	-0.687933	-179.273360	-73.834427	105.580761			
10836	9.269517	-0.424620	-1.384311	-0.726987	1.091072	-0.522821	-179.418847	-73.844986	105.457761			
10837	9.265266	-0.480503	-1.704512	-0.697744	0.778416	-0.437795	-179.587731	-73.853482	105.376721			
10838	9.260750	-0.401848	-2.033003	-0.540372	0.495776	-0.351278	-179.756534	-73.846376	105.277770			
10839	9.424720	-0.284731	-2.278997	-0.382834	0.345602	-0.125880	-179.934114	-73.823544	105.194046			
10840	9.640066	-0.341792	-2.521855	-0.400937	0.167966	0.148160	179.870765	-73.788797	105.099513			
10841	10.111546	-0.499752	-2.595721	-0.579249	0.190896	0.620860	179.686708	-73.758140	105.022634			
10842	10.468043	-0.714607	-2.564135	-0.828464	0.266890	0.953360	179.554253	-73.747195	104.900801			
10843	10.712971	-0.932227	-2.481560	-1.079557	0.356842	1.164660	179.512573	-73.767634	104.736198			
10844	10.907081	-1.059111	-2.330989	-1.248059	0.516938	1.309127	179.579012	-73.810513	104.466261			
10845	10.770907	-1.152775	-2.080065	-1.377409	0.685454	1.109807	179.727769	-73.888725	104.143140			
10846	10.511309	-1.134098	-1.679921	-1.417875	0.983602	0.752257	179.929307	-73.996584	103.757389			
10847	10.427761	-1.098104	-1.359456	-1.431321	1.254144	0.587819	-179.849092	-74.131145	103.376096			
10848	10.406602	-0.965113	-1.078258	-1.343052	1.525719	0.495551	-179.618175	-74.269032	102.976273			
10849	10.609631	-0.424160	-0.843181	-0.859522	1.906388	0.631544	-179.369536	-74.398827	102.571296			
10850	11.078959	-0.226927	-0.908781	-0.656660	1.994149	1.105774	-179.137032	-74.535023	102.134004			
10851	11.472279	0.172015	-1.167361	-0.208016	1.920536	1.557170	-178.867734	-74.682269	101.652855			
10852	11.639833	0.475555	-1.658624	0.213652	1.546442	1.850316	-178.499666	-74.798218	101.034700			
10853	11.894394	0.363295	-2.382266	0.274454	0.889148	2.287633	-178.066065	-74.877845	100.327274			
10854	12.056912	-0.085696	-2.930492	-0.028690	0.305671	2.591743	-177.623379	-74.961801	99.586441			
10855	11.811477	-0.625993	-3.243315	-0.455786	-0.180686	2.442168	-177.199855	-75.083828	98.916198			
10856	11.435825	-1.374366	-3.672420	-1.063322	-0.850911	2.199759	-176.744218	-75.200276	98.271367			
10857	11.461100	-2.626716	-4.779506	-2.046290	-2.149826	2.527936	-176.081724	-75.242024	97.536783			
10858	12.009101	-3.853557	-5.936038	-2.995593	-3.340270	3.384798	-175.044785	-75.200678	96.564945			
10859	12.261507	-4.082650	-6.286266	-3.080461	-3.641431	3.743848	-173.609762	-75.167193	95.326914			
10860	11.271870	-3.315928	-5.617369	-2.343372	-3.104836	2.616030	-172.009925	-75.183811	93.956257			
10861	9.772286	-1.588476	-4.664247	-0.733840	-2.239996	0.874662	-170.540678	-75.208176	92.692964			
10862	8.192369	0.299116	-3.799355	1.011368	-1.437321	-0.949813	-169.402576	-75.195997	91.656972			
10863	6.726836	1.665586	-3.275430	2.281698	-1.030850	-2.568097	-168.675586	-75.156756	90.906111			
10864	5.607449	2.427932	-3.119051	3.011605	-1.013676	-3.732432	-168.383825	-75.093840	90.419933			
10865	4.915142	2.519324	-3.222852	3.121050	-1.279859	-4.380066	-168.493312	-75.041017	90.190558			
10866	4.966190	1.966415	-3.655431	2.649727	-1.798977	-4.188227	-168.910007	-74.993125	90.153331			
10867	5.917593	1.186056	-4.099731	1.940663	-2.132521	-3.110561	-169.550509	-74.942974	90.347486			
10868	7.366524	0.452004	-4.499401	1.251970	-2.274103	-1.567965	-170.334088	-74.905521	90.725430			
10869	8.507287	-0.306540	-4.628723	0.480976	-2.234629	-0.396324	-171.117458	-74.896302	91.191534			
10870	9.030080	-1.160736	-4.665542	-0.398920	-2.279423	0.152347	-171.777483	-74.908293	91.590381			
10871	9.181880	-2.037094	-4.656208	-1.299188	-2.377316	0.326215	-172.257641	-74.931417	91.883067			
10872	9.257965	-2.483164	-4.296853	-1.823899	-2.091194	0.318415	-172.589612	-74.986245	92.077544			
10873	9.042419	-2.671811	-3.903963	-2.087217	-1.813439	0.010743	-172.809049	-75.076996	92.233748			
10874	8.893025	-2.452134	-3.513069	-1.941178	-1.458094	-0.244706	-172.965355	-75.162704	92.381406			
10875	8.975369	-2.076816	-3.410296	-1.592692	-1.294668	-0.206040	-173.077639	-75.244764	92.558579			
10876	9.082206	-1.527195	-3.325308	-1.067604	-1.112418	-0.143189	-173.171462	-75.309729	92.770617			
10877	9.229870	-0.886703	-3.209404	-0.457886	-0.873391	-0.050284	-173.272860	-75.373129	93.052378			
10878	9.242169	-0.333267	-3.094678	0.065944	-0.680167	-0.084440	-173.417334	-75.432704	93.389815			
10879	9.166859	0.090986	-3.124904	0.486114	-0.664646	-0.162478	-173.608081	-75.481050	93.791360			
10880	8.909318	0.500178	-3.082321	0.879233	-0.622427	-0.433649	-173.864957	-75.514140	94.242141			
10881	8.672870	0.857826	-2.978761	1.208051	-0.521117	-0.696954	-174.178082	-75.534508	94.752032			
10882	8.446730	1.031241	-2.897778	1.356688	-0.467584	-0.938648	-174.562471	-75.534457	95.297617			
10883	8.279304	0.946824	-2.912898	1.266511	-0.534468	-1.092676	-174.975993	-75.507380	95.872545			
10884	8.248844	0.806344	-2.908684	1.113494	-0.555958	-1.117569	-175.402629	-75.450696	96.447242			
10885	8.274305	0.718151	-2.698835	0.971480	-0.355391	-1.141270	-175.795384	-75.370773	97.009724			
10886	8.372145	0.710570	-2.581290	0.923293	-0.205193	-1.073914	-176.161545	-75.262344	97.544665			
10887	8.454886	0.663126	-2.502204	0.843192	-0.099333	-1.011269	-176.498838	-75.127143	98.049013			
10888	8.575806	0.484947	-2.586099	0.664675	-0.160441	-0.868419	-176.832341	-74.972621	98.555095			
10889	8.767304	0.254381	-2.622829	0.422443	-0.168041	-0.669231	-177.148189	-74.809623	99.059773			
10890	8.948268	0.115310	-2.693318	0.276540	-0.190714	-0.473210	-177.453202	-74.644374	99.572982			
10891	9.073606	-0.035795	-2.705953	0.109468	-0.177422	-0.346417	-177.745793	-74.493823	100.091021			
10892	9.353491	-0.172068	-2.729164	-0.047726	-0.132810	-0.068675	-178.006638	-74.358052	100.603650			
10893	9.398123	-0.162834	-2.626330	-0.076401	-0.004986	-0.053438	-178.206920	-74.257142	101.088329			
10894	9.367047	-0.115724	-2.388167	-0.091092	0.233060	-0.148543	-178.336036	-74.187668	101.534623			
10895	9.331561	-0.024102	-2.162172	-0.057537	0.463004	-0.245247	-178.384288	-74.155723	101.926759			
10896	9.109225	0.141502	-1.943099	0.062109	0.649642	-0.520339	-178.352889	-74.157547	102.253382			
10897	8.867515	0.232593	-1.765128	0.121827	0.771820	-0.802024	-178.265077	-74.184863	102.527078			
10898	8.606256	0.248710	-1.629047	0.121530	0.830205	-1.090343	-178.110173	-74.223244	102.735850			
10899	8.454297	0.229773	-1.610043	0.111514	0.799542	-1.241313	-177.882299	-74.260854	102.873629			
10900	8.473229	0.114054	-1.618921	0.007463	0.764976	-1.219419	-177.575555	-74.284621	102.940256			
10901	8.722367	-0.057839	-1.641174	-0.157904	0.764324	-0.971457	-177.184446	-74.302190	102.939284			
10902	8.928981	0.084012	-1.598699	-0.031754	0.897400	-0.785881	-176.693964	-74.320095	102.846525			
10903	9.116313	0.300905	-1.677203	0.203415	0.936167	-0.588106	-176.139856	-74.344435	102.671985			
10904	9.158707	0.574910	-1.991814	0.571031	0.738261	-0.468780	-175.547855	-74.370966	102.424624			
10905	9.196414	0.756499	-2.378745	0.875054	0.449211	-0.334439	-174.967018	-74.395064	102.151298			
10906	9.274434	0.899024	-2.796626	1.151639	0.134805	-0.153496	-174.393975	-74.406325	101.869476			
10907	9.522324	1.054054	-3.060952	1.388851	0.012022	0.148537	-173.841084	-74.424217	101.602565			
10908	9.641454	0.999825	-3.095479	1.366198	0.002569	0.270602	-173.333721	-74.455891	101.369439			
10909	9.771600	0.786828	-3.011506	1.154477	0.050586	0.377358	-172.902029	-74.512555	101.195125			
10910	9.819143	0.634127	-2.676647	0.923744	0.317848	0.337572	-172.558993	-74.594679	101.096432			
10911	9.770497	0.651563	-2.205675	0.811147	0.729675	0.165375	-172.311595	-74.708949	101.071344			
10912	9.887587	0.697942	-1.843450	0.745404	1.087745	0.182859	-172.152845	-74.853782	101.109855			
10913	10.094288	0.745869	-1.510900	0.681086	1.434316	0.297336	-172.091692	-75.035476	101.221931			
10914	10.077142	0.376076	-1.134999	0.213216	1.622465	0.202326	-172.163744	-75.227662	101.454154			
10915	10.301822	-0.109989	-1.059245	-0.285489	1.555773	0.422527	-172.330419	-75.405938	101.803645			
10916	10.683830	-0.635989	-1.320472	-0.723822	1.203802	0.879327	-172.573223	-75.577600	102.263134			
10917	10.681777	-1.117189	-1.712222	-1.057424	0.649054	0.991971	-172.866147	-75.735470	102.839617			
10918	10.949122	-1.215862	-2.295462	-0.982014	0.118658	1.396783	-173.229347	-75.807547	103.554542			
10919	11.780608	-0.871362	-2.637904	-0.609457	0.107969	2.275215	-173.696545	-75.799384	104.398915			
10920	12.476757	-0.084463	-2.782796	0.104481	0.411216	2.963870	-174.314914	-75.785917	105.383892			
10921	12.257413	1.120760	-3.121759	1.322225	0.477026	2.807520	-175.159576	-75.791013	106.537591			
10922	11.800991	1.998111	-4.301456	2.539338	-0.377194	2.643940	-176.257426	-75.736786	107.844374			
10923	12.029902	2.255682	-5.905136	3.266632	-1.663346	3.273146	-177.652792	-75.582114	109.330531			
10924	12.219987	2.109484	-6.501004	3.240715	-2.196451	3.630290	-179.181927	-75.425160	110.883727			
10925	11.249598	1.576366	-5.655716	2.441784	-1.862246	2.499691	179.322078	-75.330649	112.383312			
10926	9.986517	0.584268	-4.821936	1.270673	-1.781643	1.074633	177.993834	-75.215624	113.744642			
10927	9.039557	-0.296088	-4.905017	0.522547	-2.403366	0.177859	176.911244	-75.059699	114.907848			
10928	8.052759	-1.407578	-5.231165	-0.324728	-3.333774	-0.703696	176.160153	-74.891116	115.804203			
10929	7.107697	-2.571138	-5.452464	-1.232323	-4.180971	-1.574949	175.817429	-74.713782	116.402532			
10930	6.528213	-3.491725	-5.272573	-2.070377	-4.495566	-2.189494	175.974106	-74.517312	116.644490			
10931	6.383373	-4.014782	-4.912339	-2.631904	-4.401642	-2.417055	176.612510	-74.325215	116.540697			
10932	6.626532	-3.869660	-4.512619	-2.623968	-3.921571	-2.263872	177.607620	-74.143387	116.165828			
10933	7.461251	-3.033028	-4.196995	-2.019522	-3.084719	-1.512692	178.768298	-73.979690	115.633362			
10934	8.559766	-1.802581	-4.208808	-0.965179	-2.284763	-0.427548	179.930109	-73.842278	115.040089			
10935	9.281731	-0.649287	-4.407380	0.134153	-1.754846	0.331239	-178.972489	-73.778212	114.423381			
10936	9.632149	0.621072	-4.535907	1.348821	-1.199831	0.698224	-178.012258	-73.768306	113.845474			
10937	9.495668	1.462923	-4.670203	2.225460	-0.959527	0.591403	-177.234251	-73.791698	113.340266			
10938	8.981730	1.927733	-4.462046	2.646640	-0.691757	0.026732	-176.695421	-73.829041	112.971440			
10939	8.363576	1.652494	-4.011788	2.295799	-0.577864	-0.692932	-176.400418	-73.864312	112.738033			
10940	7.687688	0.852636	-3.808285	1.573401	-0.927706	-1.386873	-176.272381	-73.871026	112.597597			
10941	7.181006	0.088242	-3.577650	0.844764	-1.194800	-1.923896	-176.223334	-73.844356	112.481777			
10942	6.968069	-0.666501	-3.660373	0.221593	-1.644944	-2.089891	-176.160562	-73.748892	112.308078			
10943	7.433149	-1.180850	-3.926241	-0.184508	-1.960546	-1.555349	-176.035292	-73.583447	112.041097			
10944	8.067843	-1.699159	-4.351619	-0.547736	-2.356203	-0.809244	-175.820288	-73.373316	111.680196			
10945	8.549108	-1.940815	-4.671682	-0.688924	-2.569923	-0.241932	-175.492453	-73.150552	111.233867			
10946	8.790284	-1.937244	-4.714248	-0.694441	-2.496970	0.012223	-175.064036	-72.935033	110.724823			
10947	8.813295	-1.890858	-4.652731	-0.674890	-2.376890	0.025616	-174.591627	-72.749460	110.217989			
10948	8.580111	-1.760047	-4.460361	-0.602941	-2.183351	-0.248158	-174.126862	-72.579765	109.757063			
10949	8.292603	-1.492027	-4.174733	-0.439955	-1.871351	-0.608005	-173.705762	-72.415110	109.360754			
10950	8.012844	-1.205462	-4.001892	-0.216069	-1.648060	-0.929497	-173.329552	-72.235077	109.020018			
10951	7.842219	-0.841067	-3.842466	0.069244	-1.372237	-1.147561	-173.027581	-72.035034	108.747614			
10952	7.947018	-0.589600	-3.770792	0.257830	-1.137206	-1.074166	-172.777155	-71.803866	108.517039			
10953	8.202704	-0.374392	-3.719572	0.404116	-0.887254	-0.851154	-172.565301	-71.556672	108.299333			
10954	8.516092	-0.178034	-3.720344	0.547253	-0.669015	-0.557998	-172.375119	-71.304739	108.065041			
10955	8.934099	-0.087485	-3.829023	0.628153	-0.555535	-0.128480	-172.224136	-71.069456	107.817436			
10956	9.393478	-0.024836	-3.903527	0.665067	-0.412482	0.329452	-172.082235	-70.858802	107.524361			
10957	9.556815	-0.012928	-3.908917	0.658440	-0.328869	0.486378	-171.947072	-70.692749	107.191816			
10958	9.665743	-0.035019	-3.850941	0.602654	-0.228677	0.572015	-171.811684	-70.562295	106.813206			
10959	9.578829	-0.130021	-3.791267	0.500866	-0.225611	0.475305	-171.686901	-70.462308	106.400723			
10960	9.386987	-0.370508	-3.694954	0.261429	-0.287233	0.274662	-171.585461	-70.371922	105.965071			
10961	9.226605	-0.634397	-3.697902	0.035096	-0.433287	0.138101	-171.507200	-70.287292	105.519618			
10962	9.054793	-0.874168	-3.615904	-0.204032	-0.497654	-0.038288	-171.432025	-70.194508	105.052563			
10963	8.951135	-1.141099	-3.556895	-0.466265	-0.566737	-0.141193	-171.348027	-70.098428	104.567035			
10964	8.957087	-1.283810	-3.520479	-0.615111	-0.566230	-0.139408	-171.238205	-69.990487	104.047470			
10965	9.055858	-1.321975	-3.481768	-0.674771	-0.490389	-0.056508	-171.113826	-69.881287	103.496409			
10966	9.133121	-1.230923	-3.456617	-0.606399	-0.383148	0.003763	-170.981204	-69.763985	102.915580			
10967	9.154052	-1.106445	-3.552788	-0.457579	-0.387883	0.050543	-170.841198	-69.636925	102.299896			
10968	9.233447	-0.838883	-3.613256	-0.192245	-0.290918	0.131871	-170.702161	-69.497721	101.652879			
10969	9.163291	-0.582348	-3.642338	0.063454	-0.226011	0.062357	-170.579518	-69.362250	100.984542			
10970	9.048633	-0.297991	-3.655346	0.342590	-0.159158	-0.056387	-170.490887	-69.232430	100.309099			
10971	8.970938	-0.075118	-3.799533	0.602984	-0.223374	-0.091251	-170.447333	-69.113454	99.644789			
10972	8.862613	0.093436	-3.883003	0.790473	-0.269884	-0.172425	-170.458001	-69.006750	99.004813			
10973	8.780091	0.139356	-3.837350	0.817183	-0.238692	-0.267537	-170.517621	-68.922680	98.389307			
10974	8.664121	-0.072495	-3.810448	0.603077	-0.315194	-0.371888	-170.628939	-68.853884	97.804738			
10975	8.565822	-0.238307	-3.757924	0.421145	-0.348216	-0.471732	-170.779981	-68.799130	97.243527			
10976	8.483900	-0.480217	-3.769070	0.179530	-0.450126	-0.529467	-170.974160	-68.752863	96.708091			
10977	8.401389	-0.542967	-3.811977	0.114581	-0.532218	-0.587022	-171.207705	-68.725288	96.201882			
10978	8.361807	-0.484581	-3.844042	0.158165	-0.560537	-0.615294	-171.494679	-68.709760	95.728770			
10979	8.427198	-0.462795	-3.879834	0.158803	-0.568280	-0.542482	-171.870390	-68.724769	95.311211			
10980	8.258791	-0.497657	-3.932809	0.109006	-0.693650	-0.678733	-172.365513	-68.770425	94.968301			
10981	8.138746	-0.729613	-3.922259	-0.157160	-0.786624	-0.784288	-172.966555	-68.828023	94.697347			
10982	8.293727	-0.590775	-4.013363	-0.055152	-0.796556	-0.614630	-173.640639	-68.877030	94.478497			
10983	8.492005	-0.011587	-4.061167	0.464292	-0.678628	-0.435536	-174.416604	-68.918766	94.292020			
10984	8.652594	0.266450	-4.246291	0.703325	-0.765517	-0.226851	-175.324889	-68.961728	94.151183			
10985	8.796716	0.280444	-4.490072	0.677854	-0.959670	-0.002456	-176.300031	-68.996218	94.033007			
10986	8.906595	0.082195	-4.790461	0.439580	-1.241367	0.214672	-177.224241	-69.003175	93.897253			
10987	8.960271	-0.158140	-5.259264	0.173583	-1.693794	0.437765	-178.001288	-69.004274	93.688868			
10988	8.986798	-0.322740	-5.630439	-0.029164	-2.049740	0.597205	-178.598137	-69.013804	93.379677			
10989	8.836996	-0.541791	-5.815139	-0.294801	-2.295606	0.523891	-179.038249	-69.033654	92.977565			
10990	8.609671	-0.750007	-5.887644	-0.549869	-2.455685	0.337205	-179.347039	-69.035454	92.514901			
10991	8.600302	-0.726270	-5.750136	-0.579009	-2.319567	0.278940	-179.529520	-68.990515	91.991202			
10992	8.693359	-0.498148	-5.303635	-0.404064	-1.842210	0.206998	-179.619128	-68.897186	91.415752			
10993	8.816184	-0.265744	-4.905134	-0.208385	-1.398664	0.180126	-179.673346	-68.791275	90.796099			
10994	8.706121	0.129455	-4.529152	0.161649	-1.060636	-0.056900	-179.736452	-68.672528	90.154169			
10995	8.597717	0.612048	-4.357700	0.625172	-0.921305	-0.218668	-179.850165	-68.542196	89.510587			
10996	8.472607	1.025922	-4.320385	1.016909	-0.922574	-0.346008	179.949131	-68.393281	88.887696			
10997	8.338010	1.287626	-4.351752	1.248457	-0.999056	-0.455268	179.655183	-68.248078	88.290335			
10998	8.325834	1.212013	-4.472565	1.132372	-1.107377	-0.416751	179.273459	-68.107905	87.726174			
10999	8.447717	1.046559	-4.709316	0.913905	-1.266915	-0.210793	178.849320	-67.984577	87.174619			
11000	8.575580	0.736738	-5.049000	0.535312	-1.503164	0.037666	178.410915	-67.879034	86.622893			
11001	8.637399	0.490156	-5.255125	0.219694	-1.638734	0.173667	177.958370	-67.805529	86.080615			
11002	8.696915	0.456643	-5.145630	0.143261	-1.502176	0.189565	177.507461	-67.756526	85.530524			
11003	8.770073	0.590245	-5.049069	0.235763	-1.396630	0.224706	177.070915	-67.733983	84.948059			
11004	8.699521	0.737177	-5.061132	0.323282	-1.454093	0.168345	176.618444	-67.732669	84.350400			
11005	8.659254	0.984859	-5.055189	0.511511	-1.506749	0.135949	176.174658	-67.736799	83.725341			
11006	8.640805	1.305169	-4.995522	0.779930	-1.522887	0.106711	175.739840	-67.740115	83.082086			
11007	8.670365	1.623448	-4.892424	1.056778	-1.494401	0.106804	175.310802	-67.765923	82.424605			
11008	8.715445	1.891854	-4.813087	1.281612	-1.483996	0.130089	174.886031	-67.800662	81.756885			
11009	8.636025	1.967209	-4.835396	1.288964	-1.578069	0.070623	174.464701	-67.849652	81.078129			
11010	8.608116	1.781292	-4.906896	1.031882	-1.633108	0.067501	174.055957	-67.899498	80.375576			
11011	8.572619	1.464761	-4.915323	0.666088	-1.591703	0.026940	173.703658	-67.947460	79.621461			
11012	8.459285	1.111013	-4.874597	0.279078	-1.511170	-0.107337	173.405488	-67.989750	78.825621			
11013	8.549853	0.862997	-4.747534	0.042409	-1.299403	-0.081632	173.188980	-68.031940	77.957733			
11014	8.616233	0.713611	-4.544073	-0.066434	-1.053761	-0.102775	173.033384	-68.072228	77.028874			
11015	8.701269	0.661764	-4.391720	-0.086360	-0.877803	-0.083393	172.936778	-68.125340	76.032309			
11016	8.828838	0.689179	-4.300031	-0.041430	-0.769003	0.001613	172.861679	-68.190340	74.999949			
11017	8.881934	0.816023	-4.223249	0.087307	-0.743279	0.027553	172.816987	-68.278745	73.926015			
11018	8.842285	1.028952	-4.091270	0.307141	-0.746291	-0.048884	172.780105	-68.386502	72.829599			
11019	8.813163	1.143268	-4.066211	0.395139	-0.807101	-0.081021	172.753387	-68.509887	71.710321			
11020	8.773368	1.178205	-4.024966	0.414563	-0.828781	-0.132726	172.733162	-68.638190	70.580163			
11021	8.740688	1.072893	-3.946830	0.325592	-0.756673	-0.197620	172.722922	-68.767897	69.442978			
11022	8.708581	0.994984	-3.805530	0.292479	-0.641434	-0.283031	172.699915	-68.895738	68.320609			
11023	8.638214	0.850876	-3.701933	0.182974	-0.536142	-0.393238	172.659802	-69.024576	67.215780			
11024	8.628511	0.653138	-3.543406	0.065719	-0.333139	-0.468269	172.574412	-69.137389	66.158085			
11025	8.574543	0.551830	-3.566076	-0.059132	-0.331502	-0.515873	172.463828	-69.246079	65.137238			
