// General information: 
//  MT Manager version: 2022.0.0 
//  XDA version: 2022.0.0 build 7085 rev 119802 built on 2022-11-08
// Device information: 
//  DeviceId: 00B49380
//  ProductCode: MTW2-3A7G6
//  Firmware Version: 4.6.0
//  Hardware Version: 2.0.0
// Device settings: 
//  Filter Profile: human(46.1)
//  Option Flags: Orientation Smoother Disabled, Position/Velocity Smoother Disabled, Continuous Zero Rotation Update Disabled, AHS Disabled, ICC Disabled
// Coordinate system: ENU
PacketCounter	Acc_X	Acc_Y	Acc_Z	FreeAcc_E	FreeAcc_N	FreeAcc_U	Roll	Pitch	Yaw	Vel_E	Vel_N	Vel_U
09830	9.403088	0.529933	2.660903	0.010914	0.138402	-0.026982	14.167617	-73.763033	164.388648			
09831	9.370437	0.500255	2.702434	0.058897	0.167611	-0.049136	14.210288	-73.748382	164.376913			
09832	9.392705	0.550382	2.717791	0.063476	0.121325	-0.020166	14.236669	-73.729323	164.385526			
09833	9.448958	0.540147	2.757474	0.084178	0.137638	0.043894	14.268659	-73.711643	164.387871			
09834	9.536895	0.561811	2.758651	0.057366	0.124557	0.130116	14.280407	-73.686243	164.408926			
09835	9.565640	0.576376	2.753129	0.039376	0.114200	0.157207	14.288190	-73.656876	164.433237			
09836	9.555272	0.593882	2.810047	0.091273	0.096980	0.164012	14.297347	-73.625770	164.458946			
09837	9.588694	0.711481	2.831807	0.094780	-0.015829	0.210245	14.313122	-73.598669	164.472672			
09838	9.574077	0.714528	2.857336	0.118620	-0.018204	0.203473	14.332233	-73.569403	164.479376			
09839	9.561034	0.737255	2.854241	0.113945	-0.038831	0.191768	14.371175	-73.538759	164.460481			
09840	9.527653	0.796774	2.894769	0.155150	-0.097576	0.175160	14.420693	-73.502983	164.420906			
09841	9.484145	0.808013	2.902017	0.169110	-0.107725	0.136352	14.486825	-73.473757	164.358155			
09842	9.471774	0.809569	2.986656	0.249673	-0.106403	0.148053	14.563140	-73.443340	164.278348			
09843	9.427952	0.733957	2.997148	0.270224	-0.028959	0.103663	14.655173	-73.413216	164.176746			
09844	9.409591	0.702566	3.079633	0.351424	0.005769	0.106718	14.747748	-73.380658	164.074746			
09845	9.387118	0.656534	3.131135	0.404754	0.055670	0.096203	14.852898	-73.350705	163.961240			
09846	9.370458	0.644615	3.184675	0.457264	0.071823	0.094326	14.951579	-73.318030	163.854459			
09847	9.398683	0.663988	3.179119	0.439276	0.061451	0.121404	15.057259	-73.281195	163.745382			
09848	9.341784	0.678146	3.206664	0.476384	0.048766	0.075800	15.150323	-73.246738	163.651392			
09849	9.345290	0.718449	3.213871	0.476394	0.015443	0.084403	15.253972	-73.207011	163.550193			
09850	9.291576	0.771077	3.184245	0.456083	-0.034346	0.028967	15.360456	-73.168394	163.452570			
09851	9.397313	0.831252	3.168470	0.405523	-0.078329	0.130606	15.472168	-73.136759	163.346304			
09852	9.480868	0.907716	3.223999	0.429519	-0.141909	0.232229	15.559979	-73.108399	163.257863			
09853	9.571811	0.948769	3.257210	0.431025	-0.169541	0.331997	15.647528	-73.075804	163.163223			
09854	9.546684	0.994156	3.245662	0.420755	-0.211245	0.308587	15.723816	-73.039707	163.072965			
09855	9.578353	1.027827	3.271785	0.430826	-0.236487	0.349218	15.806961	-73.001546	162.967595			
09856	9.488565	1.032073	3.250359	0.429730	-0.242389	0.258035	15.893138	-72.962044	162.856390			
09857	9.444556	1.045158	3.256893	0.443635	-0.252573	0.219199	16.011179	-72.932684	162.709545			
09858	9.378490	0.986993	3.338648	0.538758	-0.194784	0.174734	16.110491	-72.899872	162.562481			
09859	9.263398	0.904917	3.360104	0.591228	-0.117209	0.064378	16.219909	-72.874599	162.398363			
09860	9.202259	0.731074	3.302784	0.556817	0.056506	-0.024369	16.310066	-72.848047	162.246412			
09861	9.048301	0.585749	3.300631	0.600515	0.192844	-0.184022	16.409061	-72.818151	162.082977			
09862	8.918869	0.483732	3.370557	0.704842	0.286425	-0.296279	16.488543	-72.790320	161.925671			
09863	8.815185	0.271244	3.431808	0.798106	0.490836	-0.395657	16.528342	-72.757964	161.783607			
09864	8.742173	0.029463	3.310216	0.708269	0.727778	-0.520073	16.526567	-72.722962	161.675482			
09865	8.740719	-0.142326	3.261066	0.665563	0.899404	-0.549693	16.502031	-72.694263	161.594932			
09866	8.758408	-0.306222	3.280958	0.684175	1.061691	-0.540531	16.436034	-72.673041	161.559816			
09867	8.906026	-0.394056	3.381955	0.741414	1.156262	-0.377458	16.314747	-72.659841	161.562468			
09868	9.131244	-0.532870	3.477512	0.772674	1.304533	-0.145329	16.088922	-72.633779	161.654540			
09869	9.172675	-0.644591	3.543983	0.823675	1.406088	-0.093751	15.808311	-72.590144	161.803303			
09870	9.228670	-0.568499	3.616500	0.865712	1.319461	-0.010639	15.508422	-72.567692	161.983822			
09871	9.392263	-0.440943	3.670914	0.856825	1.189118	0.174127	15.128525	-72.534543	162.210940			
09872	9.165369	-0.460155	3.475600	0.725719	1.174899	-0.097317	14.729663	-72.486275	162.470447			
09873	9.284017	-0.145840	3.472170	0.659742	0.855488	0.041401	14.384305	-72.459596	162.701015			
09874	9.310973	-0.094673	3.617674	0.777189	0.782870	0.115746	13.967690	-72.408487	162.954176			
09875	9.309795	0.013242	3.572122	0.713649	0.658322	0.111515	13.583500	-72.349692	163.189181			
09876	9.378945	0.251989	3.689143	0.775572	0.402294	0.230942	13.172843	-72.302136	163.427082			
09877	9.368380	0.228965	3.552252	0.634612	0.410102	0.180635	12.734081	-72.232224	163.679990			
09878	9.348260	0.403298	3.882467	0.922722	0.196109	0.273750	12.242914	-72.138691	163.959738			
09879	9.194629	0.233517	3.659349	0.744675	0.338806	0.052257	11.675837	-72.028308	164.270063			
09880	8.977231	0.331603	3.216353	0.356062	0.225039	-0.280213	11.195719	-71.927326	164.585879			
09881	8.939855	0.257005	2.979328	0.126169	0.290364	-0.391268	10.699357	-71.826945	164.896542			
09882	8.675906	0.060735	2.494602	-0.256297	0.477479	-0.801342	10.324609	-71.755892	165.165323			
09883	8.678252	-0.193661	2.564576	-0.179135	0.710456	-0.791061	9.934855	-71.729802	165.377573			
09884	8.628957	-0.515846	2.679136	-0.030773	1.003218	-0.818503	9.636708	-71.733045	165.562198			
09885	8.753286	-0.514057	2.940412	0.179490	0.979299	-0.618176	9.405357	-71.761875	165.757825			
09886	9.000929	-0.492893	2.900235	0.065956	0.968201	-0.393067	9.204105	-71.792657	166.000018			
09887	9.182771	-0.347953	2.815770	-0.079874	0.833019	-0.238107	9.029726	-71.837350	166.268090			
09888	9.413769	-0.184334	2.791001	-0.182990	0.677929	-0.017299	8.868752	-71.898531	166.550664			
09889	9.511008	0.006059	2.878839	-0.138156	0.478624	0.111971	8.718527	-71.965259	166.851714			
09890	9.638024	0.187379	2.571722	-0.474944	0.316432	0.147968	8.594882	-72.034109	167.155523			
09891	9.750505	0.325798	2.489516	-0.589000	0.181450	0.237006	8.488114	-72.096727	167.430986			
09892	9.845009	0.303086	2.307882	-0.779885	0.212007	0.271419	8.404975	-72.152852	167.667843			
09893	9.810575	0.352253	2.185368	-0.880369	0.161369	0.204608	8.402307	-72.217185	167.816158			
09894	9.848607	0.247531	2.082439	-0.971045	0.270471	0.206134	8.444179	-72.285012	167.861651			
09895	9.831833	0.032644	1.825411	-1.182459	0.498577	0.104537	8.591364	-72.362140	167.783401			
09896	9.848210	-0.225015	1.942493	-1.042939	0.755493	0.144854	8.803746	-72.441759	167.602734			
09897	9.828240	-0.424201	1.945449	-1.004415	0.961966	0.118313	9.076889	-72.518955	167.343506			
09898	9.721149	-0.551439	1.947009	-0.945940	1.093325	0.011032	9.388742	-72.601129	167.031087			
09899	9.766649	-0.794316	1.960434	-0.909631	1.351560	0.046698	9.756819	-72.703373	166.660436			
09900	9.905435	-0.995715	1.943436	-0.929229	1.578215	0.163872	10.179555	-72.812468	166.253079			
09901	9.959351	-0.950257	1.922862	-0.942328	1.555255	0.211392	10.639033	-72.935187	165.812571			
09902	9.813270	-0.875059	1.798444	-0.998122	1.494125	0.039807	11.135730	-73.064345	165.354293			
09903	9.677992	-0.810906	1.942205	-0.798386	1.432337	-0.045183	11.685942	-73.203864	164.847966			
09904	9.572246	-0.726289	2.015472	-0.674229	1.356312	-0.121288	12.262547	-73.352628	164.315113			
09905	9.499077	-0.695479	2.049876	-0.590405	1.339302	-0.180673	12.897834	-73.514750	163.726077			
09906	9.404075	-0.623066	2.066837	-0.517719	1.280425	-0.263396	13.571472	-73.689853	163.083758			
09907	9.344416	-0.564024	1.988823	-0.542859	1.243772	-0.339050	14.321300	-73.868379	162.367149			
09908	9.167043	-0.521135	2.123728	-0.329550	1.204627	-0.471566	15.138963	-74.057033	161.580107			
09909	9.127233	-0.471049	2.140679	-0.264370	1.177171	-0.503824	16.035862	-74.252794	160.725702			
09910	9.266494	-0.357748	2.122226	-0.282162	1.105312	-0.368208	16.969715	-74.447220	159.844397			
09911	9.551166	-0.254686	2.162371	-0.277491	1.055529	-0.077487	17.896421	-74.637396	158.973358			
09912	9.711049	-0.244478	2.070368	-0.362958	1.090787	0.052854	18.768329	-74.818647	158.159871			
09913	9.665956	-0.191462	2.028874	-0.354613	1.059892	0.002322	19.583885	-74.977036	157.383009			
09914	9.493348	-0.201595	2.115537	-0.191960	1.071396	-0.145479	20.346368	-75.117931	156.640185			
09915	9.404193	-0.336975	2.058025	-0.184629	1.220314	-0.259442	21.083687	-75.241244	155.907626			
09916	9.364341	-0.401690	2.115673	-0.083911	1.298433	-0.292434	21.821171	-75.357786	155.166300			
09917	9.450204	-0.503311	2.190880	0.006545	1.426333	-0.204095	22.561562	-75.461289	154.412333			
09918	9.518088	-0.481303	2.059193	-0.109555	1.437552	-0.169696	23.274396	-75.551562	153.689467			
09919	9.600117	-0.416174	2.022096	-0.141267	1.404186	-0.095047	23.981078	-75.630639	152.982475			
09920	9.640518	-0.385426	2.047456	-0.102539	1.396912	-0.049580	24.644745	-75.703717	152.325698			
09921	9.732100	-0.282732	1.935601	-0.215168	1.329017	0.022332	25.265394	-75.761419	151.713774			
09922	9.750334	-0.312568	1.841580	-0.288545	1.381779	0.014087	25.822494	-75.812774	151.156459			
09923	9.705248	-0.406644	1.770647	-0.323816	1.489204	-0.057189	26.356317	-75.850918	150.631053			
09924	9.671665	-0.502059	1.681422	-0.382576	1.598485	-0.121516	26.806578	-75.873904	150.165903			
09925	9.649783	-0.609220	1.713819	-0.327436	1.715026	-0.149454	27.197844	-75.882039	149.746942			
09926	9.680087	-0.692558	1.554652	-0.474661	1.820854	-0.165935	27.553100	-75.877140	149.371202			
09927	9.729678	-0.688384	1.604795	-0.430140	1.834739	-0.108844	27.886220	-75.854614	149.017608			
09928	9.770371	-0.629931	1.653092	-0.392041	1.794007	-0.054742	28.191905	-75.816383	148.685120			
09929	9.765006	-0.608925	1.595016	-0.448166	1.790792	-0.072955	28.509452	-75.756567	148.343057			
09930	9.758805	-0.577287	1.650676	-0.396229	1.773143	-0.066344	28.807550	-75.687124	148.014819			
09931	9.837789	-0.481124	1.644337	-0.428677	1.706395	0.016953	29.100722	-75.605949	147.699677			
09932	9.906112	-0.311641	1.607721	-0.496385	1.566617	0.092474	29.327160	-75.511748	147.447715			
09933	9.944231	-0.147634	1.447328	-0.682426	1.433321	0.111230	29.485551	-75.394820	147.280903			
09934	9.964733	0.000682	1.282192	-0.873364	1.312252	0.109767	29.569037	-75.259837	147.188509			
09935	9.935427	0.084300	1.120321	-1.049563	1.248235	0.052159	29.620595	-75.110012	147.141176			
09936	9.937008	0.143272	1.007073	-1.186825	1.210126	0.031388	29.622327	-74.942496	147.148506			
09937	9.980597	0.115250	0.835134	-1.386774	1.267084	0.025723	29.632196	-74.764553	147.161409			
09938	9.991029	0.110700	0.870492	-1.380674	1.287511	0.037523	29.622921	-74.585700	147.192696			
09939	10.141483	0.020637	0.676723	-1.623666	1.421634	0.119615	29.585531	-74.400499	147.241525			
09940	10.066322	0.012251	0.862811	-1.454421	1.425749	0.083132	29.461928	-74.215037	147.353806			
09941	10.257538	0.009919	1.007804	-1.387337	1.461250	0.295369	29.238532	-74.043801	147.530198			
09942	10.527229	-0.045206	0.973617	-1.510684	1.561004	0.533980	28.856763	-73.884956	147.838567			
09943	10.791798	0.035264	1.569317	-1.038299	1.494063	0.939823	28.253719	-73.712656	148.297503			
09944	10.946840	-0.117784	2.019468	-0.671401	1.635472	1.178203	27.411951	-73.543996	148.920053			
09945	11.150406	-0.268489	2.015263	-0.756592	1.789919	1.353711	26.477109	-73.418916	149.632397			
09946	11.358634	-0.533813	2.204719	-0.640742	2.038904	1.571355	25.504388	-73.339027	150.366021			
09947	11.788327	-0.846014	2.378279	-0.584243	2.360859	1.994996	24.592520	-73.284369	151.042824			
09948	12.186635	-0.938200	2.792106	-0.303133	2.443025	2.480795	23.755652	-73.251596	151.665597			
09949	12.653647	-0.771021	2.964561	-0.291359	2.291327	2.999910	23.053282	-73.249243	152.208583			
09950	13.016213	-0.174669	3.167475	-0.260656	1.698762	3.473823	22.463380	-73.273435	152.711186			
09951	13.128367	0.628819	3.043516	-0.496448	0.891499	3.639862	21.967163	-73.317524	153.203279			
09952	12.699300	1.544645	2.835013	-0.678077	-0.090841	3.272698	21.548702	-73.396695	153.707327			
09953	12.058052	2.541122	2.793531	-0.636058	-1.189026	2.750722	21.226523	-73.541861	154.179144			
09954	11.326002	3.190979	2.521617	-0.743056	-1.940392	2.040657	20.932159	-73.733530	154.638322			
09955	10.406255	3.586987	2.613460	-0.427787	-2.481084	1.216723	20.587802	-73.890084	155.094798			
09956	9.282183	3.900730	2.825258	0.045093	-2.964896	0.215473	20.088073	-73.952563	155.614764			
09957	8.048354	3.932495	3.102014	0.612894	-3.177453	-0.902519	19.512737	-73.927967	156.129219			
09958	7.017144	3.886985	3.056682	0.814987	-3.265261	-1.915468	18.917607	-73.861698	156.606915			
09959	5.834275	3.542903	3.086861	1.153900	-3.073919	-3.079256	18.350877	-73.793054	156.999317			
09960	5.529985	2.931396	3.133224	1.314025	-2.523366	-3.417626	17.766842	-73.802534	157.344298			
09961	5.708720	2.009132	3.087172	1.301141	-1.612121	-3.342390	17.069016	-73.883824	157.746657			
09962	6.418441	0.895609	3.036033	1.179156	-0.463342	-2.769194	16.232048	-74.009406	158.294978			
09963	7.160264	0.221994	3.008760	1.036307	0.243266	-2.116062	15.300579	-74.125930	159.007306			
09964	8.049209	-0.008901	3.000741	0.827912	0.517262	-1.277986	14.312372	-74.218778	159.850711			
09965	8.743975	-0.020337	2.855386	0.509624	0.563172	-0.645698	13.337216	-74.279249	160.765434			
09966	9.615755	0.329272	2.805987	0.194567	0.254472	0.204395	12.398041	-74.327147	161.717429			
09967	10.253900	0.611747	2.985379	0.163420	-0.033606	0.883161	11.443500	-74.349340	162.673588			
09968	10.780817	0.821518	3.156709	0.154983	-0.263306	1.446627	10.467989	-74.335613	163.616663			
09969	11.079702	0.911056	3.455273	0.328639	-0.404068	1.817324	9.500410	-74.237263	164.540661			
09970	10.956860	0.689549	3.500047	0.388277	-0.239858	1.701217	8.602698	-74.068824	165.385064			
09971	10.505931	0.418803	3.376421	0.371380	-0.023270	1.224135	7.865940	-73.847953	166.123880			
09972	9.918933	-0.028295	3.250467	0.408834	0.370200	0.610706	7.275381	-73.614299	166.738016			
09973	9.485652	-0.439175	3.218524	0.496385	0.737147	0.174275	6.793138	-73.400242	167.292694			
09974	9.241800	-0.638627	3.337356	0.657782	0.894040	-0.028797	6.306274	-73.197887	167.847162			
09975	8.918501	-0.779810	3.403871	0.787017	0.994254	-0.319216	5.819219	-72.989342	168.429850			
09976	8.757536	-0.866021	3.373125	0.772489	1.059701	-0.479813	5.374654	-72.778606	168.993291			
09977	8.621568	-0.730523	3.270978	0.661667	0.916656	-0.631936	5.024353	-72.579886	169.550183			
09978	8.595272	-0.435560	3.295806	0.628787	0.612090	-0.638777	4.727768	-72.405116	170.062271			
09979	8.762594	-0.275226	3.386651	0.618894	0.448146	-0.445497	4.479066	-72.244753	170.534832			
09980	8.858524	-0.110342	3.425467	0.583523	0.280458	-0.336389	4.268488	-72.094579	170.915348			
09981	8.845163	-0.068759	3.506663	0.634526	0.229425	-0.321481	4.122660	-71.948825	171.245635			
09982	8.756215	-0.041518	3.563791	0.688921	0.192869	-0.386035	4.020232	-71.811552	171.498554			
09983	8.616165	-0.185167	3.527504	0.686424	0.333813	-0.531890	3.974433	-71.678643	171.694621			
09984	8.410454	-0.236475	3.590227	0.792721	0.374282	-0.707038	3.961494	-71.558715	171.837747			
09985	8.164046	-0.344738	3.622899	0.890511	0.474319	-0.931366	3.994442	-71.451448	171.944913			
09986	7.860912	-0.516420	3.554287	0.918247	0.642383	-1.243106	4.057582	-71.363358	172.000622			
09987	7.572080	-0.489883	3.605016	1.043515	0.608572	-1.499252	4.189307	-71.295008	172.009341			
09988	7.474382	-0.645828	3.375063	0.858506	0.783782	-1.668783	4.391847	-71.231946	171.907948			
09989	7.326407	-0.769397	2.984722	0.538645	0.938058	-1.938257	4.768026	-71.205435	171.713762			
09990	7.556513	-0.542778	2.931559	0.400828	0.744718	-1.733441	5.213040	-71.233678	171.425078			
09991	7.746619	-0.590752	2.883786	0.304568	0.824738	-1.572401	5.668892	-71.274805	171.087145			
09992	7.932698	-0.663306	2.922432	0.294506	0.925360	-1.388602	6.148732	-71.310259	170.684552			
09993	8.003760	-0.731186	2.820008	0.186606	1.025445	-1.359236	6.706321	-71.340791	170.248228			
09994	8.191595	-0.652639	3.002100	0.303982	0.974951	-1.123742	7.277457	-71.384387	169.772132			
09995	8.242655	-0.689706	3.210180	0.497438	1.032767	-1.014495	7.839607	-71.429591	169.320254			
09996	8.263412	-0.587173	3.298536	0.581164	0.952915	-0.966037	8.352075	-71.499777	168.922890			
09997	8.414205	-0.341232	3.435622	0.667473	0.732677	-0.771869	8.759129	-71.611991	168.660674			
09998	8.675710	-0.198345	3.409800	0.575697	0.619521	-0.527283	8.969743	-71.746756	168.559168			
09999	8.841041	0.020305	3.639491	0.752610	0.407381	-0.290193	8.997476	-71.863508	168.628381			
10000	8.992965	0.174366	3.747773	0.817701	0.255724	-0.106217	8.922973	-71.951004	168.767377			
10001	9.133853	0.379616	3.432457	0.478186	0.064755	-0.059725	8.877688	-72.031191	168.952786			
10002	9.443502	0.557725	3.264956	0.229246	-0.094838	0.191769	8.809130	-72.104549	169.134903			
10003	9.704799	0.329526	3.178967	0.088994	0.142586	0.403441	8.650874	-72.166737	169.359165			
10004	9.759194	-0.078441	3.142630	0.063522	0.541124	0.425831	8.418711	-72.225140	169.596982			
10005	9.663885	-0.512004	3.095552	0.072920	0.955097	0.302535	8.157321	-72.282383	169.836622			
10006	9.541114	-1.284326	2.903003	-0.032686	1.707869	0.096493	7.858335	-72.345091	170.055537			
10007	9.455524	-2.097885	2.912677	0.048781	2.497681	-0.012130	7.552034	-72.432380	170.290739			
10008	9.324885	-2.936845	3.124517	0.344264	3.302548	-0.101058	7.215427	-72.543099	170.531723			
10009	9.532567	-3.544542	3.547718	0.733649	3.885487	0.206524	6.880772	-72.673494	170.841181			
10010	9.971948	-3.827147	3.693970	0.777674	4.161787	0.666192	6.536583	-72.821549	171.230111			
10011	10.659027	-3.886305	3.940865	0.827254	4.223784	1.399980	6.212058	-72.937003	171.727267			
10012	11.329766	-3.642482	4.022187	0.700665	3.991348	2.077959	6.025325	-73.034132	172.268467			
10013	12.587150	-2.737832	3.568901	-0.139326	3.144573	3.178130	6.121306	-73.122437	172.822766			
10014	13.918324	-1.849186	3.876036	-0.274311	2.310562	4.566074	6.398650	-73.082176	173.278343			
10015	14.186174	-1.255521	4.687083	0.355571	1.758268	5.072669	6.839886	-72.828523	173.716884			
10016	13.580011	-0.230492	4.890494	0.636943	0.766818	4.588420	7.294425	-72.448996	174.185581			
10017	12.621182	0.956625	3.265540	-0.680943	-0.459798	3.233297	7.660051	-72.164458	174.668858			
10018	13.006600	3.120449	1.958428	-1.994126	-2.660918	3.290260	7.734238	-72.110048	174.977842			
10019	13.384419	4.627242	3.453305	-0.637434	-4.092596	4.163134	7.399568	-72.051934	175.107110			
10020	12.793225	5.243749	5.608844	1.564355	-4.646235	4.279419	7.103602	-71.876265	175.044468			
10021	11.289612	5.642140	4.792589	1.186835	-5.129387	2.618648	7.131864	-71.527812	174.844342			
10022	8.761930	4.213556	3.866353	0.973666	-3.808902	-0.116414	7.114618	-71.122903	174.508989			
10023	6.593364	1.108291	4.058242	1.717129	-0.775351	-2.221893	6.983536	-70.808210	174.148521			
10024	5.082934	-0.463355	3.851845	1.963310	0.724802	-3.770530	7.014658	-70.601371	173.687947			
10025	4.418021	-0.771333	3.353762	1.701851	0.993408	-4.570701	7.265416	-70.508093	173.127274			
10026	4.665002	-0.528008	3.049343	1.333091	0.758155	-4.428674	7.644511	-70.482809	172.518124			
10027	5.427971	-0.240308	3.208073	1.233895	0.517018	-3.646447	8.155384	-70.528905	171.958827			
10028	6.854773	0.274599	2.874853	0.460324	0.085470	-2.389157	8.765504	-70.672369	171.438201			
10029	8.017248	0.907487	2.411299	-0.335317	-0.470002	-1.411456	9.393550	-70.838287	170.968460			
10030	8.724834	1.720090	2.528896	-0.425898	-1.218629	-0.657897	9.954217	-70.974202	170.612988			
10031	9.241176	2.433053	2.455061	-0.631501	-1.882021	-0.148035	10.424749	-71.090682	170.358406			
10032	9.882065	3.059895	2.508534	-0.753863	-2.455789	0.517444	10.733050	-71.199941	170.213017			
10033	10.505408	3.241204	2.726138	-0.718693	-2.587285	1.191413	10.905713	-71.289758	170.125636			
10034	10.678283	3.088601	2.701816	-0.782062	-2.422047	1.340207	10.963491	-71.335486	170.065448			
10035	10.423635	2.680749	2.810068	-0.599448	-2.024884	1.108648	10.943700	-71.335246	169.991343			
10036	9.641456	1.936482	2.864732	-0.313113	-1.324526	0.339253	10.905026	-71.297191	169.867654			
10037	8.803938	1.049484	2.746346	-0.173684	-0.486761	-0.545215	10.952002	-71.252905	169.635742			
10038	8.214055	0.182583	2.824130	0.081531	0.350831	-1.132249	11.068404	-71.230346	169.336292			
10039	7.896970	-0.416086	2.783336	0.147660	0.936074	-1.482970	11.265330	-71.246910	168.996617			
10040	7.861322	-0.611588	2.769749	0.156253	1.136265	-1.534378	11.462798	-71.302430	168.699290			
10041	8.202715	-0.493728	2.804151	0.095695	1.047841	-1.193847	11.678943	-71.403938	168.440787			
10042	8.628999	-0.162477	2.809661	-0.014935	0.751155	-0.767483	11.895801	-71.534224	168.240789			
10043	8.961549	0.276407	2.761617	-0.142742	0.341472	-0.438508	12.154141	-71.684953	168.046378			
10044	9.316869	0.835964	2.680624	-0.304020	-0.186751	-0.088427	12.444040	-71.853833	167.819011			
10045	9.537707	1.145281	2.468695	-0.543146	-0.472643	0.079506	12.820678	-72.016702	167.486764			
10046	9.353958	1.525537	2.655511	-0.280509	-0.845667	-0.010566	13.288625	-72.168777	167.012412			
10047	9.273709	1.634347	2.529297	-0.348368	-0.940611	-0.114033	13.847949	-72.309748	166.362848			
10048	8.940964	1.542890	2.582458	-0.172799	-0.847948	-0.418995	14.477995	-72.428999	165.583573			
10049	8.719635	1.211340	2.382318	-0.271986	-0.508364	-0.710913	15.194242	-72.542646	164.662008			
10050	8.717229	0.960699	2.411260	-0.216134	-0.228580	-0.722687	15.936449	-72.643215	163.680239			
10051	8.761855	0.632567	2.476077	-0.136075	0.133961	-0.687743	16.717716	-72.734009	162.651273			
10052	8.907563	0.397777	2.421241	-0.199483	0.412400	-0.584724	17.484450	-72.809592	161.633117			
10053	8.947777	0.195705	2.438843	-0.163309	0.649113	-0.560616	18.232785	-72.875288	160.636271			
10054	9.219044	0.141259	2.217502	-0.425178	0.762034	-0.369889	18.946565	-72.931214	159.696990			
10055	9.368222	-0.092169	2.161725	-0.488302	1.040935	-0.266849	19.611817	-72.968895	158.818969			
10056	9.466675	-0.197229	2.123597	-0.525930	1.185265	-0.195778	20.235031	-73.005861	158.004308			
10057	9.480198	-0.310239	2.118806	-0.509050	1.326828	-0.198113	20.811916	-73.025047	157.247407			
10058	9.465855	-0.504582	2.043074	-0.551209	1.545410	-0.255545	21.352242	-73.034953	156.554432			
10059	9.365531	-0.725604	2.031436	-0.509659	1.779030	-0.381800	21.876683	-73.019747	155.904249			
10060	9.311083	-0.936882	2.051985	-0.452938	2.007080	-0.455814	22.399355	-72.990044	155.290209			
10061	9.207970	-1.047987	1.953124	-0.506449	2.133297	-0.598992	22.929762	-72.942553	154.716366			
10062	9.203436	-1.008480	2.062282	-0.397756	2.116740	-0.575025	23.434667	-72.887672	154.207018			
10063	9.254677	-0.793890	2.002462	-0.479645	1.937554	-0.522642	23.913892	-72.820513	153.770106			
10064	9.302091	-0.333572	1.880361	-0.639193	1.514073	-0.459887	24.311751	-72.730947	153.453035			
10065	9.410044	0.187871	1.743243	-0.837199	1.037563	-0.333994	24.663066	-72.617056	153.206576			
10066	9.442653	0.741044	2.203486	-0.447117	0.507111	-0.111602	24.897677	-72.470410	153.060573			
10067	9.466111	0.935976	2.501619	-0.197404	0.333135	0.015404	25.039140	-72.296734	152.970343			
10068	9.431640	1.035176	2.332561	-0.381594	0.251739	-0.052607	25.120373	-72.100567	152.937146			
10069	9.323872	1.064590	2.323400	-0.389805	0.225898	-0.155407	25.182668	-71.912096	152.890259			
10070	9.308651	0.811554	2.117830	-0.595645	0.492048	-0.262932	25.189412	-71.741227	152.867497			
10071	9.289882	0.385626	1.822574	-0.874540	0.926480	-0.423909	25.138286	-71.592109	152.870878			
10072	9.241735	-0.117869	1.679627	-0.990147	1.425968	-0.580629	25.023189	-71.486098	152.922662			
10073	9.438479	-0.596755	1.456458	-1.245183	1.932968	-0.524231	24.896776	-71.437542	152.984773			
10074	9.941298	-0.957359	1.604671	-1.229233	2.355986	-0.052604	24.747175	-71.449905	153.063536			
10075	10.530729	-1.079264	1.883965	-1.116723	2.547475	0.573537	24.579658	-71.515592	153.142620			
10076	11.093534	-0.684021	2.182810	-1.000532	2.216039	1.250183	24.377747	-71.614163	153.230708			
10077	11.795831	-0.204952	2.481329	-0.925968	1.816474	2.069382	24.118123	-71.707332	153.294264			
10078	12.276253	0.097378	3.140016	-0.439409	1.543309	2.757143	23.675351	-71.755980	153.416042			
10079	12.520082	0.143808	3.385510	-0.272308	1.491361	3.068943	23.151313	-71.807716	153.569532			
10080	12.585134	0.315246	3.772551	0.071654	1.277106	3.267100	22.627677	-71.884964	153.757442			
10081	12.524891	0.309130	3.867213	0.187073	1.229745	3.240143	22.129771	-71.972235	153.931207			
10082	12.437417	-0.007701	3.765186	0.150078	1.496690	3.094803	21.679624	-72.057447	154.114743			
10083	12.314578	0.340561	4.137310	0.521561	1.079008	3.127395	21.296723	-72.175719	154.338143			
10084	12.025732	0.794361	4.127962	0.569556	0.554799	2.901751	20.944548	-72.340717	154.676725			
10085	11.783426	1.371347	3.670324	0.173363	-0.057223	2.603732	20.668516	-72.550237	155.134997			
10086	11.356705	2.577122	2.867602	-0.543107	-1.297886	2.097797	20.456427	-72.807664	155.711778			
10087	10.763091	4.039834	2.127093	-1.150338	-2.822219	1.474480	20.308160	-73.098978	156.322612			
10088	9.985993	5.449428	1.968555	-1.123334	-4.345676	0.824235	20.095902	-73.398697	156.931115			
10089	9.087446	6.446497	2.089789	-0.768730	-5.478257	0.081937	19.777559	-73.669383	157.429445			
10090	8.321442	6.765934	2.234733	-0.415386	-5.918914	-0.603342	19.232173	-73.897497	157.843406			
10091	7.734246	6.330714	2.534943	0.046417	-5.598056	-1.153485	18.420573	-74.096378	158.207986			
10092	7.396537	5.005576	2.842543	0.487942	-4.378847	-1.540339	17.315065	-74.273016	158.617167			
10093	7.481578	3.341026	3.270447	0.974232	-2.803461	-1.504666	15.986639	-74.408827	159.125233			
10094	7.677384	1.733601	3.595102	1.357201	-1.286394	-1.364316	14.470872	-74.489815	159.807388			
10095	7.809771	0.193804	3.590472	1.465984	0.176918	-1.342701	12.968569	-74.525332	160.577445			
10096	8.268231	-1.138251	3.856029	1.755529	1.435696	-0.902882	11.487134	-74.518865	161.442341			
10097	8.712871	-2.250810	3.793721	1.718658	2.512774	-0.533443	10.141890	-74.449117	162.342462			
10098	8.756009	-2.744917	3.211388	1.205446	3.021828	-0.651326	9.124879	-74.407590	163.210591			
10099	9.325504	-2.249004	3.084894	0.854795	2.553395	-0.102435	8.324651	-74.397411	164.052935			
10100	9.693868	-1.532900	3.189062	0.741135	1.826862	0.316683	7.562606	-74.343804	164.931010			
10101	9.898372	-0.596658	2.997817	0.351919	0.910170	0.500813	6.920081	-74.239205	165.761012			
10102	10.111903	0.553823	2.933411	0.051017	-0.231743	0.727984	6.304808	-74.088381	166.568395			
10103	9.769137	1.160631	3.079870	0.169448	-0.895063	0.455646	5.651173	-73.904169	167.356660			
10104	9.575523	1.262845	3.198832	0.284732	-1.046410	0.303721	4.962316	-73.712596	168.110943			
10105	9.123248	1.023411	3.203012	0.404215	-0.860880	-0.136138	4.263529	-73.518210	168.821306			
10106	8.703898	0.676449	3.168382	0.492380	-0.562181	-0.555507	3.541431	-73.315270	169.516728			
10107	8.263102	0.222211	3.174251	0.642199	-0.160793	-0.982870	2.851830	-73.125445	170.165099			
10108	7.827879	-0.270387	3.207360	0.827318	0.278415	-1.394025	2.208553	-72.956375	170.797804			
10109	7.682658	-0.533116	3.223926	0.892376	0.508991	-1.527419	1.637270	-72.838159	171.404137			
10110	7.815377	-0.710770	3.245334	0.877033	0.668641	-1.392403	1.115176	-72.757984	171.997290			
10111	7.994863	-0.816938	3.323637	0.897469	0.753796	-1.195375	0.633274	-72.706653	172.566397			
10112	8.260316	-0.739514	3.487099	0.953645	0.650488	-0.890414	0.196696	-72.662023	173.086945			
10113	8.439192	-0.721542	3.590720	0.986730	0.611968	-0.686588	-0.157964	-72.620321	173.538348			
10114	8.478832	-0.543206	3.688267	1.035472	0.412940	-0.617784	-0.439932	-72.552847	173.907415			
10115	8.287692	-0.694070	3.367202	0.791955	0.584995	-0.894380	-0.578784	-72.476710	174.172779			
10116	8.286175	-0.546278	3.318859	0.718607	0.441265	-0.909720	-0.640023	-72.426849	174.387774			
10117	8.185325	-0.725443	3.353048	0.791571	0.612665	-0.994139	-0.699976	-72.375194	174.543780			
10118	7.998008	-0.948948	3.208894	0.726904	0.844149	-1.214743	-0.720038	-72.334593	174.647055			
10119	7.817552	-1.082734	3.063911	0.653233	0.988686	-1.429980	-0.683911	-72.325751	174.694800			
10120	7.528398	-1.254491	2.867156	0.573183	1.173823	-1.765035	-0.609517	-72.368763	174.689640			
10121	7.407053	-1.419099	2.867181	0.635349	1.337557	-1.881340	-0.514277	-72.460245	174.631535			
10122	7.313009	-1.711449	2.704915	0.553611	1.644132	-2.020637	-0.424250	-72.577704	174.550275			
10123	7.260423	-1.890889	2.564922	0.472162	1.837965	-2.114184	-0.290696	-72.715777	174.433263			
10124	7.292285	-2.028450	2.509427	0.443190	1.984675	-2.102054	-0.149299	-72.865773	174.322667			
10125	7.426016	-2.012693	2.754311	0.655496	1.954207	-1.904829	0.040491	-73.021486	174.183496			
10126	7.566402	-1.685137	3.228532	1.054900	1.594282	-1.635956	0.285817	-73.196647	174.044614			
10127	7.712032	-1.089495	3.308398	1.057757	1.010348	-1.477930	0.618348	-73.432642	173.939773			
10128	8.246989	-0.154727	3.561491	1.098013	0.086629	-0.895981	0.910091	-73.732567	173.954973			
10129	9.028327	0.708384	4.398072	1.651243	-0.811355	0.085313	0.998902	-74.002921	174.093024			
10130	9.595234	1.151802	4.437862	1.538138	-1.236607	0.636935	0.974746	-74.168455	174.352149			
10131	10.168935	1.770431	3.936102	0.877094	-1.796220	1.051881	0.960683	-74.220444	174.632611			
10132	10.618316	1.959481	3.308757	0.144385	-1.928475	1.313687	0.850587	-74.156771	174.919458			
10133	10.341547	1.245846	2.454642	-0.559937	-1.168869	0.810174	0.683651	-74.047115	175.140408			
10134	10.148841	0.233578	2.404375	-0.498423	-0.171838	0.606360	0.336710	-73.977133	175.357841			
10135	10.170637	-1.299369	3.005503	0.179640	1.289510	0.792408	-0.323781	-73.946282	175.653971			
10136	10.068094	-3.178096	3.863461	1.192620	3.046968	0.943078	-1.254038	-73.972131	176.163936			
10137	10.413720	-4.267645	4.776511	2.092548	3.999028	1.549618	-2.275910	-74.042642	176.884884			
10138	10.772051	-5.013216	5.279222	2.563181	4.641785	2.058425	-3.135850	-74.086369	177.679018			
10139	11.791194	-5.069461	5.457632	2.452849	4.663147	3.100715	-3.493125	-74.100505	178.344504			
10140	13.792692	-4.735856	4.988021	1.381432	4.401805	4.893173	-3.222517	-74.054879	178.779718			
10141	15.768442	-3.777525	5.686789	1.342387	3.469338	6.962673	-2.369471	-73.825698	178.920371			
10142	15.957292	-2.700894	5.673886	1.065751	2.504714	7.119817	-1.170916	-73.410387	178.970129			
10143	14.530858	-1.056794	3.828151	-0.510693	1.019422	5.207814	-0.198914	-72.963704	179.154386			
10144	12.524290	0.659374	1.592788	-2.189279	-0.633568	2.622541	0.156943	-72.649711	179.434531			
10145	11.979214	3.658413	2.604279	-1.116076	-3.646487	2.399000	-0.048111	-72.642493	179.569367			
10146	12.143152	5.275795	5.092043	1.167554	-5.308051	3.289989	-0.464429	-72.588600	179.550972			
10147	11.603154	6.826542	4.266760	0.451533	-6.861790	2.522283	-0.355651	-72.292950	179.297331			
10148	9.859663	6.224787	2.488082	-0.794927	-6.223588	0.325634	-0.145154	-71.866958	178.819021			
10149	7.983429	2.189678	3.343288	0.603132	-2.214728	-1.184934	-0.175416	-71.491625	178.317522			
10150	6.984599	-0.521053	3.474586	1.073875	0.476756	-2.082989	-0.109741	-71.178518	177.865234			
10151	6.209768	-1.168023	2.986233	0.855342	1.134610	-2.969875	0.153191	-70.926438	177.368750			
10152	6.076050	-1.148583	2.825078	0.722593	1.130690	-3.148002	0.543370	-70.708706	176.866226			
10153	6.543529	-1.447326	2.950306	0.681077	1.451216	-2.667978	1.065969	-70.576490	176.416538			
10154	7.958207	-0.646703	2.933371	0.152623	0.708886	-1.337426	1.713952	-70.599168	176.035613			
10155	9.040740	0.630470	2.661666	-0.503387	-0.500241	-0.393919	2.378240	-70.685719	175.718511			
10156	9.341138	1.694264	2.632483	-0.643672	-1.525069	-0.100989	2.973153	-70.788146	175.498336			
10157	9.516229	2.579017	2.450921	-0.864349	-2.373504	0.027849	3.558128	-70.923542	175.275169			
10158	9.813077	3.240085	2.219628	-1.154375	-2.997326	0.257298	4.125757	-71.076715	174.989086			
10159	9.603928	3.617200	2.138477	-1.133096	-3.352944	0.054751	4.704568	-71.198772	174.590981			
10160	8.979441	3.544367	2.337443	-0.717119	-3.272482	-0.462125	5.300899	-71.290960	174.051751			
10161	8.455743	3.264480	2.314264	-0.552399	-2.979498	-0.962287	5.946072	-71.365417	173.354183			
10162	8.026213	2.832417	2.446101	-0.276195	-2.533907	-1.331589	6.592833	-71.426314	172.551159			
10163	7.954955	2.244505	2.704308	0.007553	-1.922807	-1.331232	7.199885	-71.486790	171.703632			
10164	7.775900	1.576728	2.795845	0.171963	-1.241101	-1.494184	7.715273	-71.545329	170.891028			
10165	7.791907	1.124028	2.966631	0.350801	-0.772579	-1.442610	8.145304	-71.627653	170.108424			
10166	7.818372	0.822779	2.820463	0.226438	-0.454497	-1.475958	8.468285	-71.721433	169.394628			
10167	7.743589	0.572448	2.440765	-0.085108	-0.187575	-1.675996	8.770250	-71.834731	168.726270			
10168	7.957094	0.623141	2.538017	-0.040868	-0.219026	-1.440383	9.053233	-71.983085	168.082108			
10169	8.181469	0.650570	2.429453	-0.189557	-0.219029	-1.258276	9.332964	-72.149784	167.440064			
10170	8.433367	0.672493	2.337256	-0.327478	-0.211759	-1.044305	9.595876	-72.326977	166.825099			
10171	8.675456	0.636913	2.327835	-0.377052	-0.151390	-0.816974	9.836878	-72.505551	166.226869			
10172	9.114437	0.594638	2.186875	-0.608451	-0.062682	-0.440667	10.042695	-72.663643	165.654914			
10173	9.426236	0.484090	2.109772	-0.736388	0.083895	-0.169552	10.260555	-72.801163	165.081606			
10174	9.837125	0.282083	2.102604	-0.817587	0.327337	0.211977	10.510904	-72.914995	164.472781			
10175	10.145587	-0.034833	2.234688	-0.725594	0.671382	0.529009	10.817233	-72.987403	163.813150			
10176	10.143338	-0.428293	1.983122	-0.906684	1.101004	0.432759	11.151713	-73.013512	163.163863			
10177	9.893558	-0.701532	1.861376	-0.909410	1.383905	0.142065	11.547943	-73.014612	162.513696			
10178	9.608823	-1.063623	1.952658	-0.691285	1.732496	-0.127948	11.937397	-72.994996	161.901185			
10179	9.305638	-1.109515	2.063768	-0.486035	1.762517	-0.392374	12.380846	-72.979473	161.317336			
10180	9.199378	-0.912602	2.223241	-0.319324	1.563942	-0.439520	12.832475	-72.967878	160.782497			
10181	9.183107	-0.674897	2.357384	-0.207845	1.335826	-0.404471	13.297737	-72.957802	160.282140			
10182	9.234459	-0.443439	2.450672	-0.154986	1.123729	-0.315801	13.730944	-72.941476	159.835534			
10183	9.204083	-0.267065	2.519737	-0.097563	0.960744	-0.315164	14.175152	-72.917407	159.402108			
10184	9.092515	-0.180827	2.710569	0.107906	0.866991	-0.363330	14.618654	-72.885217	158.967234			
10185	9.062414	-0.171736	2.720474	0.127034	0.877003	-0.390772	15.093313	-72.843295	158.505500			
10186	8.954853	-0.167682	2.591511	0.034408	0.898556	-0.532343	15.606437	-72.787095	158.004733			
10187	8.869835	-0.120928	2.537485	0.002203	0.875855	-0.627905	16.190553	-72.730845	157.427873			
10188	8.915423	-0.127945	2.363171	-0.173190	0.934965	-0.637641	16.832438	-72.665626	156.788489			
10189	9.080448	0.035756	2.126589	-0.461110	0.849752	-0.536730	17.561905	-72.590815	156.069253			
10190	9.173156	0.226107	2.225775	-0.412632	0.702085	-0.405846	18.311807	-72.501627	155.318478			
10191	9.196467	0.313932	2.396135	-0.266688	0.643246	-0.329545	19.037049	-72.387106	154.555142			
10192	9.091283	0.297392	2.097445	-0.523103	0.713832	-0.519904	19.716564	-72.257740	153.845583			
10193	9.030654	0.290309	2.241714	-0.371152	0.737132	-0.540090	20.315309	-72.141569	153.210087			
10194	9.077958	0.235224	2.337689	-0.288265	0.820430	-0.476030	20.769610	-72.046184	152.704132			
10195	9.100000	0.191147	2.445752	-0.188392	0.880665	-0.430942	21.062764	-71.968573	152.347292			
10196	9.108521	-0.057244	2.299086	-0.301500	1.154963	-0.494459	21.196457	-71.913867	152.156329			
10197	9.156576	-0.351134	2.145403	-0.424952	1.473660	-0.527394	21.248187	-71.885989	152.066991			
10198	9.350062	-0.635141	2.028078	-0.552430	1.794743	-0.409822	21.249119	-71.890972	152.039073			
10199	9.812421	-0.791474	1.888259	-0.788423	2.028291	-0.028007	21.238088	-71.920239	152.024835			
10200	10.220237	-0.816397	2.272524	-0.522799	2.070242	0.469573	21.187370	-71.985237	152.007751			
10201	10.766432	-0.578643	2.488493	-0.482715	1.884936	1.080312	21.115574	-72.090460	151.964848			
10202	11.475379	-0.232827	2.488382	-0.701894	1.631553	1.796615	20.955246	-72.209825	151.946279			
10203	11.966797	0.089534	2.815549	-0.551034	1.331071	2.396494	20.643849	-72.286010	151.980968			
10204	12.214717	0.454176	2.965394	-0.522394	0.964886	2.717084	20.164813	-72.330015	152.138077			
10205	12.251945	0.923551	3.225631	-0.357591	0.444930	2.877538	19.568242	-72.384774	152.386482			
10206	12.156334	0.866118	3.276312	-0.280153	0.437825	2.796454	18.843680	-72.459000	152.710528			
10207	11.962915	0.251419	3.099269	-0.300144	0.988804	2.504455	18.100729	-72.544081	153.060644			
10208	11.415098	0.061544	3.501390	0.265092	0.996017	2.082918	17.410863	-72.678497	153.438035			
10209	10.894459	0.491564	3.751241	0.585696	0.418681	1.697485	16.853254	-72.901826	153.846292			
10210	10.582974	1.533769	3.375521	0.169297	-0.640357	1.381365	16.467606	-73.236708	154.315181			
10211	10.657876	2.907290	2.835056	-0.532050	-1.953399	1.411418	16.202875	-73.694362	154.807948			
10212	10.462483	3.905103	2.179459	-1.187608	-2.923043	1.119279	15.867825	-74.167909	155.399674			
10213	9.673433	4.843291	2.097884	-1.138716	-3.982188	0.399004	15.412284	-74.593878	156.067994			
10214	8.881804	5.868205	2.322380	-0.826329	-5.162283	-0.253232	14.748289	-74.985999	156.792577			
10215	9.209166	6.433835	2.606518	-0.678470	-5.782295	0.142271	13.799022	-75.358871	157.539551			
10216	9.689874	5.900014	3.015299	-0.308966	-5.335957	0.638500	12.409472	-75.656203	158.437122			
10217	10.114634	4.203177	3.091716	-0.079792	-3.718277	0.943635	10.695854	-75.836427	159.458835			
10218	10.297049	2.357410	3.328139	0.388219	-2.015433	1.070764	8.744279	-75.898876	160.628463			
10219	10.460302	0.495022	3.736450	1.049775	-0.344047	1.250884	6.708685	-75.875968	161.868157			
10220	10.548956	-1.532483	4.288818	1.929661	1.438638	1.422464	4.735180	-75.797122	163.155709			
10221	10.978318	-3.450788	4.558014	2.461029	3.189620	1.890972	2.985127	-75.640589	164.448529			
10222	10.952546	-4.553445	4.130808	2.258328	4.276324	1.779035	1.569775	-75.397481	165.733491			
10223	10.531368	-4.378628	3.191964	1.362920	4.235809	1.163212	0.600849	-75.090160	166.923098			
10224	10.225359	-3.103958	2.508251	0.426998	3.096737	0.709239	-0.038458	-74.736049	168.023287			
10225	9.669755	-1.466554	2.489948	0.122509	1.459956	0.172688	-0.473638	-74.356065	168.996931			
10226	9.341381	0.192891	2.752169	0.055334	-0.240698	-0.075557	-0.906759	-74.002445	169.917094			
10227	9.093907	1.342214	2.698580	-0.200434	-1.381411	-0.334590	-1.355811	-73.672362	170.755376			
10228	8.582506	2.057695	2.654929	-0.276779	-2.114155	-0.846321	-1.850184	-73.330848	171.540367			
10229	8.086614	2.212500	2.877739	0.000802	-2.340913	-1.263432	-2.381421	-72.981814	172.248971			
10230	7.555505	1.886144	3.022611	0.300657	-2.082013	-1.728506	-2.982128	-72.635137	172.927698			
10231	7.229987	1.406825	3.064119	0.471488	-1.647819	-2.021483	-3.617993	-72.304240	173.578703			
10232	6.871275	0.652176	3.157077	0.751756	-0.953494	-2.320531	-4.274862	-71.996847	174.216996			
10233	6.983302	-0.103035	3.159506	0.809788	-0.228739	-2.193542	-4.914869	-71.747980	174.841262			
10234	7.278782	-0.689772	3.264295	0.883590	0.315298	-1.860845	-5.563400	-71.560190	175.497134			
10235	7.643090	-1.035208	3.333220	0.865486	0.627183	-1.478643	-6.189649	-71.414979	176.165098			
10236	7.803089	-1.200811	3.377666	0.861831	0.760781	-1.302860	-6.760706	-71.301099	176.826910			
10237	7.961547	-1.134779	3.454759	0.853869	0.663137	-1.127043	-7.250176	-71.213556	177.451092			
10238	8.240826	-0.930607	3.439178	0.700475	0.449584	-0.873316	-7.640669	-71.133587	178.020505			
10239	8.391957	-0.780523	3.509815	0.678081	0.277578	-0.712353	-7.923909	-71.040753	178.496574			
10240	8.549386	-0.659300	3.556147	0.634134	0.141662	-0.552524	-8.131455	-70.935208	178.902398			
10241	8.597149	-0.678451	3.460926	0.514668	0.169721	-0.536074	-8.261102	-70.826663	179.225864			
10242	8.678330	-0.793341	3.268310	0.307768	0.309823	-0.515703	-8.331867	-70.728991	179.494103			
10243	8.599759	-0.799032	3.013978	0.083677	0.352813	-0.672289	-8.349019	-70.671354	179.715322			
10244	8.549214	-1.042157	3.016964	0.130258	0.590913	-0.707135	-8.405885	-70.655778	179.940247			
10245	8.409563	-1.243318	3.007470	0.194601	0.787825	-0.831990	-8.503482	-70.681335	-179.827207			
10246	8.315655	-1.555692	2.935173	0.205731	1.101265	-0.928408	-8.659149	-70.747073	-179.559362			
10247	8.152219	-1.803753	2.897196	0.267092	1.344561	-1.081895	-8.850931	-70.835374	-179.274387			
10248	7.912866	-2.063227	2.924005	0.415954	1.588323	-1.284830	-9.096623	-70.919915	-178.962269			
10249	7.648778	-2.411751	2.875516	0.512794	1.931276	-1.530409	-9.338112	-71.009603	-178.622802			
10250	7.514263	-2.492940	3.070380	0.758725	1.974886	-1.588924	-9.609254	-71.097508	-178.249441			
10251	7.340371	-2.874406	2.974104	0.780758	2.357944	-1.761659	-9.860403	-71.174590	-177.871798			
10252	7.323137	-2.945496	3.047728	0.869818	2.409836	-1.748629	-10.106963	-71.266020	-177.457817			
10253	7.356529	-2.993870	3.125798	0.945354	2.439179	-1.688090	-10.360338	-71.374261	-177.036465			
10254	7.427888	-3.119062	3.170954	0.989128	2.548588	-1.597863	-10.610054	-71.502055	-176.605190			
10255	7.509391	-3.263640	3.221797	1.039490	2.678819	-1.496099	-10.808481	-71.659771	-176.186512			
10256	7.719610	-3.117030	3.408197	1.147435	2.503739	-1.248885	-10.966708	-71.848399	-175.766704			
10257	7.938922	-2.844873	3.618380	1.267071	2.205249	-0.995441	-11.083873	-72.054632	-175.347200			
10258	8.300784	-2.432667	3.736585	1.245908	1.777926	-0.643740	-11.168780	-72.251774	-174.914605			
10259	8.655420	-1.976698	3.574969	0.961556	1.341025	-0.385012	-11.173528	-72.432479	-174.509198			
10260	9.093628	-1.491025	3.556300	0.787331	0.857642	-0.004068	-11.108362	-72.576143	-174.141961			
10261	9.539066	-1.079053	3.545035	0.627872	0.449089	0.391697	-10.950213	-72.702967	-173.850548			
10262	10.064494	-0.897207	3.637315	0.562000	0.262023	0.908531	-10.651182	-72.791409	-173.687138			
10263	10.480755	-0.751739	4.107056	0.888820	0.093042	1.433668	-10.244819	-72.857193	-173.656635			
10264	10.800992	-0.656874	5.113034	1.756681	-0.051813	2.025696	-9.840145	-72.896255	-173.693467			
10265	11.499293	-0.141218	5.766082	2.157584	-0.593157	2.855945	-9.468538	-72.947695	-173.629839			
10266	13.226102	0.865637	5.005635	0.895184	-1.568852	4.239810	-9.045771	-72.958842	-173.403154			
10267	15.329160	1.307768	4.035674	-0.654653	-1.999794	5.952853	-8.546456	-72.864653	-173.169361			
10268	17.160769	1.984781	4.355949	-0.918149	-2.721063	7.770210	-8.006072	-72.690712	-173.075505			
10269	16.468352	2.472094	3.994810	-1.120452	-3.141041	6.984758	-7.390046	-72.347241	-173.215095			
10270	14.332163	3.358453	3.639234	-0.910979	-3.917605	4.807701	-6.878688	-71.890119	-173.391952			
10271	12.780343	3.750534	3.217593	-0.929119	-4.238332	3.184586	-6.731736	-71.486787	-173.564518			
10272	12.857381	4.119712	2.726792	-1.502448	-4.609929	3.079574	-6.929650	-71.277045	-173.714053			
10273	12.152839	4.061586	3.971347	-0.191523	-4.570732	2.798025	-7.349856	-70.967172	-173.950491			
10274	9.902791	2.822364	3.369612	-0.126127	-3.261611	0.518343	-7.418016	-70.502959	-174.432431			
10275	7.924875	0.510333	3.226525	0.358505	-0.892981	-1.295170	-7.404206	-70.048398	-175.030198			
10276	6.343525	-2.297737	3.481160	1.180820	1.933765	-2.566688	-7.378664	-69.684826	-175.593205			
10277	5.163924	-3.514498	3.424588	1.573800	3.176580	-3.633844	-7.080663	-69.492661	-176.190358			
10278	4.772132	-3.753413	2.527647	0.883262	3.487511	-4.307468	-6.541040	-69.470927	-176.810897			
10279	5.561196	-3.337558	2.747727	0.795263	3.067017	-3.521657	-5.802105	-69.575353	-177.383065			
10280	7.571693	-1.926946	2.395694	-0.291198	1.681816	-1.820846	-4.998771	-69.835332	-177.751272			
10281	9.703249	-0.217064	1.908021	-1.519659	0.004075	-0.038689	-4.281399	-70.130338	-177.889862			
10282	10.739182	1.366547	1.789714	-1.980770	-1.561737	0.866157	-3.676222	-70.384293	-177.891415			
10283	11.693111	2.793165	1.503539	-2.535747	-2.973095	1.655592	-3.127912	-70.629613	-177.883715			
10284	12.521377	3.926246	1.547280	-2.714774	-4.099683	2.451754	-2.632492	-70.828650	-177.995622			
10285	12.343520	4.496999	1.951748	-2.226583	-4.648148	2.427886	-2.116472	-70.950344	-178.319549			
10286	11.057648	4.160828	2.226372	-1.522131	-4.269626	1.322576	-1.577826	-71.009514	-178.851151			
10287	9.572219	3.206352	2.257320	-1.001657	-3.271367	-0.050603	-1.029923	-71.040941	-179.539318			
10288	8.681861	1.915669	2.599317	-0.382257	-1.951620	-0.765813	-0.526963	-71.068719	179.717947			
10289	8.265010	0.917478	2.716882	-0.124450	-0.930037	-1.114808	-0.057897	-71.099914	178.977458			
10290	7.979754	0.179675	2.911982	0.169412	-0.177337	-1.319853	0.316955	-71.144602	178.315607			
10291	7.896438	-0.443070	2.922302	0.230575	0.459786	-1.396911	0.643521	-71.211665	177.721019			
10292	7.931408	-0.611721	2.861494	0.181892	0.643444	-1.385206	0.934766	-71.310937	177.206208			
10293	7.868076	-0.596908	2.791247	0.155365	0.641582	-1.468937	1.207942	-71.442883	176.721682			
10294	7.902959	-0.623941	2.457336	-0.145599	0.691988	-1.543198	1.508422	-71.621006	176.254525			
10295	8.074743	-0.282481	2.543678	-0.101215	0.364075	-1.350496	1.822902	-71.823352	175.798455			
10296	8.177737	-0.131936	2.263764	-0.372030	0.238761	-1.337907	2.115777	-72.050806	175.362314			
10297	8.602519	0.172019	2.047667	-0.685328	-0.032151	-0.994806	2.458108	-72.287996	174.879315			
10298	8.841171	0.188454	2.028617	-0.741058	-0.025992	-0.770168	2.803731	-72.492145	174.347225			
10299	8.899543	0.054624	1.990229	-0.757000	0.128939	-0.725549	3.209405	-72.657865	173.739392			
10300	8.797521	0.113591	2.037652	-0.658974	0.085383	-0.806041	3.699338	-72.787807	173.063102			
10301	8.792903	-0.104707	2.211657	-0.457957	0.317684	-0.762449	4.211123	-72.874889	172.327494			
10302	8.542846	-0.254814	2.211827	-0.358146	0.482645	-1.004962	4.810649	-72.946772	171.564581			
10303	8.608494	-0.217402	2.359504	-0.222144	0.466682	-0.899019	5.434089	-73.017084	170.783607			
10304	8.764285	-0.359695	2.313389	-0.284816	0.645496	-0.768575	6.046290	-73.077895	170.024666			
10305	9.141527	-0.260207	2.228045	-0.466142	0.598169	-0.430564	6.650859	-73.129824	169.306958			
10306	9.126665	-0.118768	2.377951	-0.316685	0.473486	-0.397794	7.194376	-73.157095	168.655023			
10307	9.170572	-0.101165	2.369117	-0.327819	0.484132	-0.358565	7.729913	-73.191079	168.017008			
10308	9.188308	-0.230544	2.468025	-0.217252	0.630614	-0.319301	8.200041	-73.213573	167.436112			
10309	9.152047	-0.411078	2.442953	-0.205845	0.831261	-0.370042	8.663799	-73.239756	166.882998			
10310	9.063984	-0.507405	2.554806	-0.055122	0.933063	-0.428306	9.078856	-73.271884	166.379099			
10311	8.953336	-0.700475	2.387710	-0.156055	1.146715	-0.592345	9.466970	-73.302277	165.899821			
10312	8.909847	-0.768025	2.230900	-0.276067	1.236916	-0.683287	9.800942	-73.344854	165.467255			
10313	8.994647	-0.845448	2.101029	-0.403527	1.342994	-0.643921	10.125432	-73.392712	165.042773			
10314	8.980381	-0.834047	1.960332	-0.522385	1.353372	-0.697795	10.406252	-73.429716	164.647873			
10315	8.995103	-0.897721	1.813283	-0.649309	1.441489	-0.729391	10.701616	-73.461184	164.234527			
10316	9.071291	-0.789896	1.794117	-0.688943	1.354671	-0.657289	10.977929	-73.471021	163.830975			
10317	9.142041	-0.638376	1.895910	-0.622089	1.216693	-0.554634	11.265818	-73.421279	163.419808			
10318	9.257875	-0.363637	1.949098	-0.636423	0.967036	-0.415920	11.569373	-73.313287	163.001657			
10319	9.469647	-0.292990	1.638610	-1.012725	0.963304	-0.299988	11.922277	-73.160026	162.557819			
10320	9.547631	-0.420548	1.303799	-1.359506	1.151716	-0.333278	12.313008	-72.986395	162.091503			
10321	9.616858	-0.606947	0.902587	-1.759899	1.406197	-0.400340	12.706964	-72.826694	161.602811			
10322	9.762277	-0.754855	1.023307	-1.684364	1.584284	-0.243366	13.023669	-72.683832	161.149688			
10323	9.931386	-1.047312	1.276111	-1.470704	1.893163	-0.034617	13.243474	-72.557516	160.765114			
10324	10.103015	-1.243733	1.554516	-1.239470	2.098223	0.192084	13.384987	-72.479277	160.467635			
10325	10.332855	-1.330579	1.657984	-1.197362	2.210439	0.432678	13.489964	-72.449801	160.243240			
10326	10.638338	-1.224422	1.929003	-1.035433	2.118398	0.809683	13.567030	-72.452569	160.080241			
10327	10.942299	-0.896042	1.781025	-1.295307	1.844163	1.079057	13.680064	-72.478789	159.932348			
10328	11.208215	-0.256215	1.728512	-1.490794	1.248698	1.362990	13.815523	-72.500296	159.798432			
10329	11.472847	0.329004	2.154427	-1.227304	0.662807	1.781727	13.908973	-72.493106	159.660394			
10330	11.664582	0.625478	2.564254	-0.931055	0.353671	2.105246	13.850535	-72.456153	159.599889			
10331	11.700404	0.479269	2.688265	-0.815206	0.487305	2.164535	13.646713	-72.408922	159.671566			
10332	11.239761	0.424568	2.881925	-0.503157	0.461422	1.778339	13.338213	-72.407249	159.899111			
10333	10.832895	0.507237	2.267892	-0.980051	0.381260	1.216652	13.056174	-72.491566	160.176759			
10334	10.758559	1.130961	2.838401	-0.487058	-0.324065	1.356014	12.745127	-72.573343	160.491344			
10335	11.030334	1.876208	3.951672	0.404436	-1.175894	1.988065	12.271853	-72.630240	160.875027			
10336	11.581569	2.574055	4.009907	0.216189	-1.856847	2.570490	11.653167	-72.716092	161.417069			
10337	11.612516	3.314122	4.294082	0.386718	-2.666995	2.717691	10.857986	-72.833325	162.133721			
10338	10.750669	3.036592	4.114596	0.503838	-2.510005	1.813720	9.959925	-72.988538	162.969494			
10339	9.713470	3.471966	4.044332	0.695748	-3.077738	0.808319	9.213889	-73.239271	163.766844			
10340	9.167371	4.254857	3.755625	0.520630	-3.912331	0.220823	8.656376	-73.595163	164.432004			
10341	8.651243	4.947944	3.380559	0.281862	-4.636756	-0.369445	8.242149	-74.025226	164.922138			
10342	8.941159	4.820351	2.897704	-0.172842	-4.473600	-0.245381	7.853425	-74.483981	165.244381			
10343	9.585524	4.245119	2.747360	-0.353834	-3.879860	0.300297	7.390992	-74.903515	165.453502			
10344	10.332807	2.826460	2.760209	-0.305147	-2.466097	0.966902	6.794945	-75.222640	165.634853			
10345	10.916818	1.316979	3.107760	0.115604	-1.017806	1.568000	6.167256	-75.408209	165.802764			
10346	11.078451	-0.039910	3.284331	0.449726	0.270575	1.730488	5.447374	-75.444969	166.070531			
10347	10.858005	-1.177281	3.527462	0.898238	1.306901	1.554381	4.635414	-75.355249	166.509128			
10348	10.536000	-1.932470	3.701343	1.237169	1.967351	1.279670	3.751514	-75.204451	167.132685			
10349	10.504065	-2.110137	3.686450	1.222449	2.104195	1.253281	2.844014	-75.009654	167.931747			
10350	10.356408	-1.779786	3.575385	1.046709	1.753329	1.097676	1.970101	-74.732564	168.880639			
10351	9.546786	-1.126461	3.372176	0.894448	1.073364	0.278352	1.231517	-74.434304	169.855827			
10352	9.129337	-0.274181	3.153097	0.605995	0.226396	-0.171979	0.631887	-74.156786	170.791328			
10353	8.579052	0.385761	3.233561	0.683079	-0.475332	-0.674190	0.096917	-73.869027	171.630103			
10354	8.130027	0.525473	3.099150	0.614758	-0.625212	-1.140362	-0.384093	-73.591804	172.364073			
10355	7.678669	0.504951	2.982181	0.594876	-0.616467	-1.604379	-0.790144	-73.344755	172.987007			
10356	7.537981	0.354682	3.040507	0.678735	-0.490102	-1.720057	-1.178744	-73.141079	173.537813			
10357	7.608231	0.130450	2.914219	0.540727	-0.259921	-1.686504	-1.548779	-72.961273	174.031025			
10358	7.447921	-0.173935	2.953150	0.638682	0.020558	-1.824291	-1.918902	-72.801001	174.492987			
10359	7.448124	-0.536679	3.012344	0.719807	0.360765	-1.800917	-2.296134	-72.681121	174.944569			
10360	7.602371	-0.804163	3.143109	0.815916	0.599720	-1.609246	-2.709250	-72.611083	175.441868			
10361	7.610774	-1.072002	3.135462	0.829368	0.851633	-1.597395	-3.112364	-72.580434	175.965331			
10362	7.868781	-1.392703	3.212487	0.858158	1.151484	-1.320630	-3.491032	-72.584292	176.523114			
10363	8.297692	-1.479952	3.253342	0.775087	1.227897	-0.895418	-3.838557	-72.604552	177.122850			
10364	8.472276	-1.357119	3.257801	0.708445	1.095353	-0.727932	-4.182298	-72.611249	177.776924			
10365	8.761173	-1.067364	3.276296	0.602661	0.796708	-0.451407	-4.507930	-72.612217	178.462284			
10366	8.796267	-0.748671	3.140135	0.425767	0.482013	-0.464872	-4.816582	-72.610399	179.149084			
10367	8.792159	-0.480831	3.063921	0.326480	0.211904	-0.497680	-5.073302	-72.609932	179.790777			
10368	8.794446	-0.142616	3.162168	0.388886	-0.142774	-0.475112	-5.274792	-72.608638	-179.634383			
10369	8.788095	0.160549	3.314409	0.510657	-0.462735	-0.444294	-5.390298	-72.584355	-179.201168			
10370	8.452733	0.008553	2.857372	0.182576	-0.273260	-0.896112	-5.351993	-72.517475	-178.958698			
10371	8.088828	-0.026016	2.431621	-0.116481	-0.197490	-1.369346	-5.083912	-72.492781	-178.883899			
10372	8.139305	-0.209221	2.456301	-0.095349	-0.005251	-1.308785	-4.803230	-72.525625	-178.886724			
10373	8.176635	-0.666717	2.795941	0.249024	0.440854	-1.160360	-4.568149	-72.564884	-178.945753			
10374	8.123231	-0.971665	3.118643	0.592823	0.737458	-1.108570	-4.316984	-72.586695	-179.058493			
10375	7.990539	-1.297612	2.913443	0.453595	1.091711	-1.290772	-3.918936	-72.577139	-179.282717			
10376	8.009984	-1.318545	2.727711	0.267441	1.145613	-1.330070	-3.345181	-72.582154	-179.592784			
10377	8.356614	-1.305842	2.951267	0.371700	1.150029	-0.936461	-2.684677	-72.578693	179.975178			
10378	8.355234	-1.570061	2.872552	0.302088	1.450414	-0.962178	-1.973600	-72.547412	179.472199			
10379	8.440323	-1.443869	2.809237	0.205112	1.363023	-0.906757	-1.189311	-72.559543	178.934756			
10380	8.721682	-1.280266	3.086595	0.377591	1.226248	-0.561335	-0.492382	-72.575868	178.424280			
10381	8.695377	-1.364484	3.114562	0.413665	1.343777	-0.582577	0.190520	-72.573794	177.937914			
10382	8.647411	-1.188164	3.035356	0.344615	1.203973	-0.656574	0.899355	-72.589654	177.490334			
10383	8.654857	-1.025491	2.932480	0.241092	1.078285	-0.683793	1.574180	-72.633207	177.091648			
10384	8.808593	-0.978001	2.942355	0.209855	1.063299	-0.537423	2.156215	-72.707128	176.777753			
10385	9.002420	-1.126165	3.063531	0.280017	1.238786	-0.321429	2.629506	-72.780398	176.536078			
10386	9.205493	-1.309631	2.985268	0.156719	1.447779	-0.156218	3.011320	-72.858515	176.418713			
10387	9.418478	-1.392828	2.872307	-0.006570	1.552720	0.010084	3.321180	-72.922556	176.399568			
10388	9.575192	-1.522646	2.851492	-0.069391	1.698264	0.149483	3.557000	-72.969766	176.482122			
10389	9.628796	-1.664064	2.674029	-0.256365	1.850490	0.144381	3.785188	-73.013852	176.636474			
10390	9.651749	-1.748604	2.530234	-0.406054	1.942108	0.121058	3.994012	-73.055454	176.853543			
10391	9.621579	-1.877070	2.299469	-0.627359	2.072324	0.020807	4.193291	-73.088740	177.095506			
10392	9.593687	-2.170100	2.163028	-0.765545	2.364537	-0.053090	4.350622	-73.129314	177.379033			
10393	9.695023	-2.640737	2.095430	-0.884615	2.834068	0.012957	4.444650	-73.165507	177.704444			
10394	9.792456	-2.984587	2.280971	-0.763420	3.182923	0.151697	4.485003	-73.195054	178.090839			
10395	9.659056	-3.582887	2.703038	-0.371903	3.797494	0.131230	4.559800	-73.185822	178.499418			
10396	9.842045	-3.477816	3.678596	0.473128	3.756771	0.587107	4.814332	-73.171357	178.928078			
10397	11.006397	-2.939974	3.804501	0.240490	3.260092	1.744653	5.284152	-73.169552	179.389134			
10398	12.654879	-2.023070	4.891837	0.811648	2.478514	3.654550	5.742299	-73.061164	179.938801			
10399	13.409181	-1.593639	4.374885	0.060555	2.044121	4.233752	6.308810	-72.850344	-179.481520			
10400	13.907491	0.048937	3.142163	-1.141757	0.299572	4.396472	7.009819	-72.659833	-178.943218			
10401	13.160193	1.578919	1.997451	-1.833105	-1.357103	3.396076	7.434770	-72.473492	-178.476261			
10402	11.945412	3.899752	2.592974	-0.566874	-3.545498	2.505289	7.602241	-72.374070	-178.167216			
10403	12.676673	6.740527	4.964811	1.903718	-5.960034	4.030574	7.715340	-72.390082	-178.104632			
10404	14.841408	9.200514	4.801107	1.504829	-8.415473	6.152359	7.968122	-72.329216	-178.175537			
10405	16.176979	10.405635	3.884164	0.398323	-9.740813	7.217164	8.365579	-71.958650	-178.387141			
10406	15.241510	8.396090	3.739324	0.088752	-7.748119	6.210315	8.715076	-71.328332	-178.714086			
10407	12.151946	4.493426	2.936753	-0.489996	-3.998125	2.846606	8.981695	-70.614101	-179.113944			
10408	8.955791	2.163704	2.615501	-0.252087	-1.727556	-0.395715	9.154841	-69.917351	-179.552353			
10409	6.178709	0.873940	3.012167	0.761719	-0.376711	-2.935871	9.291511	-69.217496	-179.987016			
10410	4.378575	0.121784	3.667923	1.819927	0.471550	-4.417726	9.430259	-68.587621	179.679989			
10411	4.160351	-0.283087	4.356248	2.424052	0.981250	-4.378857	9.568292	-68.159642	179.517933			
10412	5.361775	-0.127276	4.562015	2.160147	0.874040	-3.168398	9.786096	-68.042693	179.515297			
10413	7.434624	0.994164	4.254296	1.272128	-0.257799	-1.287654	9.996881	-68.159752	179.656964			
10414	8.487696	1.855822	3.558710	0.408884	-1.206281	-0.510698	10.160161	-68.380359	179.880215			
10415	8.946335	2.887393	3.048407	-0.006421	-2.298537	-0.201076	10.352985	-68.680781	-179.969325			
10416	9.430691	3.705321	2.613280	-0.375713	-3.168485	0.153037	10.611238	-69.027863	-179.985913			
10417	10.132313	4.306717	2.305601	-0.734956	-3.799242	0.749157	10.922027	-69.369406	179.806476			
10418	10.566664	4.308868	2.109409	-1.011292	-3.819669	1.098663	11.151955	-69.637054	179.502498			
10419	10.465239	3.518977	2.217836	-0.981993	-3.009110	0.994909	11.282635	-69.786418	179.144733			
10420	9.633997	2.400511	2.290545	-0.810979	-1.890691	0.166819	11.328116	-69.824397	178.765734			
10421	8.717303	1.308978	2.551707	-0.437742	-0.770470	-0.678643	11.370976	-69.808005	178.327046			
10422	8.037375	0.304408	2.738157	-0.193870	0.247600	-1.322064	11.364953	-69.765794	177.900039			
10423	7.170341	-0.389218	2.942762	0.190300	0.952762	-2.113261	11.291346	-69.716125	177.521685			
10424	6.607287	-0.578807	2.791001	0.224051	1.104321	-2.705563	11.277098	-69.748142	177.121922			
10425	6.669489	-0.153966	2.886410	0.361837	0.698418	-2.586456	11.340299	-69.834859	176.698901			
10426	6.582566	0.303539	2.948394	0.522266	0.253175	-2.616962	11.445740	-69.927528	176.277389			
10427	7.104607	0.614476	2.971988	0.419265	-0.037675	-2.098512	11.590572	-70.060611	175.836632			
10428	7.852082	0.821091	2.817443	0.065619	-0.241310	-1.433858	11.703592	-70.224651	175.440366			
10429	8.512478	0.713008	2.679395	-0.274880	-0.130858	-0.865225	11.772060	-70.379108	175.066241			
10430	8.604584	0.807765	2.923556	-0.043579	-0.189788	-0.691253	11.834387	-70.530089	174.695146			
10431	8.953057	0.978059	3.092665	0.042394	-0.326641	-0.295868	11.909212	-70.709309	174.272137			
10432	9.446115	0.960853	3.108414	-0.081915	-0.289911	0.173492	11.985097	-70.841451	173.811104			
10433	9.495290	0.730196	3.186872	-0.027995	-0.046874	0.229568	12.087509	-70.908903	173.320835			
10434	9.241835	0.303249	3.050390	-0.098769	0.359876	-0.082884	12.213443	-70.947373	172.822497			
10435	8.948064	-0.045529	3.115447	0.040215	0.708757	-0.364303	12.384560	-70.963523	172.295162			
10436	8.886136	-0.437058	3.273117	0.191100	1.118513	-0.400986	12.590474	-70.976511	171.738414			
10437	8.897335	-0.674882	3.260181	0.171322	1.366476	-0.413209	12.876135	-70.984351	171.131270			
10438	9.005261	-0.665370	3.203452	0.096391	1.373802	-0.330975	13.235196	-71.008475	170.489196			
10439	8.990274	-0.537130	3.182750	0.102509	1.263061	-0.344976	13.642539	-71.031751	169.817668			
10440	9.177975	-0.485091	3.116123	-0.003976	1.237829	-0.187280	14.041951	-71.054117	169.122350			
10441	9.300809	-0.532379	2.829739	-0.299940	1.296288	-0.167715	14.482463	-71.092501	168.393955			
10442	9.282813	-0.306101	2.911080	-0.189761	1.099549	-0.143479	14.987973	-71.146537	167.632795			
10443	9.426715	-0.236151	2.895849	-0.227226	1.064708	-0.008640	15.468840	-71.198026	166.873560			
10444	9.412738	0.014374	2.637994	-0.441062	0.826912	-0.082300	15.991815	-71.252226	166.112323			
10445	9.420011	0.256810	2.771957	-0.291500	0.621384	-0.013957	16.564461	-71.302262	165.329031			
10446	9.344796	0.355972	2.897896	-0.127478	0.551661	-0.038791	17.157841	-71.357426	164.532922			
10447	9.116203	0.403888	2.700729	-0.224270	0.506313	-0.312400	17.795221	-71.409086	163.714194			
10448	9.024628	0.517698	2.537222	-0.331596	0.409377	-0.438693	18.448826	-71.457463	162.890089			
10449	9.004353	0.462951	2.390168	-0.446745	0.488001	-0.508507	19.103134	-71.505915	162.058335			
10450	9.005482	0.332302	2.086490	-0.718882	0.638435	-0.612792	19.718303	-71.537133	161.244549			
10451	8.974482	0.084561	1.775399	-0.989662	0.902471	-0.762464	20.293138	-71.555994	160.442065			
10452	8.847058	-0.322163	1.563837	-1.135696	1.316805	-0.992486	20.806218	-71.563165	159.656516			
10453	8.905091	-0.702874	1.603517	-1.094255	1.730178	-0.971027	21.238386	-71.565403	158.903479			
10454	9.031140	-1.043352	1.531936	-1.176427	2.106073	-0.914525	21.590511	-71.560670	158.215340			
10455	9.169307	-1.073794	1.619114	-1.115714	2.176212	-0.764485	21.870916	-71.541909	157.595791			
10456	9.364689	-1.065354	1.959987	-0.833624	2.212898	-0.480911	22.051646	-71.503278	157.068441			
10457	9.335618	-1.017879	2.410822	-0.386498	2.177670	-0.372864	22.164432	-71.446612	156.612849			
10458	9.177268	-0.887983	2.705077	-0.059034	2.038042	-0.422741	22.249368	-71.382332	156.216506			
10459	9.146748	-0.788418	2.734801	-0.023288	1.944296	-0.432767	22.361169	-71.323707	155.852564			
10460	9.228823	-0.744058	2.396893	-0.369446	1.924644	-0.451644	22.499230	-71.283061	155.534723			
10461	9.380499	-0.814169	2.174753	-0.617090	2.028166	-0.384436	22.670890	-71.270003	155.228755			
10462	9.747034	-0.848278	2.190664	-0.695466	2.120288	-0.038029	22.860815	-71.311114	154.905726			
10463	10.510318	-0.870926	2.484841	-0.615109	2.248140	0.768768	23.036604	-71.382102	154.567777			
10464	11.263891	-0.841173	3.151841	-0.170786	2.309253	1.683183	23.113167	-71.471620	154.227886			
10465	11.896604	-0.839669	2.976275	-0.493384	2.396747	2.233249	23.106145	-71.534402	153.947846			
10466	12.179600	-0.704973	3.731803	0.152017	2.271241	2.740573	22.885766	-71.514507	153.831115			
10467	11.936117	-0.450993	4.361134	0.802589	1.943154	2.728194	22.489552	-71.497265	153.881772			
10468	11.682888	0.153661	4.401210	0.863978	1.276518	2.577150	22.074543	-71.560037	154.063072			
10469	11.291546	0.248676	4.194217	0.778344	1.104877	2.159181	21.728101	-71.671548	154.292101			
10470	10.804780	0.605415	4.264955	0.969937	0.653029	1.760227	21.502080	-71.822211	154.537793			
10471	10.619911	1.184734	3.933447	0.683604	0.047594	1.553420	21.396407	-72.033184	154.788508			
10472	10.658484	2.032340	3.342689	0.082462	-0.782135	1.513761	21.383508	-72.319055	155.091564			
10473	11.002679	3.323378	2.711680	-0.649753	-2.019287	1.804399	21.381654	-72.666124	155.510657			
10474	10.796374	4.854621	2.270659	-1.034070	-3.587338	1.647925	21.291745	-73.057749	156.085492			
10475	10.436601	6.195936	1.631648	-1.521936	-4.991415	1.266235	21.216767	-73.512322	156.667770			
10476	10.035376	7.529962	1.289128	-1.688296	-6.406835	0.919107	21.145235	-74.007668	157.150722			
10477	10.047151	8.292817	1.182623	-1.713155	-7.214346	0.963765	20.877916	-74.512452	157.521831			
10478	10.901953	7.954056	1.444134	-1.590062	-6.851527	1.794761	20.168624	-74.961654	157.939428			
10479	10.977607	6.527766	2.011699	-0.985729	-5.502189	1.845797	19.029389	-75.275297	158.455055			
10480	9.905708	4.440513	3.195970	0.500354	-3.641484	0.889829	17.573256	-75.501031	159.036223			
10481	9.941715	2.271776	3.986373	1.381612	-1.616944	0.928142	15.933266	-75.741696	159.686794			
10482	10.069489	0.044426	4.632289	2.166936	0.451620	1.047973	14.246633	-75.928562	160.469662			
10483	10.367173	-1.874149	4.609031	2.285923	2.272948	1.225481	12.672970	-76.065102	161.358544			
10484	10.540418	-3.491687	4.206856	2.051469	3.841218	1.233848	11.303484	-76.084409	162.352809			
10485	10.324641	-4.032931	3.401354	1.373925	4.387988	0.831072	10.269098	-76.003632	163.367035			
10486	10.397550	-3.509241	2.420313	0.305843	3.940913	0.706678	9.443437	-75.849330	164.452688			
10487	10.276902	-2.691864	1.762865	-0.458221	3.161949	0.471286	8.734588	-75.598502	165.597982			
10488	9.884049	-1.475008	1.961000	-0.375273	1.889765	0.187464	8.077853	-75.282365	166.744640			
10489	9.313905	-0.120295	2.279680	-0.127354	0.465521	-0.235271	7.417828	-74.934194	167.870553			
10490	8.551665	0.855488	2.374595	0.013189	-0.571268	-0.914668	6.730708	-74.591337	168.966423			
10491	8.165600	1.537488	2.328170	-0.031594	-1.284977	-1.279872	6.045249	-74.292415	170.004928			
10492	7.701885	1.733171	2.392297	0.102238	-1.526175	-1.706752	5.305435	-74.024248	171.018967			
10493	7.322237	1.561800	2.654584	0.435225	-1.408657	-2.007092	4.526494	-73.774343	171.963147			
10494	6.978809	1.178582	2.779817	0.643078	-1.070685	-2.312010	3.697675	-73.553604	172.873548			
10495	6.682560	0.692862	2.943330	0.885455	-0.630807	-2.558875	2.864970	-73.375391	173.747486			
10496	6.657561	0.202574	3.052290	1.005616	-0.174308	-2.557421	2.064332	-73.260256	174.598665			
10497	6.876400	-0.043621	3.183396	1.069117	0.044581	-2.310972	1.316200	-73.199584	175.416391			
10498	7.118388	-0.378402	3.214628	1.040289	0.356659	-2.070659	0.583742	-73.174382	176.227916			
10499	7.639670	-0.516387	3.269228	0.945704	0.475218	-1.554430	-0.100216	-73.181379	177.011219			
10500	8.148955	-0.472827	3.291022	0.817232	0.411949	-1.059274	-0.731794	-73.211491	177.762946			
10501	8.547063	-0.416671	3.258835	0.671891	0.336845	-0.686848	-1.304056	-73.248781	178.478613			
10502	8.730157	-0.348356	3.343287	0.699711	0.242666	-0.487129	-1.816739	-73.270547	179.160330			
10503	8.775171	-0.305828	3.305693	0.650349	0.182654	-0.454887	-2.234354	-73.279245	179.760275			
10504	8.912598	-0.241153	3.152028	0.461276	0.109282	-0.367948	-2.553450	-73.280948	-179.718843			
10505	8.972408	-0.190499	3.037138	0.331445	0.052198	-0.344213	-2.762986	-73.272370	-179.314729			
10506	8.807409	-0.323121	2.852813	0.203424	0.185675	-0.553230	-2.855017	-73.240620	-179.048684			
10507	8.569122	-0.503783	2.687915	0.113811	0.372226	-0.826196	-2.815866	-73.204395	-178.931406			
10508	8.295725	-0.758553	2.509480	0.023473	0.638433	-1.136064	-2.649177	-73.183458	-178.956491			
10509	8.178888	-1.022346	2.531025	0.081976	0.912116	-1.239077	-2.365731	-73.192484	-179.102533			
10510	8.141974	-1.372621	2.529771	0.099335	1.277061	-1.272501	-1.976544	-73.209066	-179.375526			
10511	8.037060	-1.766609	2.426931	0.040019	1.694106	-1.402361	-1.424539	-73.238730	-179.764752			
10512	8.117793	-1.901600	2.383954	-0.019128	1.855684	-1.341921	-0.756085	-73.316640	179.787428			
10513	8.460540	-1.980956	2.511909	0.014254	1.962245	-0.982969	-0.088506	-73.422156	179.322427			
10514	8.632954	-2.092803	2.914280	0.361386	2.098412	-0.709570	0.531730	-73.504272	178.875613			
10515	8.690610	-2.083157	3.252004	0.673449	2.115261	-0.565318	1.145602	-73.542335	178.436487			
10516	8.600524	-1.783846	3.597167	1.026418	1.844620	-0.558798	1.799342	-73.556664	178.017608			
10517	8.529177	-1.410653	3.644378	1.087405	1.505198	-0.616487	2.467570	-73.578602	177.641852			
10518	8.623925	-1.023818	3.437091	0.864282	1.152568	-0.584557	3.088786	-73.658447	177.385334			
10519	9.000127	-0.606821	3.561443	0.890467	0.770006	-0.186239	3.505765	-73.752768	177.282907			
10520	9.145467	-0.479170	3.694026	0.987151	0.665527	-0.009749	3.739312	-73.793002	177.305838			
10521	9.229204	-0.256007	3.443141	0.726754	0.453739	0.003875	3.975121	-73.780438	177.373211			
10522	9.458195	0.013828	2.866029	0.110816	0.187734	0.067810	4.293358	-73.765169	177.423463			
10523	9.887948	0.215080	2.436890	-0.415717	-0.006799	0.364902	4.610411	-73.777339	177.451223			
10524	10.140514	-0.102054	2.496855	-0.436625	0.325662	0.616983	4.790681	-73.793135	177.478172			
10525	10.142340	-0.837197	2.742188	-0.228347	1.075195	0.669649	4.833483	-73.787858	177.507650			
10526	10.055829	-1.487296	3.454403	0.453666	1.752584	0.769717	4.749926	-73.789571	177.590374			
10527	10.317320	-1.942533	3.729415	0.630985	2.214396	1.088109	4.536652	-73.828262	177.799071			
10528	11.202873	-2.188280	4.520940	1.137580	2.487317	2.156062	4.200979	-73.830616	178.145122			
10529	12.471788	-2.115604	5.137635	1.368304	2.433095	3.552353	3.841288	-73.772936	178.636093			
10530	14.243284	-1.428566	4.034541	-0.190799	1.693265	4.961808	3.675190	-73.643049	179.249283			
10531	15.907006	-0.487993	4.163701	-0.552448	0.759630	6.610608	3.710951	-73.396823	179.776671			
10532	16.959360	0.518868	4.947393	-0.139616	-0.182486	7.859661	4.069799	-73.029209	-179.842540			
10533	17.792626	1.968412	5.818025	0.394409	-1.511995	8.945140	4.776314	-72.342858	-179.587252			
10534	17.251854	3.685731	4.241362	-0.995545	-3.284586	8.003492	5.874718	-71.449056	-179.470457			
10535	15.917454	5.691628	1.548502	-3.064401	-5.508152	5.948848	6.925437	-70.689759	-179.607361			
10536	11.899828	4.755333	3.277199	-0.375702	-4.330270	2.679891	6.845893	-70.048633	-179.835170			
10537	6.075684	4.073828	4.379365	2.432277	-3.540472	-2.448113	6.443908	-69.656940	179.795493			
10538	4.715578	5.271473	4.192591	2.770482	-4.798153	-3.737775	6.270442	-69.575914	179.247256			
10539	5.084150	3.790539	2.653623	1.008694	-3.497450	-3.981005	6.243980	-69.315321	178.685796			
10540	3.660184	1.208856	3.326612	1.883078	-0.892000	-5.166958	6.246547	-68.901636	178.156889			
10541	3.138338	-2.294248	4.470580	2.869878	2.668412	-5.369472	6.409404	-68.623716	177.588556			
10542	3.523412	-2.675344	4.037473	2.308956	3.018946	-5.183677	6.936992	-68.650204	176.905753			
10543	5.784255	-1.244766	2.561162	0.218247	1.548650	-3.558046	7.613107	-68.861576	176.211350			
10544	8.539611	0.406857	2.394046	-0.805601	-0.015289	-0.971163	8.295336	-69.034932	175.716169			
10545	10.242901	1.466346	2.798834	-0.938262	-0.962869	0.821833	8.858655	-69.205802	175.391569			
10546	11.533153	2.122532	2.804563	-1.304740	-1.550770	2.073306	9.309306	-69.405561	175.105644			
10547	12.370511	3.105354	2.665811	-1.615699	-2.487426	2.875153	9.779014	-69.580601	174.745361			
10548	12.428746	4.040395	2.584420	-1.615406	-3.391610	2.968746	10.229391	-69.665745	174.293559			
10549	11.592587	4.010474	2.900867	-1.025043	-3.330727	2.301043	10.623915	-69.670080	173.744598			
10550	10.448285	3.228844	2.937401	-0.658703	-2.563044	1.197183	10.975649	-69.625051	173.138416			
10551	9.086412	2.252020	2.905469	-0.297429	-1.624596	-0.150992	11.278949	-69.525719	172.514742			
10552	7.923335	1.171856	2.921852	0.040461	-0.582797	-1.306903	11.499708	-69.399217	171.916234			
10553	7.264542	0.197137	3.120465	0.393793	0.380551	-1.922832	11.682074	-69.284252	171.346783			
10554	7.024213	-0.712497	3.244062	0.551443	1.288932	-2.170324	11.846035	-69.216265	170.835510			
10555	7.012257	-0.901096	3.138535	0.454695	1.475714	-2.233133	12.003802	-69.211861	170.403752			
10556	7.038274	-0.761378	3.025735	0.354131	1.337874	-2.239264	12.199262	-69.260486	170.025390			
10557	7.445216	-0.003931	3.046368	0.266071	0.617075	-1.796454	12.463378	-69.365588	169.654480			
10558	7.886135	0.728564	2.937218	0.046771	-0.080748	-1.366361	12.723776	-69.484873	169.315205			
10559	8.060483	1.353265	2.819028	-0.090503	-0.688458	-1.194832	12.951868	-69.615850	168.995046			
10560	8.380409	1.611777	2.532852	-0.441115	-0.930090	-0.970475	13.168837	-69.780163	168.638148			
10561	8.679338	1.935603	2.631639	-0.420429	-1.219694	-0.629086	13.398492	-69.935282	168.184533			
10562	8.551171	2.062268	2.930047	-0.075589	-1.333801	-0.637946	13.654621	-70.069979	167.610711			
10563	8.533051	2.270400	2.898392	-0.082032	-1.531728	-0.646696	13.999051	-70.205704	166.897128			
10564	8.277676	1.943457	2.577146	-0.290537	-1.219164	-1.016789	14.356202	-70.295225	166.078449			
10565	8.061876	1.645466	2.821373	0.018238	-0.919425	-1.163071	14.662724	-70.352921	165.231351			
10566	7.776275	1.140576	3.002122	0.293478	-0.430441	-1.415504	14.842375	-70.393754	164.449388			
10567	7.777708	0.656343	2.832693	0.152732	0.054399	-1.510797	14.964339	-70.453967	163.755528			
10568	7.887711	0.390698	2.963551	0.262603	0.327895	-1.388034	15.022344	-70.518291	163.179307			
10569	8.051008	0.150707	3.031099	0.301823	0.578583	-1.233462	15.090642	-70.617878	162.646499			
10570	8.643504	-0.061749	2.923562	0.046670	0.848037	-0.727546	15.170732	-70.741369	162.150038			
10571	9.275899	-0.352362	2.595917	-0.415417	1.211050	-0.259366	15.307642	-70.882066	161.658203			
10572	9.736891	-0.629955	2.653007	-0.453098	1.536346	0.171128	15.496929	-71.012149	161.146263			
10573	10.188955	-0.730882	2.506647	-0.691144	1.700016	0.544168	15.793893	-71.114744	160.588582			
10574	10.195471	-0.945447	2.308556	-0.836045	1.940193	0.468729	16.185215	-71.175403	159.981465			
10575	10.147004	-1.000688	2.312010	-0.789940	2.013250	0.416251	16.650510	-71.204463	159.339246			
10576	9.898947	-0.992493	2.107261	-0.891832	2.015084	0.114987	17.164917	-71.204507	158.695716			
10577	9.514125	-0.800809	2.074084	-0.810763	1.811581	-0.245951	17.710254	-71.184556	158.060924			
10578	9.338849	-0.543431	1.926499	-0.911499	1.573695	-0.436473	18.263238	-71.150418	157.445364			
10579	9.237878	-0.324986	1.931469	-0.888951	1.374711	-0.512448	18.788372	-71.106511	156.857835			
10580	9.169837	-0.141230	2.087638	-0.732348	1.203392	-0.513250	19.240190	-71.051215	156.323885			
10581	9.178007	-0.287328	2.037855	-0.766318	1.377500	-0.539801	19.614778	-70.981677	155.849558			
10582	9.004006	-0.415269	2.005417	-0.733646	1.505088	-0.731789	19.913630	-70.904564	155.443647			
10583	8.936749	-0.585368	2.083525	-0.623347	1.678522	-0.793641	20.164883	-70.844357	155.087276			
10584	9.017252	-0.614846	2.084914	-0.642462	1.733122	-0.723174	20.343513	-70.804869	154.829758			
10585	9.268532	-0.623726	2.183047	-0.622184	1.780948	-0.458463	20.457451	-70.782768	154.670444			
10586	9.618005	-0.672423	2.143588	-0.759772	1.886379	-0.147417	20.498998	-70.756420	154.634664			
10587	9.822456	-0.768842	1.998768	-0.952305	2.022977	-0.011284	20.545222	-70.734521	154.671216			
10588	10.220817	-0.798253	1.814148	-1.245944	2.121949	0.303556	20.672804	-70.748162	154.693951			
10589	10.546980	-0.702687	1.719398	-1.438910	2.083249	0.593007	20.924866	-70.792657	154.637691			
10590	10.859927	-0.480482	1.632928	-1.622855	1.920206	0.888455	21.313003	-70.871766	154.443638			
10591	11.232427	0.113219	1.447219	-1.939489	1.410048	1.256401	21.866409	-70.981992	154.032769			
10592	11.512227	0.739129	1.611870	-1.890772	0.845757	1.649657	22.402970	-71.051229	153.462658			
10593	11.336816	0.770502	1.887580	-1.558080	0.803990	1.571772	22.781655	-71.052159	152.833092			
10594	10.907240	0.785320	2.748004	-0.606358	0.702718	1.424511	22.960182	-71.015444	152.262812			
10595	10.462534	0.635459	3.664825	0.412012	0.735482	1.259290	22.912189	-70.989576	151.839256			
10596	10.314985	0.590035	3.857437	0.643476	0.733372	1.172528	22.692862	-71.003708	151.610990			
10597	10.182984	0.520981	3.939788	0.766801	0.751617	1.065435	22.297976	-71.021253	151.580603			
10598	9.604611	0.558347	4.364167	1.326402	0.555970	0.653338	21.759220	-71.061607	151.741635			
10599	8.983137	1.268729	5.308928	2.309785	-0.368313	0.435247	21.220790	-71.221161	151.993572			
10600	9.425639	1.566723	5.058672	1.929069	-0.623899	0.806942	20.771370	-71.530702	152.301249			
10601	9.880076	1.877444	5.024791	1.776777	-0.911947	1.250770	20.470380	-71.940641	152.643232			
10602	10.325441	2.641474	4.387242	1.022086	-1.586942	1.557275	20.379726	-72.445809	152.977555			
10603	10.512487	4.495042	3.808104	0.290752	-3.380105	1.750536	20.450467	-73.032941	153.322643			
10604	10.883440	6.658688	3.114948	-0.581531	-5.458978	2.118318	20.592260	-73.704448	153.646710			
10605	11.417294	8.207980	2.397744	-1.407484	-6.928991	2.576011	20.625954	-74.370075	153.967525			
10606	11.870097	8.442704	1.661475	-2.106998	-7.121517	2.827798	20.340128	-74.937084	154.340943			
10607	12.113155	7.848417	1.830058	-1.852033	-6.588915	3.025955	19.785306	-75.413291	154.657428			
10608	12.174130	6.372272	2.598853	-0.937273	-5.255048	3.113054	18.841507	-75.780285	154.965886			
10609	11.596487	4.210108	2.913346	-0.265902	-3.278256	2.429571	17.643946	-76.017969	155.338131			
10610	10.578340	2.223692	3.748967	0.997990	-1.589282	1.473514	16.264583	-76.152787	155.783000			
10611	9.836125	0.081732	4.259572	1.946376	0.298321	0.724006	14.815724	-76.223680	156.342917			
10612	9.432295	-1.418982	4.475178	2.475286	1.618229	0.299809	13.342837	-76.223955	157.096977			
10613	9.144322	-2.775573	4.212124	2.510818	2.889769	-0.096257	11.910413	-76.150246	158.055768			
10614	9.145182	-3.394040	3.569868	1.985255	3.545896	-0.253247	10.621833	-76.019284	159.159428			
10615	9.232797	-2.933498	2.766487	1.074459	3.198622	-0.319664	9.570277	-75.860521	160.305186			
10616	9.432775	-1.845728	2.419817	0.451937	2.176456	-0.153600	8.610511	-75.678600	161.468322			
10617	9.344658	-0.866556	2.430957	0.258237	1.180305	-0.193799	7.703633	-75.451921	162.608574			
10618	9.131766	0.073107	2.528088	0.186793	0.202035	-0.341164	6.862021	-75.185092	163.655838			
10619	8.795517	0.765252	2.675155	0.240632	-0.546778	-0.606926	6.033760	-74.899725	164.642776			
10620	8.229221	1.085194	2.649704	0.256861	-0.917637	-1.151833	5.209091	-74.629503	165.564750			
10621	7.976702	1.156483	2.585212	0.204863	-1.015361	-1.411769	4.428017	-74.380556	166.380796			
10622	7.549333	0.833614	2.537418	0.282362	-0.737351	-1.843858	3.648246	-74.126278	167.153130			
10623	7.286128	0.461357	2.598790	0.431902	-0.416243	-2.086481	2.869066	-73.887295	167.878686			
10624	7.055545	-0.103749	2.704785	0.651642	0.089578	-2.284437	2.100351	-73.677604	168.567729			
10625	6.867698	-0.587263	2.805529	0.848940	0.519174	-2.437674	1.418241	-73.513786	169.212736			
10626	6.963753	-1.091393	3.010218	1.076269	0.969899	-2.286249	0.798644	-73.407266	169.856135			
10627	7.366199	-1.426030	3.100169	1.086857	1.288071	-1.871336	0.263621	-73.358653	170.490742			
10628	7.750881	-1.508033	3.206021	1.080186	1.354375	-1.468365	-0.205585	-73.345233	171.127816			
10629	8.175692	-1.403224	3.218156	0.946850	1.253810	-1.054895	-0.587309	-73.352945	171.734111			
10630	8.560148	-1.099318	3.286439	0.851275	0.947925	-0.665990	-0.884670	-73.380497	172.315430			
10631	8.632984	-0.714942	3.426897	0.904888	0.543525	-0.556936	-1.083687	-73.398950	172.827961			
10632	8.707742	-0.254953	3.444209	0.833529	0.085178	-0.482611	-1.224450	-73.404275	173.276420			
10633	8.632404	-0.002373	3.298327	0.679771	-0.147414	-0.597833	-1.243704	-73.376948	173.588407			
10634	8.319568	0.167738	3.137939	0.589087	-0.300135	-0.944041	-1.148833	-73.327355	173.753430			
10635	8.043662	0.062607	2.861140	0.414790	-0.160423	-1.286684	-0.926735	-73.306933	173.783472			
10636	8.074345	-0.043686	2.888471	0.446233	-0.046151	-1.248871	-0.695926	-73.323074	173.734873			
10637	7.908539	-0.633118	2.852420	0.534022	0.547947	-1.416457	-0.495336	-73.346650	173.627024			
10638	7.758522	-1.224198	2.796108	0.598908	1.145397	-1.576128	-0.271062	-73.401204	173.499174			
10639	7.777554	-1.716519	2.641324	0.514159	1.661851	-1.603714	-0.022724	-73.508787	173.387672			
10640	7.936393	-2.116722	2.636320	0.525923	2.073020	-1.455476	0.169297	-73.656218	173.334480			
10641	8.061835	-2.482356	2.692009	0.604039	2.440283	-1.322557	0.324600	-73.829845	173.340291			
10642	8.255127	-2.376446	3.008309	0.861199	2.312207	-1.051607	0.434880	-74.010773	173.402274			
10643	8.376843	-2.264906	3.276167	1.089566	2.183215	-0.863891	0.566563	-74.145577	173.475436			
10644	8.411915	-1.656875	3.817364	1.547156	1.536254	-0.684488	0.769873	-74.258696	173.558568			
10645	8.501904	-1.071481	3.623923	1.290797	0.991204	-0.652197	1.045986	-74.359681	173.658493			
10646	8.830270	-0.211165	3.537194	1.055640	0.171389	-0.358261	1.376001	-74.486466	173.798099			
10647	9.369549	0.536825	3.771243	1.092407	-0.557802	0.226952	1.618461	-74.553903	173.960253			
10648	9.661263	0.943629	3.602758	0.830942	-0.925500	0.466576	1.863346	-74.527495	174.087092			
10649	9.868437	1.275807	2.945672	0.120956	-1.189891	0.495572	2.177087	-74.468478	174.154360			
10650	9.989351	1.343454	2.462062	-0.381922	-1.211274	0.484919	2.423267	-74.425203	174.186316			
10651	10.165175	0.623876	2.335052	-0.508471	-0.474083	0.612722	2.501000	-74.410804	174.202207			
10652	10.284641	-0.489753	2.657160	-0.165861	0.620261	0.801546	2.306901	-74.408513	174.297907			
10653	10.230194	-1.937175	3.363218	0.618562	2.006794	0.925602	1.836685	-74.416045	174.544254			
10654	10.402777	-3.047899	4.356554	1.608430	3.027541	1.355743	1.182307	-74.454471	175.008394			
10655	10.904194	-3.705147	4.637307	1.797104	3.638790	1.920328	0.501030	-74.487805	175.665371			
10656	11.790309	-3.764398	5.294380	2.185879	3.641984	2.961126	-0.062104	-74.444105	176.406461			
10657	13.038316	-3.506788	4.862549	1.382543	3.421228	4.055376	-0.238231	-74.368050	177.111438			
10658	15.133901	-2.449822	4.233706	0.094104	2.442597	5.903075	0.101811	-74.226907	177.623827			
10659	16.828239	-1.393059	4.949755	0.176800	1.433323	7.724204	0.970148	-73.859837	177.792197			
10660	17.628022	0.018173	5.569306	0.352336	0.124677	8.670284	2.246249	-73.242757	177.843536			
10661	16.444206	1.526310	2.820571	-2.132773	-1.308907	6.753296	3.423552	-72.466405	178.030390			
10662	13.655460	4.009407	-0.221713	-4.268393	-3.876057	3.200867	4.033054	-71.933456	178.162365			
10663	11.444650	4.846319	3.488674	-0.115286	-4.604332	2.246481	3.534360	-71.682053	178.035530			
10664	9.166524	6.372764	6.116405	3.029314	-6.121332	0.929710	3.114768	-71.500781	177.807806			
10665	8.872397	8.072727	2.287341	-0.583943	-7.913505	-0.530718	3.341258	-71.111962	177.361336			
10666	7.043532	5.514766	3.086768	0.626435	-5.364123	-2.041949	3.334698	-70.481689	176.852161			
10667	5.745205	0.698044	4.284024	2.089226	-0.573307	-2.945843	3.288981	-69.980801	176.396354			
10668	5.658251	-0.965916	4.274846	2.079520	1.078476	-3.049883	3.427000	-69.707645	175.962777			
10669	6.186544	-1.067918	3.479557	1.131571	1.201465	-2.827196	3.713566	-69.538551	175.478644			
10670	6.871091	-0.912888	2.961213	0.386242	1.085285	-2.363732	4.138745	-69.362455	175.073486			
10671	7.788505	-0.386407	3.378826	0.429950	0.607263	-1.346703	4.609742	-69.289923	174.762791			
10672	9.154270	0.611365	3.269568	-0.163329	-0.316099	-0.079354	5.192506	-69.392919	174.478591			
10673	9.996272	1.898518	2.769795	-0.911990	-1.542458	0.579161	5.787565	-69.531556	174.190798			
10674	10.353541	2.665687	2.579925	-1.181770	-2.267488	0.884014	6.361307	-69.674800	173.880972			
10675	10.481406	3.251205	2.513940	-1.249028	-2.818337	1.015368	6.939675	-69.822677	173.523067			
10676	10.064716	3.619451	2.456215	-1.124937	-3.173756	0.632099	7.468387	-69.940823	173.105540			
10677	8.992931	3.578488	2.553914	-0.646079	-3.147521	-0.332367	7.960375	-70.012845	172.627288			
10678	7.891144	3.325803	2.646746	-0.176085	-2.917523	-1.339590	8.419252	-70.063577	172.088165			
10679	7.267008	2.841431	2.699503	0.087614	-2.441618	-1.925910	8.846004	-70.111392	171.501974			
10680	7.106041	2.324180	3.071261	0.494890	-1.911848	-1.974946	9.201138	-70.163283	170.931353			
10681	7.064202	1.744190	3.130601	0.571987	-1.322753	-2.023659	9.495882	-70.221168	170.413415			
10682	7.214387	1.158134	3.179619	0.581194	-0.720669	-1.898051	9.732582	-70.295382	169.944972			
10683	7.438859	0.750672	3.156614	0.503119	-0.294806	-1.717980	9.945767	-70.397669	169.498381			
10684	7.661727	0.682176	2.917719	0.221671	-0.207222	-1.591471	10.167441	-70.515754	169.065341			
10685	8.120025	0.793856	2.902452	0.073721	-0.283500	-1.158013	10.368030	-70.647960	168.641687			
10686	8.416453	1.171002	2.626101	-0.273536	-0.633487	-0.945434	10.533354	-70.792503	168.243031			
10687	8.771197	1.576383	2.863664	-0.154828	-1.013402	-0.508470	10.642318	-70.947383	167.850108			
10688	8.785081	1.706187	2.619763	-0.376982	-1.136828	-0.565128	10.724692	-71.081853	167.432451			
10689	8.671375	1.759786	2.290359	-0.640435	-1.188263	-0.773153	10.827755	-71.218885	166.956803			
10690	8.736587	1.606786	2.436211	-0.501412	-1.030163	-0.673093	10.945786	-71.346740	166.402961			
10691	8.818925	1.208741	2.493057	-0.436648	-0.623612	-0.600182	11.084956	-71.464745	165.789410			
10692	8.857332	0.873194	2.535971	-0.371011	-0.281575	-0.569907	11.253476	-71.566461	165.151238			
10693	8.989400	0.488398	2.557114	-0.346827	0.119084	-0.461101	11.443492	-71.654722	164.510343			
10694	9.094734	-0.004012	2.436231	-0.435922	0.633343	-0.428752	11.622841	-71.728464	163.901032			
10695	9.281929	-0.403379	2.549756	-0.329550	1.047970	-0.241308	11.802396	-71.794891	163.326401			
10696	9.319852	-0.785991	2.545545	-0.288978	1.440159	-0.231475	11.982922	-71.838626	162.791877			
10697	9.339416	-0.863032	2.512837	-0.298968	1.530900	-0.228806	12.222464	-71.886147	162.270210			
10698	9.385870	-0.846254	2.589436	-0.223618	1.524528	-0.161695	12.507740	-71.922715	161.740958			
10699	9.303729	-0.923641	2.604678	-0.159508	1.606730	-0.242433	12.852088	-71.950639	161.192636			
10700	9.268622	-0.794488	2.621356	-0.132753	1.492043	-0.264588	13.286482	-71.967055	160.599873			
10701	9.274947	-0.676131	2.550391	-0.201865	1.405281	-0.274833	13.812481	-71.969019	159.949217			
10702	9.306203	-0.462850	2.591109	-0.185666	1.221372	-0.220650	14.398370	-71.956288	159.263546			
10703	9.246981	-0.267491	2.629560	-0.145712	1.049550	-0.253926	15.041009	-71.921723	158.537859			
10704	9.160600	0.043742	2.619971	-0.160311	0.766859	-0.316958	15.710061	-71.879304	157.803739			
10705	9.100082	0.230297	2.420635	-0.348988	0.629377	-0.420883	16.367173	-71.821920	157.077626			
10706	9.109731	0.432983	2.306998	-0.480923	0.475920	-0.429776	16.992558	-71.757111	156.374108			
10707	9.213763	0.540557	2.479967	-0.358246	0.400199	-0.270818	17.558466	-71.674522	155.694511			
10708	9.236750	0.436887	2.413143	-0.416439	0.544634	-0.280555	18.046741	-71.567279	155.058149			
10709	9.243000	0.303516	2.306026	-0.507019	0.719240	-0.322246	18.479527	-71.443070	154.453867			
10710	9.105421	0.048162	2.333108	-0.413159	0.977689	-0.473106	18.820530	-71.322044	153.919186			
10711	9.034487	-0.127719	2.468936	-0.244249	1.150011	-0.520127	19.086808	-71.223878	153.453713			
10712	9.003225	-0.227316	2.600582	-0.098193	1.245841	-0.522317	19.261410	-71.165567	153.092667			
10713	9.060417	-0.343201	2.578809	-0.116292	1.380688	-0.488559	19.376019	-71.142567	152.819089			
10714	9.372774	-0.620151	2.462045	-0.268765	1.717305	-0.258956	19.462563	-71.161450	152.624179			
10715	9.686616	-0.743895	2.498371	-0.294869	1.882943	0.035832	19.540471	-71.216088	152.480109			
10716	9.978906	-0.836293	2.421617	-0.421121	2.025014	0.280089	19.647466	-71.306808	152.332846			
10717	10.217507	-0.800709	2.210730	-0.671616	2.049900	0.447562	19.858320	-71.427123	152.099869			
10718	10.428686	-0.606843	2.190683	-0.750571	1.895998	0.664267	20.173208	-71.570456	151.746592			
10719	10.941230	-0.384880	2.143550	-0.935778	1.767608	1.162429	20.568402	-71.716411	151.239113			
10720	11.459986	-0.206348	2.342018	-0.882749	1.658003	1.734200	20.876030	-71.800694	150.695274			
10721	11.587429	-0.084378	2.629013	-0.641841	1.535010	1.952477	21.024440	-71.801387	150.186100			
10722	11.612686	0.175956	2.840940	-0.487377	1.266703	2.066467	20.974746	-71.727096	149.826734			
10723	11.387800	0.691817	3.700878	0.278793	0.610372	2.162567	20.638627	-71.592193	149.682380			
10724	11.039669	0.857373	4.229554	0.803860	0.301012	2.009389	20.024399	-71.428683	149.767036			
10725	10.477423	0.854431	4.383631	1.057135	0.160646	1.526581	19.277282	-71.281145	150.013023			
10726	9.563319	0.696013	4.464847	1.379024	0.117826	0.673520	18.541969	-71.204646	150.324966			
10727	8.695999	1.066854	4.605254	1.656932	-0.445863	-0.064735	17.964299	-71.283567	150.582219			
10728	8.679701	1.282819	4.171987	1.216333	-0.625030	-0.194060	17.558119	-71.502477	150.766358			
10729	9.276879	1.481582	3.800929	0.688685	-0.700359	0.273818	17.276521	-71.801196	150.908546			
10730	10.053838	1.998488	3.603488	0.225281	-1.091434	0.995474	17.078869	-72.174579	151.086257			
10731	10.469708	3.448813	3.033021	-0.670845	-2.382235	1.348968	16.938049	-72.617087	151.331114			
10732	10.189645	5.440695	2.410977	-1.525368	-4.300021	1.069632	16.820868	-73.126913	151.615257			
10733	10.013777	7.025126	1.801131	-2.291773	-5.814855	0.855314	16.722086	-73.696743	151.827901			
10734	10.089230	7.597007	1.341176	-2.775172	-6.336951	0.838442	16.488842	-74.258913	151.963682			
10735	10.585778	7.334022	1.401038	-2.730086	-6.082371	1.294091	15.894832	-74.760736	152.120123			
10736	11.117899	6.090679	1.907589	-2.100084	-4.960814	1.820132	14.810702	-75.159706	152.435849			
10737	11.232130	4.270327	2.447878	-1.228345	-3.358175	1.917688	13.317219	-75.436439	152.933216			
10738	10.861927	2.224189	3.127160	-0.045554	-1.654537	1.587628	11.574493	-75.596654	153.577013			
10739	10.238562	0.092684	3.937910	1.383645	0.037118	1.069735	9.883177	-75.693588	154.229457			
10740	10.102279	-1.591234	4.612773	2.504991	1.356381	1.038580	8.315265	-75.767838	154.914788			
10741	10.356427	-3.271334	4.721013	3.041699	2.856597	1.270285	6.860724	-75.764190	155.706037			
10742	10.121687	-4.332660	4.269626	2.986306	3.898268	0.926741	5.695163	-75.640447	156.552991			
10743	9.913247	-4.261996	3.120551	1.915509	4.110519	0.463944	4.925156	-75.476664	157.376045			
10744	9.909050	-3.165089	2.489783	0.943645	3.239848	0.337124	4.378486	-75.265087	158.228781			
10745	9.813925	-1.602533	2.532762	0.472045	1.728038	0.291116	3.919293	-74.996074	159.082371			
10746	9.393474	0.014805	2.585520	0.083904	0.130127	-0.071116	3.461138	-74.667672	159.936558			
10747	9.090218	1.310045	2.674369	-0.188084	-1.161931	-0.319805	3.001772	-74.323530	160.729246			
10748	8.827306	2.076738	2.541674	-0.509931	-1.887202	-0.600058	2.590246	-73.989267	161.436225			
10749	8.356938	2.397002	2.517057	-0.544397	-2.232234	-1.058249	2.177202	-73.652372	162.054254			
10750	7.735288	2.134362	2.600929	-0.275044	-2.059219	-1.637187	1.690511	-73.324061	162.625582			
10751	7.245692	1.489229	2.664709	0.047423	-1.502558	-2.095276	1.189891	-73.022369	163.107983			
10752	6.748599	0.798650	2.894962	0.543150	-0.947287	-2.507229	0.671568	-72.740460	163.553931			
10753	6.608794	0.046281	3.036596	0.882224	-0.281628	-2.598709	0.176123	-72.529688	163.992951			
10754	6.810251	-0.479745	3.177117	1.070434	0.192405	-2.361457	-0.297997	-72.399346	164.446733			
10755	7.351076	-0.954896	3.295448	1.132759	0.649014	-1.806082	-0.727055	-72.325470	164.899891			
10756	7.871033	-1.073184	3.318931	1.020202	0.784752	-1.300137	-1.087955	-72.278910	165.346484			
10757	8.306822	-1.033287	3.358281	0.906475	0.758525	-0.871101	-1.384606	-72.254795	165.781107			
10758	8.636059	-0.878986	3.390547	0.788843	0.616664	-0.547301	-1.636856	-72.237300	166.220352			
10759	8.883865	-0.629187	3.401442	0.652219	0.383379	-0.309195	-1.839453	-72.221421	166.642568			
10760	8.869124	-0.404221	3.361526	0.555371	0.169181	-0.337058	-2.004711	-72.205454	167.049285			
10761	8.838692	-0.261397	3.236278	0.408345	0.055766	-0.405539	-2.121167	-72.192798	167.394980			
10762	8.809573	-0.258436	3.095521	0.283445	0.082810	-0.476177	-2.176100	-72.180362	167.657556			
10763	8.641127	-0.234896	3.064477	0.298145	0.056664	-0.646272	-2.163972	-72.182689	167.831212			
10764	8.475665	-0.340097	3.051430	0.362633	0.154037	-0.806659	-2.077010	-72.193658	167.891943			
10765	8.176426	-0.536501	3.019735	0.473427	0.339684	-1.099419	-1.887068	-72.206622	167.809978			
10766	7.788906	-0.813956	2.820122	0.476559	0.641936	-1.527552	-1.557975	-72.236128	167.595125			
10767	7.545918	-1.168090	2.687874	0.521215	1.016502	-1.798637	-1.093115	-72.312185	167.272130			
10768	7.596657	-1.506318	2.711434	0.623703	1.361313	-1.744985	-0.588037	-72.429809	166.912236			
10769	7.752214	-1.764009	2.847433	0.783504	1.610152	-1.559815	-0.091883	-72.553667	166.543916			
10770	7.920228	-1.890257	3.034421	0.955902	1.721521	-1.349038	0.403008	-72.664798	166.187183			
10771	8.080557	-1.759428	3.455264	1.284807	1.533483	-1.076128	0.898492	-72.732499	165.844582			
10772	8.066771	-1.171523	3.693992	1.389449	0.932337	-1.021161	1.441521	-72.825714	165.563396			
10773	8.308383	-0.349748	3.305302	0.796337	0.256885	-0.903349	1.983678	-73.000675	165.402093			
10774	8.863931	0.499568	3.555842	0.720882	-0.565652	-0.293071	2.326889	-73.193252	165.394826			
10775	9.227470	0.689813	4.011129	1.035730	-0.807687	0.186616	2.470966	-73.306170	165.483111			
10776	9.436410	0.894109	3.644300	0.607579	-0.911981	0.283119	2.624226	-73.326451	165.600186			
10777	9.742606	1.268023	3.036762	-0.117521	-1.129349	0.407828	2.787759	-73.304315	165.749481			
10778	10.060431	1.230533	2.754634	-0.463895	-1.011389	0.631277	2.834057	-73.252306	165.915990			
10779	9.917858	0.581995	2.449024	-0.591171	-0.328822	0.397245	2.754142	-73.191734	166.096113			
10780	9.718784	-0.304371	2.486138	-0.336393	0.513714	0.204858	2.537208	-73.164354	166.294231			
10781	9.648884	-1.361698	2.964947	0.337281	1.441845	0.264682	2.110544	-73.185869	166.570684			
10782	9.719230	-2.662074	3.462019	1.047280	2.599344	0.467495	1.512306	-73.239478	166.971984			
10783	9.549483	-3.854386	3.962957	1.814772	3.625655	0.449624	0.911137	-73.308348	167.463630			
10784	9.852008	-4.321924	4.603248	2.433694	3.949484	0.930201	0.450034	-73.415103	168.016957			
10785	10.799581	-4.322219	4.627560	2.191664	3.985450	1.850916	0.163767	-73.500521	168.595327			
10786	11.942093	-4.143383	5.091531	2.257427	3.790072	3.080885	0.098466	-73.519675	169.124102			
10787	13.502542	-3.470662	4.658718	1.252806	3.319006	4.452028	0.469262	-73.494383	169.532300			
10788	15.156107	-1.927857	4.380372	0.205314	1.991398	5.954469	1.325214	-73.352325	169.758643			
10789	15.908055	-0.716228	4.395742	-0.262835	0.924252	6.679024	2.512514	-73.000979	169.819594			
10790	15.307304	0.385180	3.763761	-0.948571	-0.016740	5.926620	3.643420	-72.499264	169.989287			
10791	13.632945	1.797205	2.286543	-2.116653	-1.293856	3.904471	4.216933	-72.019503	170.338640			
10792	12.227522	3.795472	1.574960	-2.620599	-3.280715	2.384347	4.241238	-71.771311	170.598542			
10793	12.717820	5.889436	4.044523	-0.679353	-5.552686	3.659223	3.860596	-71.665491	170.612451			
10794	13.117368	7.160191	5.113871	-0.010096	-6.899987	4.395559	3.696417	-71.333988	170.471222			
10795	11.836952	7.341837	3.415433	-1.353407	-6.969888	2.647990	3.933252	-70.753313	170.139786			
10796	9.596615	4.146330	3.298204	-0.531019	-3.879126	0.426158	3.872660	-70.137421	169.751154			
10797	7.368848	0.375824	3.914309	1.115727	-0.322964	-1.541453	3.707663	-69.623364	169.446443			
10798	5.628736	-0.865893	3.191301	1.134381	0.874504	-3.443610	3.693062	-69.252159	169.141323			
10799	4.831917	-0.652140	2.872377	1.056970	0.649077	-4.291392	3.841031	-68.937013	168.777514			
10800	4.164100	-1.042317	3.213965	1.636759	0.959329	-4.797074	4.167697	-68.649003	168.398296			
10801	4.617457	-1.198063	3.341109	1.599085	1.150664	-4.331983	4.715473	-68.553092	168.012125			
10802	6.484353	-0.829452	3.397069	0.937011	0.949247	-2.567293	5.387438	-68.645883	167.683944			
10803	8.317570	0.291782	3.048860	-0.156745	0.047567	-0.950652	6.028761	-68.816270	167.521394			
10804	9.251228	1.688775	2.690797	-0.946185	-1.208483	-0.152373	6.541033	-68.984218	167.541615			
10805	9.735610	2.936398	2.536768	-1.345775	-2.383898	0.303901	6.976984	-69.164191	167.621295			
10806	10.213921	3.943217	2.431597	-1.652565	-3.332548	0.767890	7.373240	-69.343086	167.683755			
10807	10.493397	4.826533	2.512388	-1.699177	-4.189084	1.108989	7.709896	-69.473709	167.677561			
10808	10.392778	4.992257	2.534882	-1.620448	-4.355535	1.039110	7.923555	-69.528183	167.624643			
10809	9.687962	4.635765	2.535536	-1.336843	-4.046719	0.366349	8.016559	-69.511189	167.540555			
10810	8.994436	3.419822	2.666202	-0.882218	-2.891733	-0.296215	8.032959	-69.446759	167.390548			
10811	8.479799	2.109937	2.863136	-0.423301	-1.636944	-0.774016	8.005577	-69.367766	167.221892			
10812	8.086784	0.752051	2.901860	-0.143518	-0.318544	-1.195242	7.936854	-69.283886	167.074416			
10813	7.763928	-0.236103	2.963048	0.108264	0.632610	-1.524017	7.851910	-69.217985	166.968628			
10814	7.596770	-0.952657	2.999706	0.265943	1.325492	-1.701643	7.767037	-69.188620	166.917466			
10815	7.554005	-1.193443	2.976976	0.284575	1.559206	-1.760510	7.701293	-69.205080	166.918016			
10816	7.851245	-0.874019	2.914409	0.097223	1.267097	-1.488942	7.689542	-69.280360	166.956077			
10817	8.197356	-0.340917	2.936880	-0.042655	0.760895	-1.131828	7.728467	-69.388081	167.001090			
10818	8.404346	0.375152	2.983651	-0.124347	0.061018	-0.887626	7.811855	-69.511765	167.051112			
10819	8.608251	1.088382	2.892444	-0.326552	-0.624249	-0.693674	7.952410	-69.651845	167.064861			
10820	8.640834	1.630441	2.727469	-0.517873	-1.144681	-0.692222	8.179594	-69.790336	166.967820			
10821	8.808923	1.879807	2.663173	-0.631529	-1.365575	-0.541248	8.511405	-69.919319	166.717754			
10822	8.882714	2.001292	2.723229	-0.586375	-1.468871	-0.441334	8.943451	-70.029668	166.321887			
10823	8.952561	2.040612	2.788801	-0.528380	-1.485144	-0.346699	9.453432	-70.136796	165.793565			
10824	9.086909	1.779302	2.772898	-0.543350	-1.188223	-0.235652	9.961748	-70.216240	165.193978			
10825	9.091351	1.566372	2.682735	-0.592766	-0.943016	-0.270020	10.502585	-70.278794	164.548433			
10826	8.925667	1.336562	2.740919	-0.447919	-0.705746	-0.417594	11.037439	-70.320518	163.869322			
10827	8.858372	0.987200	2.760623	-0.360995	-0.339112	-0.494910	11.550871	-70.347908	163.191627			
10828	8.715257	0.815468	2.676756	-0.364628	-0.150247	-0.667737	12.049078	-70.379523	162.533005			
10829	8.804033	0.684158	2.682649	-0.361656	0.011826	-0.590719	12.465589	-70.409806	161.914090			
10830	8.771815	0.442954	2.530132	-0.456140	0.280283	-0.688223	12.854196	-70.447255	161.323353			
10831	8.963442	0.338280	2.612694	-0.413369	0.416596	-0.488556	13.218989	-70.487866	160.749394			
10832	9.115272	-0.053329	2.637335	-0.377541	0.836973	-0.367929	13.568523	-70.520080	160.189255			
10833	9.318053	-0.235270	2.601465	-0.437647	1.061608	-0.203812	13.930871	-70.548996	159.632495			
10834	9.446195	-0.377960	2.473580	-0.566133	1.248626	-0.137336	14.294536	-70.565458	159.118606			
10835	9.494249	-0.384853	2.343558	-0.688768	1.294189	-0.136337	14.672213	-70.577676	158.590541			
10836	9.507542	-0.265840	2.404583	-0.638122	1.193325	-0.095961	15.045049	-70.584434	158.068749			
10837	9.539890	-0.060740	2.296907	-0.766097	1.027820	-0.084090	15.437368	-70.571163	157.541865			
10838	9.647682	0.323178	2.566763	-0.590592	0.659142	0.136542	15.811102	-70.535340	157.012812			
10839	9.668389	0.532066	2.618629	-0.575256	0.475217	0.190375	16.161232	-70.469523	156.489917			
10840	9.604147	0.594148	2.514934	-0.665098	0.441814	0.100936	16.483217	-70.379918	155.990592			
10841	9.469121	0.463606	2.479662	-0.643536	0.580315	-0.051696	16.759797	-70.283279	155.529442			
10842	9.289050	0.286715	2.405808	-0.636941	0.758383	-0.264091	16.965544	-70.200786	155.127151			
10843	9.106551	-0.037977	2.352427	-0.584635	1.073201	-0.486860	17.087748	-70.141510	154.805536			
10844	8.937859	-0.374979	2.333654	-0.497257	1.391031	-0.686372	17.137342	-70.119822	154.565189			
10845	8.939399	-0.697069	2.410728	-0.367597	1.700864	-0.692254	17.147737	-70.151097	154.389976			
10846	9.202666	-0.945435	2.595450	-0.221445	1.957262	-0.408468	17.136162	-70.235339	154.272273			
10847	9.718312	-0.967771	2.543913	-0.403365	2.053848	0.060135	17.132116	-70.361234	154.177025			
10848	10.212099	-0.802637	2.539036	-0.560587	1.955571	0.542954	17.142124	-70.497417	154.072695			
10849	10.684255	-0.435729	2.615737	-0.665263	1.645625	1.051682	17.159478	-70.635607	153.931973			
10850	11.112644	0.139967	2.233980	-1.223113	1.186343	1.394348	17.183769	-70.753327	153.742673			
10851	11.375393	0.530698	2.219005	-1.362418	0.840391	1.678297	17.156573	-70.819392	153.517789			
10852	11.331676	0.786659	2.778143	-0.861868	0.502204	1.838440	16.988031	-70.833417	153.301896			
10853	11.337711	0.807317	3.157546	-0.514151	0.417760	1.965540	16.675874	-70.832857	153.157782			
10854	11.360535	0.678706	3.389915	-0.286922	0.492131	2.048567	16.242460	-70.828218	153.096769			
10855	11.180002	0.218107	3.469445	-0.078207	0.875222	1.862279	15.711919	-70.818586	153.100259			
10856	10.857411	-0.078019	3.755286	0.336490	1.032585	1.624622	15.119537	-70.834516	153.162851			
10857	10.542978	-0.216470	3.990005	0.675347	1.037134	1.393983	14.534042	-70.898847	153.287699			
10858	10.480602	-0.322803	4.072063	0.799594	1.071172	1.356108	13.989780	-71.013883	153.511192			
10859	10.524514	0.018440	3.897334	0.565268	0.736462	1.371804	13.583675	-71.229035	153.820285			
10860	10.919043	1.140703	3.431148	-0.198020	-0.249565	1.685033	13.328972	-71.572750	154.204591			
10861	11.272699	2.971175	2.962007	-1.076568	-1.937609	2.009362	13.192183	-72.035073	154.617515			
10862	11.251269	4.437257	2.375268	-1.842717	-3.311308	1.915934	13.104694	-72.549749	154.982855			
10863	10.647244	5.468213	2.161800	-1.997640	-4.406451	1.346621	13.029566	-73.049211	155.203174			
10864	9.804125	5.906274	2.240627	-1.715281	-4.995243	0.585885	12.854589	-73.461896	155.308086			
10865	8.875956	5.767587	2.507574	-1.159274	-5.052950	-0.249254	12.552103	-73.752037	155.289808			
10866	8.091156	4.995021	2.661532	-0.651884	-4.448304	-1.021309	12.061967	-73.938447	155.246578			
10867	7.781955	3.690955	2.789683	-0.183801	-3.270367	-1.372601	11.379402	-74.060493	155.293713			
10868	7.823748	2.452837	2.982157	0.250712	-2.140674	-1.358389	10.509962	-74.122730	155.515727			
10869	7.601563	1.383597	3.175762	0.722977	-1.216097	-1.579721	9.493584	-74.118932	155.906834			
10870	7.671684	0.513204	3.287716	1.007916	-0.438870	-1.523027	8.465332	-74.095892	156.394933			
10871	7.787495	-0.291725	3.307539	1.192112	0.300277	-1.436619	7.488324	-74.078966	156.945886			
10872	8.128413	-0.971235	3.191033	1.171828	0.978454	-1.160150	6.618267	-74.096620	157.531828			
10873	8.865714	-1.454507	3.468470	1.369103	1.407976	-0.384550	5.764276	-74.121475	158.204318			
10874	9.379503	-1.785991	3.702015	1.538519	1.677292	0.171763	4.940024	-74.133193	158.941290			
10875	9.959362	-1.615750	3.639736	1.271069	1.551842	0.724071	4.198850	-74.121821	159.739733			
10876	10.476501	-1.030954	3.570652	0.888858	1.028469	1.220062	3.531171	-74.058465	160.575199			
10877	10.384371	-0.408867	3.439900	0.590465	0.435147	1.109636	2.994990	-73.942563	161.374074			
10878	10.274547	0.190208	3.229172	0.231676	-0.110749	0.955973	2.600349	-73.821482	162.095837			
10879	10.055327	0.610166	3.181306	0.107678	-0.530813	0.737630	2.310712	-73.685908	162.714941			
10880	9.810572	0.878667	3.122001	0.024409	-0.801130	0.488954	2.067272	-73.547373	163.265449			
10881	9.379460	1.052040	3.155263	0.105266	-1.016031	0.086469	1.825459	-73.402545	163.757131			
10882	8.836122	0.995580	3.261501	0.345481	-1.033824	-0.404317	1.581235	-73.270123	164.199645			
10883	8.584352	0.809572	3.383555	0.555815	-0.906337	-0.611353	1.321769	-73.162129	164.628414			
10884	8.513038	0.520667	3.414538	0.658176	-0.644150	-0.671908	1.066447	-73.064587	165.034687			
10885	8.324821	0.224842	3.418376	0.770862	-0.377003	-0.851543	0.843836	-72.981797	165.405460			
10886	8.540288	0.015058	3.423063	0.751953	-0.162671	-0.644143	0.659797	-72.926511	165.744419			
10887	8.640016	-0.126426	3.467183	0.788320	-0.031146	-0.535576	0.515257	-72.879323	166.042055			
10888	8.780914	-0.352141	3.534407	0.855142	0.180887	-0.381012	0.387749	-72.849017	166.319575			
10889	8.880535	-0.568731	3.600694	0.932173	0.382173	-0.266099	0.287087	-72.831426	166.586996			
10890	8.834786	-0.791697	3.588161	0.979068	0.598569	-0.313305	0.222131	-72.815770	166.838911			
10891	8.694316	-0.908436	3.513301	0.970332	0.720673	-0.469308	0.187166	-72.797311	167.092870			
10892	8.526626	-1.013858	3.420538	0.948856	0.835843	-0.656685	0.192718	-72.774986	167.333120			
10893	8.247502	-1.101421	3.185258	0.821825	0.957778	-0.992963	0.243084	-72.752760	167.562807			
10894	8.009641	-0.988322	2.898402	0.593041	0.897431	-1.305350	0.355951	-72.749943	167.773284			
10895	7.931255	-0.941631	2.785096	0.497933	0.877601	-1.414467	0.514652	-72.770391	167.934680			
10896	7.818070	-0.864133	2.550088	0.296894	0.848753	-1.592994	0.742388	-72.816687	168.032235			
10897	7.919832	-0.857717	2.560892	0.282433	0.857036	-1.493835	1.020022	-72.888160	168.062220			
10898	7.853894	-0.906379	2.380809	0.149925	0.945131	-1.611611	1.367714	-72.960801	168.015779			
10899	7.781438	-0.982904	2.376061	0.191273	1.030569	-1.684720	1.783668	-73.067500	167.911332			
10900	7.879156	-0.935254	2.493319	0.282193	0.983457	-1.558866	2.180856	-73.223350	167.796567			
10901	8.172346	-1.060624	2.660164	0.396819	1.109685	-1.233658	2.514278	-73.333403	167.694450			
10902	7.884672	-1.206794	2.920111	0.760438	1.207159	-1.439162	2.844780	-73.415529	167.602443			
10903	7.992682	-0.897898	2.956282	0.726856	0.917478	-1.323950	3.193873	-73.553266	167.564638			
10904	8.301274	-0.317074	3.158175	0.759674	0.344550	-0.964531	3.449321	-73.715826	167.673482			
10905	8.821220	0.156325	3.411861	0.810879	-0.121785	-0.388955	3.548219	-73.887038	167.951040			
10906	9.469603	0.539768	4.115368	1.272664	-0.559438	0.432716	3.484494	-74.008128	168.369578			
10907	9.817739	0.733893	3.858440	0.925202	-0.696713	0.697914	3.414230	-74.060126	168.869873			
10908	9.931242	1.124906	2.919808	-0.040259	-0.958112	0.555565	3.440298	-74.082049	169.362695			
10909	9.950560	1.330356	2.455333	-0.498808	-1.108055	0.450622	3.473121	-74.138389	169.807771			
10910	9.917267	0.878902	2.374256	-0.495830	-0.659436	0.389323	3.380055	-74.216026	170.179605			
10911	9.540266	0.109573	2.281539	-0.380381	0.087795	-0.010561	3.253958	-74.306272	170.447806			
10912	9.277657	-0.725120	2.815796	0.311853	0.840568	-0.131490	3.116101	-74.446611	170.667800			
10913	9.649611	-1.637995	3.470809	0.965100	1.686531	0.388718	2.940474	-74.620001	170.949353			
10914	10.167627	-2.665286	3.670240	1.153472	2.699553	0.926816	2.770571	-74.788039	171.372367			
10915	10.617337	-3.133811	3.977587	1.391711	3.147711	1.435640	2.594194	-74.925644	171.920598			
10916	11.180555	-3.135953	4.165922	1.425820	3.151464	2.029154	2.416891	-75.020303	172.578571			
10917	12.144029	-2.813246	3.719992	0.708495	2.898498	2.849336	2.289685	-75.091073	173.318931			
10918	13.354325	-2.072177	3.393423	0.016360	2.212514	3.944192	2.120957	-75.184085	174.129386			
10919	14.243941	-1.013508	3.228480	-0.438737	1.172948	4.774012	1.900681	-75.263394	174.993034			
10920	14.656138	0.559313	4.118504	0.225107	-0.452330	5.413013	1.615618	-75.198684	175.875573			
10921	15.026109	2.070325	3.976088	-0.100245	-1.967412	5.743615	1.271353	-74.997644	176.722611			
10922	15.737357	3.754338	3.894937	-0.464437	-3.661840	6.413987	0.889664	-74.756278	177.476525			
10923	16.195920	4.742839	3.370473	-1.184604	-4.652529	6.713427	0.679513	-74.399788	177.898168			
10924	13.974730	4.232222	3.100272	-0.937336	-4.160550	4.492084	0.787753	-73.900601	177.865417			
10925	11.265694	2.616779	3.601102	0.225738	-2.573657	2.021833	0.916673	-73.446778	177.676764			
10926	9.028322	1.541163	3.667130	0.869349	-1.518449	-0.103324	0.974452	-73.046547	177.493576			
10927	7.121646	0.808230	3.571556	1.292103	-0.803837	-1.950680	1.086487	-72.678235	177.258114			
10928	5.655821	0.127795	3.457009	1.596648	-0.134960	-3.379341	1.338954	-72.385337	176.982735			
10929	4.759359	-0.472309	3.271749	1.685133	0.468226	-4.288200	1.755495	-72.221733	176.689875			
10930	4.433089	-0.753189	2.799887	1.334129	0.774639	-4.745250	2.387667	-72.225092	176.376782			
10931	4.667748	-0.256832	2.083288	0.573459	0.321056	-4.737067	3.212882	-72.374114	176.043811			
10932	5.796091	0.956720	1.719436	-0.109739	-0.838861	-3.750464	4.143370	-72.602902	175.737433			
10933	7.322531	2.335182	1.342610	-0.886332	-2.159072	-2.367713	5.041693	-72.829761	175.526186			
10934	8.442503	3.395758	1.086765	-1.394720	-3.177565	-1.330615	5.824285	-72.995189	175.416521			
10935	9.576139	4.474256	1.158651	-1.572946	-4.211408	-0.176644	6.489563	-73.128900	175.353610			
10936	10.688135	5.448149	1.161989	-1.801038	-5.144082	0.937342	7.027778	-73.218154	175.300284			
10937	11.372716	6.040743	1.434821	-1.666873	-5.693175	1.706736	7.457604	-73.247535	175.185282			
10938	11.453976	6.025834	1.544197	-1.562805	-5.653251	1.827206	7.846073	-73.219152	174.947262			
10939	10.730205	5.439390	1.614302	-1.315416	-5.060364	1.141424	8.265562	-73.132853	174.539048			
10940	9.522593	4.370864	1.792703	-0.861797	-3.991645	0.001688	8.736158	-73.022884	173.962461			
10941	8.850005	3.377958	2.081635	-0.454961	-2.978416	-0.593777	9.273751	-72.922644	173.243248			
10942	8.381002	2.476466	2.308227	-0.156692	-2.054367	-1.011727	9.883167	-72.824131	172.434488			
10943	8.089710	1.917595	2.394579	-0.024151	-1.473783	-1.287321	10.535741	-72.738633	171.594089			
10944	8.062232	1.477359	2.458939	0.022525	-1.001963	-1.314215	11.226899	-72.687543	170.758073			
10945	8.306114	1.232156	2.617822	0.093993	-0.707894	-1.046120	11.913216	-72.671457	169.963608			
10946	8.755082	1.172339	2.699770	0.043676	-0.589738	-0.595051	12.617066	-72.688211	169.216508			
10947	9.259622	1.317806	2.807486	0.012368	-0.668977	-0.070439	13.330798	-72.718749	168.515460			
10948	9.720093	1.443741	2.601638	-0.303907	-0.740302	0.321048	14.059268	-72.741845	167.839342			
10949	9.926948	1.737519	2.575232	-0.372591	-0.983927	0.535646	14.795717	-72.733632	167.172976			
10950	9.865382	1.954988	2.395130	-0.517449	-1.172895	0.446007	15.554448	-72.685443	166.491084			
10951	9.611554	2.156685	2.201257	-0.624979	-1.358635	0.169404	16.347593	-72.606441	165.779960			
10952	9.173180	2.388303	2.268658	-0.431065	-1.575781	-0.203890	17.138621	-72.513174	165.061004			
10953	8.902322	2.624407	2.403915	-0.221343	-1.784209	-0.395410	17.889452	-72.422245	164.348083			
10954	8.746126	2.924769	2.239674	-0.329582	-2.065533	-0.555801	18.608947	-72.338729	163.650284			
10955	8.784845	3.159690	2.208596	-0.368345	-2.261622	-0.496877	19.259810	-72.267763	162.982710			
10956	8.858199	3.154220	2.125899	-0.473275	-2.221341	-0.443706	19.825230	-72.207463	162.344188			
10957	9.057468	3.166738	2.169294	-0.494478	-2.184242	-0.233737	20.309324	-72.163282	161.732598			
10958	9.245306	3.089445	2.189303	-0.537814	-2.063013	-0.052151	20.700900	-72.126956	161.137788			
10959	9.492502	2.890347	2.121041	-0.685686	-1.821907	0.145774	21.009661	-72.099436	160.566891			
10960	9.680472	2.597519	2.115786	-0.757491	-1.492462	0.293446	21.240597	-72.067701	160.003755			
10961	9.695133	2.297956	2.161331	-0.729043	-1.174293	0.288652	21.434126	-72.039529	159.438977			
10962	9.736811	2.110775	2.051066	-0.855299	-0.969933	0.276683	21.626435	-72.004234	158.853449			
10963	9.634710	1.826116	1.965964	-0.913218	-0.682057	0.123517	21.827170	-71.963139	158.242276			
10964	9.590022	1.677383	1.995845	-0.876245	-0.518870	0.073083	22.056596	-71.921808	157.596885			
10965	9.590615	1.626708	1.983087	-0.892699	-0.447985	0.064613	22.289441	-71.883398	156.937576			
10966	9.637353	1.709588	1.989594	-0.907607	-0.503522	0.121215	22.511729	-71.843060	156.274821			
10967	9.706672	1.893278	2.098078	-0.837442	-0.657616	0.240775	22.687964	-71.801510	155.631626			
10968	9.773971	2.057683	2.180366	-0.794964	-0.794276	0.348793	22.843921	-71.755950	154.984763			
10969	9.820239	2.258885	2.185541	-0.825941	-0.970210	0.419259	22.965095	-71.714900	154.339329			
10970	9.725435	2.403951	2.309009	-0.706069	-1.114075	0.383137	23.032334	-71.658311	153.698701			
10971	9.553843	2.471292	2.323082	-0.669086	-1.190740	0.232925	23.076797	-71.596662	153.049896			
10972	9.478901	2.495240	2.261784	-0.729581	-1.206978	0.147349	23.150109	-71.533628	152.374079			
10973	9.418576	2.457335	2.369198	-0.628094	-1.169423	0.117018	23.178007	-71.466093	151.704815			
10974	9.327650	2.247854	2.427027	-0.548065	-0.967713	0.021512	23.149860	-71.392666	151.052672			
10975	9.225821	2.120164	2.287638	-0.660265	-0.836313	-0.132360	23.068140	-71.321859	150.428489			
10976	9.177665	2.090737	2.156709	-0.790731	-0.793919	-0.221207	22.919600	-71.256114	149.852493			
10977	9.231165	2.124143	2.167663	-0.825371	-0.812326	-0.164684	22.678469	-71.186735	149.327071			
10978	9.309204	2.257544	2.174379	-0.891071	-0.926586	-0.074461	22.360542	-71.116326	148.864830			
10979	9.505823	2.281113	2.119128	-1.035611	-0.907204	0.094847	21.958441	-71.035929	148.456036			
10980	9.766896	2.209881	1.959271	-1.284682	-0.767416	0.280631	21.471944	-70.926062	148.105577			
10981	9.798877	2.062331	2.115754	-1.161682	-0.638664	0.335712	20.930510	-70.785355	147.797905			
10982	10.030137	1.913010	2.679070	-0.717737	-0.546494	0.705232	20.358539	-70.600880	147.519151			
10983	10.084504	1.873981	3.222583	-0.278448	-0.601020	0.918338	19.722247	-70.363642	147.279599			
10984	9.663449	1.669357	3.475115	0.056030	-0.536633	0.577399	19.073180	-70.104284	147.037684			
10985	9.105268	1.413080	3.477736	0.218918	-0.404312	0.025281	18.463017	-69.863404	146.761716			
10986	8.381982	1.169650	3.457617	0.420753	-0.315283	-0.685575	17.925578	-69.661566	146.434659			
10987	7.996705	1.134925	3.633226	0.660478	-0.412850	-0.990620	17.492611	-69.521339	146.024400			
10988	8.025556	1.287044	3.788884	0.714827	-0.607278	-0.894066	17.158354	-69.435285	145.555675			
10989	8.417713	1.575683	3.627430	0.337644	-0.774357	-0.550656	16.896166	-69.387060	145.055409			
10990	9.083445	1.757332	3.502105	-0.049166	-0.786279	0.048410	16.683759	-69.364621	144.532355			
10991	9.574067	1.868514	3.374529	-0.360817	-0.759128	0.474929	16.508489	-69.351980	144.006792			
10992	9.858702	2.046203	3.158865	-0.712153	-0.800905	0.685443	16.421156	-69.341379	143.452068			
10993	10.081885	2.308362	3.174600	-0.868468	-0.994951	0.925415	16.417233	-69.331663	142.842034			
10994	10.077797	2.569496	3.138369	-1.008731	-1.212543	0.935607	16.469971	-69.312906	142.172708			
10995	10.076475	2.914349	3.040258	-1.240213	-1.478577	0.936618	16.592996	-69.284360	141.418255			
10996	9.981083	3.179112	2.947120	-1.416225	-1.683288	0.844470	16.767563	-69.238980	140.569262			
10997	9.601466	3.292879	3.008048	-1.328826	-1.861261	0.524107	16.911833	-69.163835	139.670560			
10998	9.174808	3.258530	2.925363	-1.303163	-1.864504	0.095797	17.024327	-69.072844	138.710543			
10999	8.894341	3.035052	2.928830	-1.166491	-1.697644	-0.186890	17.069136	-68.974434	137.735401			
11000	8.682183	2.713795	3.012270	-0.935458	-1.464664	-0.389405	17.051865	-68.867551	136.782944			
11001	8.599755	2.421509	3.173392	-0.681245	-1.267333	-0.441479	16.974472	-68.767038	135.869756			
11002	8.565820	2.145050	3.271819	-0.494731	-1.057610	-0.468390	16.844254	-68.680000	134.991642			
11003	8.676620	2.121171	3.499680	-0.355090	-1.095669	-0.288813	16.679519	-68.617858	134.134569			
11004	8.903655	2.103954	3.657959	-0.307561	-1.086277	-0.024548	16.468978	-68.565948	133.304242			
11005	9.048909	2.108455	3.726589	-0.326164	-1.080381	0.134275	16.225630	-68.512511	132.503220			
11006	8.983141	2.199885	3.738152	-0.387537	-1.176705	0.085552	15.987441	-68.448907	131.696462			
11007	9.015018	2.391428	3.687345	-0.582166	-1.295627	0.115467	15.745905	-68.384273	130.859933			
11008	9.056064	2.414767	3.800651	-0.561667	-1.348605	0.195006	15.497824	-68.288424	129.981484			
11009	8.956769	2.397350	3.811567	-0.569391	-1.353306	0.104124	15.268833	-68.175901	129.052392			
11010	8.958147	2.274658	3.804152	-0.552483	-1.233086	0.090245	15.047790	-68.056057	128.076560			
11011	8.911801	2.103566	4.051676	-0.302469	-1.229377	0.119992	14.793463	-67.903078	127.075267			
11012	8.680253	1.641641	3.695890	-0.275803	-0.722246	-0.267875	14.552962	-67.704627	126.058552			
11013	8.393834	1.615333	3.331536	-0.500112	-0.554636	-0.669001	14.460985	-67.541524	124.986621			
11014	8.263441	1.549745	3.129236	-0.599877	-0.400526	-0.870768	14.390455	-67.423193	123.878116			
11015	8.194656	1.345764	3.157592	-0.444741	-0.271719	-0.943516	14.321490	-67.377244	122.761295			
11016	8.097339	1.278400	3.104821	-0.424229	-0.213507	-1.059656	14.249557	-67.392694	121.653491			
11017	7.986164	1.305898	2.953575	-0.527632	-0.173036	-1.216209	14.166973	-67.479980	120.588014			
11018	8.148011	1.368366	3.124670	-0.491797	-0.281609	-0.997650	14.008252	-67.624288	119.566181			
11019	8.426859	1.298470	3.106835	-0.508165	-0.147202	-0.753412	13.744772	-67.784571	118.634015			
11020	8.746099	1.246125	3.143809	-0.509452	-0.052316	-0.449553	13.397710	-67.940110	117.778051			
11021	9.037932	1.029825	3.188763	-0.376411	0.128711	-0.181765	12.987410	-68.085370	116.986918			
11022	9.260821	0.789426	3.310469	-0.163860	0.240293	0.049388	12.531466	-68.218672	116.244468			
11023	9.489404	0.410492	3.216889	0.033425	0.582240	0.198578	12.077160	-68.362006	115.537721			
11024	9.589406	0.153219	3.405138	0.327234	0.593017	0.341929	11.600151	-68.499584	114.854655			
11025	9.557659	-0.175289	3.511369	0.650731	0.650738	0.329413	11.078966	-68.615555	114.195079			
11026	9.466572	-0.331873	3.548856	0.804084	0.635259	0.250623	10.568451	-68.717100	113.529511			
11027	9.421931	-0.536280	3.712045	1.057997	0.560840	0.257346	10.100728	-68.812222	112.856587			
11028	9.337988	-0.762928	3.901501	1.349107	0.458474	0.235761	9.685273	-68.894320	112.174412			
11029	9.166727	-0.955795	4.049541	1.601442	0.335352	0.120285	9.326063	-68.971288	111.483797			
11030	8.966533	-1.123783	4.149883	1.813275	0.223106	-0.037966	9.045292	-69.056510	110.778008			
11031	8.790291	-1.131922	4.265796	1.890719	0.024093	-0.160129	8.813413	-69.154185	110.079629			
11032	8.565769	-0.989062	4.423908	1.858025	-0.296054	-0.305768	8.644872	-69.257512	109.388077			
11033	8.513562	-0.755579	4.606825	1.730864	-0.618260	-0.278740	8.508993	-69.384115	108.731016			
11034	8.440964	-0.567304	4.636671	1.574772	-0.796119	-0.328144	8.391790	-69.516671	108.114518			
11035	8.396369	-0.286727	4.701566	1.345222	-1.028714	-0.335454	8.290205	-69.649270	107.543659			
