// General information: 
//  MT Manager version: 2022.0.0 
//  XDA version: 2022.0.0 build 7085 rev 119802 built on 2022-11-08
// Device information: 
//  DeviceId: 00B4938D
//  ProductCode: MTW2-3A7G6
//  Firmware Version: 4.6.0
//  Hardware Version: 2.0.0
// Device settings: 
//  Filter Profile: human(46.1)
//  Option Flags: Orientation Smoother Disabled, Position/Velocity Smoother Disabled, Continuous Zero Rotation Update Disabled, AHS Disabled, ICC Disabled
// Coordinate system: ENU
PacketCounter	Acc_X	Acc_Y	Acc_Z	FreeAcc_E	FreeAcc_N	FreeAcc_U	Roll	Pitch	Yaw	Vel_E	Vel_N	Vel_U
09830	9.373659	-0.732490	2.642140	0.050515	-0.055125	-0.046555	-14.061600	-73.543180	21.943417			
09831	9.373345	-0.735130	2.642521	0.050245	-0.054963	-0.046553	-14.111695	-73.539366	22.015433			
09832	9.418627	-0.767277	2.645490	0.064182	-0.079933	-0.000075	-14.151481	-73.532685	22.079528			
09833	9.481798	-0.793040	2.633003	0.096483	-0.094975	0.058877	-14.186007	-73.529836	22.136857			
09834	9.449830	-0.782445	2.639940	0.080140	-0.087339	0.029403	-14.207418	-73.525251	22.186268			
09835	9.471534	-0.753018	2.600568	0.119331	-0.050309	0.037347	-14.205157	-73.522715	22.221976			
09836	9.442608	-0.684456	2.517442	0.181332	0.024536	-0.018028	-14.199220	-73.520845	22.249687			
09837	9.387718	-0.670551	2.498632	0.182751	0.035577	-0.076806	-14.230539	-73.518557	22.302142			
09838	9.356100	-0.578001	2.535707	0.124068	0.120322	-0.103381	-14.278166	-73.527629	22.372623			
09839	9.375413	-0.548628	2.565225	0.092508	0.148754	-0.078775	-14.328956	-73.556739	22.456204			
09840	9.481103	-0.488621	2.588680	0.083314	0.217137	0.024855	-14.394022	-73.583116	22.542838			
09841	9.493570	-0.526891	2.430489	0.237987	0.202968	-0.003767	-14.487951	-73.601479	22.633570			
09842	9.548285	-0.570245	2.397801	0.286163	0.173582	0.042888	-14.585475	-73.610361	22.715486			
09843	9.584905	-0.620235	2.381173	0.315496	0.134593	0.077076	-14.704067	-73.620196	22.809827			
09844	9.612159	-0.685953	2.348048	0.360719	0.081328	0.098959	-14.814985	-73.627258	22.890348			
09845	9.565959	-0.767618	2.263041	0.438730	0.010800	0.037468	-14.927790	-73.634641	22.971194			
09846	9.566036	-0.772269	2.261132	0.438680	0.010787	0.037470	-15.034176	-73.635080	23.042542			
09847	9.511625	-0.819540	2.257871	0.432533	-0.036800	-0.012065	-15.143416	-73.635247	23.117715			
09848	9.510755	-0.848907	2.208032	0.482370	-0.055363	-0.024186	-15.243625	-73.634591	23.185687			
09849	9.487462	-0.850793	2.181562	0.500071	-0.051993	-0.053476	-15.352455	-73.631368	23.255959			
09850	9.464875	-0.827906	2.204074	0.468098	-0.030235	-0.070655	-15.450923	-73.626669	23.312599			
09851	9.464316	-0.775262	2.186338	0.475428	0.028504	-0.079881	-15.570565	-73.625670	23.381484			
09852	9.464312	-0.780131	2.184620	0.475377	0.028486	-0.079878	-15.686420	-73.630490	23.445509			
09853	9.451627	-0.741938	2.221699	0.427539	0.064540	-0.084753	-15.803190	-73.642517	23.509051			
09854	9.520437	-0.721739	2.228713	0.431068	0.094903	-0.018201	-15.919519	-73.663595	23.564010			
09855	9.507611	-0.707776	2.214489	0.433111	0.112418	-0.035196	-16.055116	-73.691207	23.629350			
09856	9.536043	-0.691207	2.208895	0.436023	0.136272	-0.010422	-16.210662	-73.725828	23.703953			
09857	9.659170	-0.653959	2.165684	0.495138	0.195915	0.093566	-16.376479	-73.761974	23.774188			
09858	9.736218	-0.668583	2.087828	0.582799	0.203250	0.148186	-16.558643	-73.796659	23.843536			
09859	9.827757	-0.677556	2.068200	0.618027	0.211967	0.231936	-16.748283	-73.822063	23.904955			
09860	9.881005	-0.689553	1.966533	0.723667	0.222484	0.257258	-16.936541	-73.843153	23.956350			
09861	9.854339	-0.717004	1.960179	0.720423	0.198751	0.232505	-17.131385	-73.856566	24.004356			
09862	9.837218	-0.787240	1.987264	0.694121	0.130415	0.229275	-17.318135	-73.866742	24.040864			
09863	9.746243	-0.872002	1.962831	0.700544	0.044745	0.142692	-17.498276	-73.871772	24.071976			
09864	9.664273	-0.883504	1.940154	0.699248	0.031684	0.059141	-17.654693	-73.874600	24.086551			
09865	9.600207	-0.945698	1.918648	0.708652	-0.030098	-0.002670	-17.789027	-73.867778	24.082468			
09866	9.549384	-0.967551	1.891538	0.723604	-0.050811	-0.056735	-17.892143	-73.855826	24.055987			
09867	9.498465	-0.988313	1.865369	0.738315	-0.071381	-0.110780	-17.969344	-73.841430	24.013902			
09868	9.496700	-0.955213	1.802183	0.795801	-0.031467	-0.132124	-17.996311	-73.828612	23.941689			
09869	9.578506	-0.949100	1.823469	0.796733	-0.018326	-0.048544	-17.978744	-73.822063	23.847172			
09870	9.619200	-0.885880	1.819697	0.804982	0.046721	-0.016009	-17.919960	-73.821391	23.732836			
09871	9.673517	-0.781269	1.808932	0.818337	0.153149	0.024305	-17.825760	-73.828331	23.605616			
09872	9.765796	-0.674153	1.881294	0.761735	0.257519	0.123004	-17.700834	-73.834171	23.460982			
09873	9.754044	-0.603115	1.973464	0.664076	0.312271	0.130208	-17.559304	-73.837818	23.309112			
09874	9.741219	-0.554648	2.016431	0.616543	0.348240	0.125300	-17.409195	-73.841609	23.154069			
09875	9.655539	-0.497515	2.057120	0.551892	0.385510	0.049133	-17.269180	-73.837791	23.006611			
09876	9.609436	-0.542458	2.024070	0.580128	0.333265	-0.000207	-17.155200	-73.832536	22.874612			
09877	9.584052	-0.651517	2.104051	0.511545	0.211021	0.005630	-17.050318	-73.829282	22.749673			
09878	9.558062	-0.783638	2.133945	0.493057	0.069981	-0.000636	-16.944496	-73.829767	22.622304			
09879	9.588006	-0.907920	2.230958	0.422676	-0.063072	0.063988	-16.838814	-73.833955	22.495833			
09880	9.576941	-1.115253	2.283903	0.394032	-0.280027	0.083985	-16.688836	-73.830160	22.337250			
09881	9.384328	-1.259777	2.347793	0.301920	-0.455331	-0.072754	-16.540330	-73.826534	22.184261			
09882	9.296530	-1.505249	2.372288	0.285225	-0.716841	-0.131583	-16.376225	-73.830899	22.017383			
09883	9.219123	-1.743702	2.176907	0.480766	-0.953133	-0.240224	-16.171352	-73.839166	21.818931			
09884	9.166254	-1.878273	2.092452	0.566587	-1.096837	-0.304671	-15.838043	-73.848257	21.540487			
09885	9.124828	-1.841741	2.211860	0.444890	-1.092867	-0.317716	-15.324590	-73.849296	21.149879			
09886	9.097484	-1.710774	2.428011	0.229140	-1.010425	-0.298874	-14.608326	-73.841008	20.621193			
09887	9.083134	-1.437909	2.486497	0.154797	-0.779804	-0.319459	-13.743472	-73.832338	19.964641			
09888	9.076633	-1.143150	2.561656	0.065110	-0.535143	-0.327787	-12.739990	-73.819559	19.200968			
09889	9.099622	-0.584463	2.703761	-0.113760	-0.039093	-0.302674	-11.635146	-73.810084	18.363489			
09890	9.260611	-0.058884	2.871121	-0.279603	0.427465	-0.130510	-10.476321	-73.804608	17.477620			
09891	9.456509	0.418747	3.132724	-0.523679	0.833893	0.109257	-9.301296	-73.797960	16.550556			
09892	9.741039	0.818618	3.347026	-0.689921	1.171407	0.429972	-8.143454	-73.782362	15.609537			
09893	9.960660	1.159841	3.540275	-0.846779	1.447166	0.688833	-7.068464	-73.763542	14.718758			
09894	9.961678	1.479054	3.901937	-1.218961	1.665330	0.788647	-6.039485	-73.716229	13.859562			
09895	10.013090	1.660950	4.117324	-1.414842	1.770921	0.903417	-5.060089	-73.633285	13.028443			
09896	10.245763	1.641313	4.002853	-1.211719	1.735253	1.105774	-4.182642	-73.510415	12.252263			
09897	10.389095	1.582876	3.973634	-1.101954	1.651406	1.245653	-3.434133	-73.355398	11.569302			
09898	10.516758	1.541687	3.827879	-0.882060	1.605785	1.335176	-2.791405	-73.168741	10.955356			
09899	10.465401	1.379303	3.817795	-0.819844	1.417938	1.292255	-2.234448	-72.962559	10.411761			
09900	10.428465	1.269972	3.892219	-0.838436	1.277061	1.286007	-1.774032	-72.737399	9.956467			
09901	10.469628	1.105410	3.763569	-0.633282	1.118716	1.293469	-1.426591	-72.505355	9.614018			
09902	10.268820	1.098047	3.735110	-0.617642	1.095850	1.097073	-1.182284	-72.272363	9.369670			
09903	10.360424	1.069914	3.729672	-0.534991	1.068496	1.185743	-1.000646	-72.039595	9.191162			
09904	10.279490	1.004429	3.622868	-0.402271	1.013445	1.078266	-0.904709	-71.787235	9.082360			
09905	10.074389	0.873634	3.418258	-0.206186	0.905956	0.821106	-0.890494	-71.527224	9.044599			
09906	9.737334	0.773247	3.346498	-0.182246	0.808042	0.479363	-0.942828	-71.261093	9.073485			
09907	9.419887	0.725117	3.280561	-0.168678	0.765648	0.157633	-1.071119	-70.998070	9.169543			
09908	9.268257	0.654395	3.121328	-0.016172	0.724464	-0.037911	-1.256395	-70.754474	9.320355			
09909	9.053075	0.669380	3.079996	-0.011542	0.750530	-0.256064	-1.461935	-70.520287	9.507594			
09910	8.765926	0.854521	3.186344	-0.196237	0.921053	-0.494024	-1.656053	-70.298958	9.706542			
09911	8.756924	0.924257	3.175521	-0.167464	1.006774	-0.507841	-1.834064	-70.098573	9.903899			
09912	8.562708	1.164620	3.291199	-0.345417	1.231606	-0.654518	-1.957419	-69.907381	10.057863			
09913	8.754756	1.328752	3.495028	-0.465374	1.389048	-0.406282	-2.016265	-69.723534	10.144697			
09914	8.788365	1.442687	3.427092	-0.377994	1.520961	-0.399644	-2.066247	-69.536591	10.190206			
09915	8.705674	1.569349	3.254471	-0.234923	1.673066	-0.539674	-2.156831	-69.353318	10.232473			
09916	8.460665	1.559336	3.136575	-0.180765	1.673701	-0.811662	-2.264477	-69.179249	10.286628			
09917	8.317810	1.558695	3.069309	-0.143595	1.684347	-0.970830	-2.417428	-69.030843	10.379414			
09918	8.267258	1.522683	3.275036	-0.324936	1.631538	-0.945646	-2.559313	-68.891016	10.480363			
09919	8.239995	1.514459	3.268198	-0.306960	1.634795	-0.974961	-2.719697	-68.756682	10.596084			
09920	8.022653	1.443924	3.184424	-0.278749	1.573763	-1.208388	-2.896568	-68.638714	10.717842			
09921	7.994563	1.450173	3.089079	-0.187471	1.602482	-1.271298	-3.080345	-68.553135	10.851687			
09922	8.026388	1.421270	3.138733	-0.207836	1.582150	-1.225013	-3.268812	-68.491333	10.989720			
09923	8.072920	1.423808	3.219728	-0.259545	1.590349	-1.154204	-3.470583	-68.448549	11.138938			
09924	8.151806	1.472068	3.276907	-0.286933	1.649348	-1.063153	-3.685309	-68.429180	11.298763			
09925	8.268024	1.492086	3.410763	-0.371627	1.675222	-0.909016	-3.942359	-68.433751	11.491048			
09926	8.396745	1.508410	3.468895	-0.385265	1.709196	-0.771446	-4.231679	-68.462364	11.707037			
09927	8.508186	1.516071	3.537420	-0.417745	1.733573	-0.646379	-4.549117	-68.512596	11.948488			
09928	8.561208	1.567770	3.585377	-0.461300	1.800311	-0.584841	-4.876181	-68.579561	12.195496			
09929	8.663778	1.582717	3.678581	-0.527957	1.829299	-0.459994	-5.207662	-68.672691	12.448001			
09930	8.713373	1.667106	3.727432	-0.584614	1.927637	-0.403210	-5.535546	-68.777452	12.684766			
09931	8.787193	1.684233	3.688554	-0.544318	1.970860	-0.353501	-5.873644	-68.895265	12.905874			
09932	8.904995	1.582695	3.737983	-0.555888	1.890871	-0.226660	-6.216602	-69.014822	13.111706			
09933	8.883465	1.516212	3.743258	-0.580148	1.840144	-0.246912	-6.586152	-69.135945	13.311456			
09934	8.812762	1.337356	3.799553	-0.655050	1.670494	-0.290598	-6.985654	-69.262943	13.505911			
09935	8.754705	1.203965	3.979529	-0.847723	1.535565	-0.280932	-7.372591	-69.395467	13.677704			
09936	8.813496	1.155907	4.273569	-1.116882	1.485057	-0.126390	-7.746139	-69.517787	13.823081			
09937	8.907451	1.234337	4.510660	-1.332869	1.570835	0.034556	-8.112814	-69.614160	13.936329			
09938	8.922446	1.435869	4.540663	-1.389629	1.794047	0.043257	-8.495858	-69.683642	14.013311			
09939	9.208963	1.533023	4.550914	-1.319557	1.938104	0.305042	-8.801439	-69.745277	13.997569			
09940	9.710588	1.719265	4.467924	-1.096456	2.189460	0.733297	-8.978526	-69.819934	13.858204			
09941	10.265166	2.012652	4.684850	-1.142208	2.521488	1.309798	-9.017225	-69.867785	13.592923			
09942	10.854263	1.812905	5.041439	-1.257081	2.350732	1.994580	-8.952842	-69.914802	13.187341			
09943	11.940632	1.474743	4.614508	-0.458515	2.118162	2.889689	-8.747996	-69.965125	12.599506			
09944	12.755310	0.962988	4.753627	-0.267331	1.645005	3.731488	-8.485296	-69.981410	11.904774			
09945	12.564629	0.244407	4.576910	-0.105333	0.908436	3.530527	-8.335507	-69.994040	11.237853			
09946	12.160982	-0.443034	4.540317	-0.166541	0.188158	3.173347	-8.247540	-70.051867	10.618814			
09947	12.175959	-1.141382	4.556317	-0.159109	-0.517410	3.226625	-8.137559	-70.149159	10.022262			
09948	12.314231	-1.678089	4.064158	0.343432	-1.046567	3.216522	-8.036210	-70.273731	9.526983			
09949	12.454673	-2.338415	3.564196	0.845031	-1.707299	3.212727	-7.897021	-70.446032	9.174526			
09950	12.640149	-2.561539	4.225159	0.251456	-1.948359	3.615915	-7.723623	-70.592578	8.979384			
09951	11.697366	-2.221766	4.036781	0.086440	-1.671839	2.647557	-7.567418	-70.667354	8.852047			
09952	9.949880	-1.785054	3.807927	-0.291380	-1.336082	0.902573	-7.342925	-70.715852	8.710553			
09953	8.317803	-1.192753	3.577523	-0.630103	-0.836782	-0.740205	-7.145937	-70.769216	8.639079			
09954	7.156806	-0.806876	3.023606	-0.506596	-0.509101	-2.034688	-7.057722	-70.882129	8.700563			
09955	7.168793	-0.533957	3.218303	-0.715027	-0.246288	-1.972904	-7.070686	-71.061999	8.869586			
09956	7.356854	-0.718364	2.844371	-0.320253	-0.413175	-1.909749	-7.266374	-71.272581	9.163317			
09957	7.647388	-1.020120	2.408451	0.164448	-0.680951	-1.760795	-7.665095	-71.511507	9.585008			
09958	7.958164	-1.477166	2.038298	0.593759	-1.095715	-1.559461	-8.232851	-71.761561	10.130851			
09959	8.368547	-1.955859	1.661461	1.055754	-1.519603	-1.257316	-8.943111	-72.014845	10.780857			
09960	8.774498	-2.355926	1.539937	1.266624	-1.865730	-0.878031	-9.718664	-72.247623	11.483966			
09961	9.138981	-2.858520	1.938653	0.972683	-2.325621	-0.373638	-10.430130	-72.443373	12.130791			
09962	9.230021	-3.165923	2.148389	0.775570	-2.606566	-0.198317	-10.962791	-72.593691	12.628211			
09963	9.247856	-3.298560	2.204324	0.706536	-2.721966	-0.150698	-11.305629	-72.699528	12.972199			
09964	8.898969	-3.040443	2.234671	0.550621	-2.478434	-0.486173	-11.496611	-72.773401	13.198952			
09965	8.613132	-2.566325	2.342727	0.336356	-2.022533	-0.754174	-11.586934	-72.837169	13.352745			
09966	8.388053	-1.990708	2.416474	0.171015	-1.465062	-0.981717	-11.587416	-72.897887	13.454075			
09967	8.400360	-1.298990	2.392190	0.161830	-0.776836	-1.018011	-11.537802	-72.966333	13.520837			
09968	8.599549	-0.908856	2.384958	0.198392	-0.378757	-0.852584	-11.482811	-73.057127	13.573506			
09969	8.928047	-0.731960	2.249931	0.398041	-0.181194	-0.586817	-11.465524	-73.168491	13.645423			
09970	9.161285	-0.859129	2.195228	0.502794	-0.294059	-0.370920	-11.509002	-73.302342	13.749042			
09971	9.473581	-1.023105	2.293306	0.479741	-0.441132	-0.033632	-11.604600	-73.454650	13.883764			
09972	9.622486	-1.276083	2.101614	0.689975	-0.678061	0.071720	-11.740658	-73.615657	14.042489			
09973	9.712009	-1.542203	1.911937	0.880690	-0.931151	0.122819	-11.890619	-73.783049	14.229879			
09974	9.702197	-1.611207	1.910302	0.853687	-0.999241	0.119610	-12.066665	-73.954307	14.474704			
09975	9.631965	-1.571601	1.815209	0.894560	-0.958658	0.027045	-12.279846	-74.129820	14.783399			
09976	9.549147	-1.406150	1.890911	0.760528	-0.797521	-0.039024	-12.539830	-74.314453	15.171208			
09977	9.544027	-1.075540	1.824425	0.772912	-0.459120	-0.077931	-12.871775	-74.501057	15.642748			
09978	9.440469	-0.721507	1.851956	0.666212	-0.105137	-0.188875	-13.278775	-74.682734	16.205869			
09979	9.377718	-0.430202	1.737722	0.709152	0.198083	-0.294069	-13.774065	-74.856137	16.854172			
09980	9.202065	-0.117758	1.662275	0.685240	0.515109	-0.500329	-14.328644	-75.014189	17.566164			
09981	9.093726	0.050758	1.670940	0.606050	0.691820	-0.612446	-14.951221	-75.167069	18.331033			
09982	9.079532	0.142177	1.555515	0.674840	0.806975	-0.660038	-15.639895	-75.315572	19.143400			
09983	9.164483	0.100785	1.565572	0.654719	0.793140	-0.571959	-16.348422	-75.459816	19.970492			
09984	9.305199	-0.036096	1.555544	0.674228	0.690931	-0.427825	-17.073267	-75.596310	20.819171			
09985	9.554560	-0.080699	1.405824	0.848114	0.699559	-0.217707	-17.822677	-75.717386	21.691689			
09986	9.630869	-0.129851	1.181530	1.056431	0.694530	-0.191462	-18.557068	-75.820222	22.563411			
09987	9.816073	-0.201704	1.335108	0.927251	0.656195	0.030483	-19.257428	-75.897015	23.428137			
09988	9.919066	-0.202953	1.584582	0.684652	0.674776	0.188103	-19.935629	-75.943035	24.279353			
09989	9.940983	-0.062597	1.624194	0.620374	0.839481	0.206065	-20.579957	-75.954541	25.090130			
09990	9.926397	-0.021542	1.810891	0.418430	0.892177	0.229325	-21.187092	-75.939766	25.864289			
09991	9.755638	0.084910	1.897883	0.277617	0.999216	0.071951	-21.751743	-75.896238	26.580516			
09992	9.578615	0.145460	1.963299	0.165422	1.060313	-0.092919	-22.265899	-75.827960	27.236064			
09993	9.415799	0.193729	1.893608	0.192408	1.119413	-0.273799	-22.736469	-75.742386	27.821642			
09994	9.226064	0.166247	1.767216	0.278981	1.103851	-0.486671	-23.178975	-75.644249	28.362462			
09995	9.163750	0.172022	1.643358	0.388522	1.134684	-0.578726	-23.584608	-75.550380	28.851687			
09996	9.150221	0.115486	1.509895	0.524670	1.108759	-0.619483	-23.943992	-75.461477	29.283981			
09997	9.219303	0.064750	1.393989	0.661907	1.095832	-0.576674	-24.258553	-75.371411	29.656677			
09998	9.275610	-0.006341	1.555608	0.530978	1.038074	-0.480092	-24.519049	-75.277132	29.978575			
09999	9.214640	0.081742	1.688664	0.386358	1.123641	-0.519895	-24.743041	-75.180263	30.248380			
10000	9.221351	0.117664	1.577607	0.499873	1.184849	-0.545420	-24.946086	-75.083972	30.477909			
10001	9.285735	0.159204	1.605059	0.490666	1.246794	-0.483638	-25.150411	-75.003520	30.675871			
10002	9.455519	0.237051	1.535367	0.593760	1.365800	-0.346833	-25.378689	-74.934094	30.869878			
10003	9.543486	0.273597	1.658664	0.495545	1.417177	-0.239277	-25.588415	-74.870323	31.018392			
10004	9.583533	0.375645	1.791475	0.371061	1.525453	-0.183052	-25.782211	-74.809013	31.129314			
10005	9.633837	0.492464	1.941562	0.230978	1.648033	-0.114563	-25.976148	-74.753700	31.212465			
10006	9.719499	0.564700	2.001641	0.190989	1.738792	-0.028300	-26.195575	-74.702075	31.295340			
10007	9.760455	0.441525	1.899961	0.316634	1.643402	-0.000948	-26.476057	-74.655817	31.418292			
10008	9.734653	0.203307	1.790733	0.443020	1.427534	-0.026096	-26.841266	-74.615062	31.634057			
10009	9.831875	-0.147118	1.658628	0.625187	1.121749	0.076157	-27.300965	-74.583750	31.972255			
10010	10.051176	-0.554923	1.562256	0.800856	0.777178	0.312987	-27.817782	-74.554578	32.428445			
10011	10.353728	-0.888201	1.663797	0.794346	0.508168	0.669084	-28.302765	-74.515252	32.924294			
10012	10.643594	-1.048207	1.595001	0.936506	0.420291	0.951844	-28.676542	-74.461860	33.397796			
10013	10.907413	-1.095103	1.771947	0.829544	0.422028	1.252774	-28.854072	-74.389493	33.763720			
10014	10.891572	-1.018619	2.102489	0.507022	0.486947	1.304424	-28.812848	-74.302141	33.994824			
10015	10.805445	-0.750037	2.610182	-0.019930	0.705999	1.306413	-28.611573	-74.240347	34.095027			
10016	10.945354	-0.365145	3.061021	-0.458282	1.065070	1.499233	-28.354219	-74.219296	34.132267			
10017	11.124203	0.054965	2.989946	-0.396731	1.500436	1.601425	-28.179176	-74.239417	34.177984			
10018	11.308876	0.291651	2.775952	-0.184248	1.770527	1.698738	-28.156999	-74.293707	34.276870			
10019	11.359629	0.230333	2.750339	-0.158063	1.713572	1.750065	-28.297436	-74.396986	34.446192			
10020	11.931758	0.096411	2.514728	0.182556	1.684322	2.263306	-28.636233	-74.570976	34.690925			
10021	12.654469	-0.663755	2.173172	0.715861	1.067704	2.979737	-29.110647	-74.803049	34.922093			
10022	12.925439	-1.601994	1.296696	1.676972	0.243681	3.165867	-29.546011	-75.035275	35.023310			
10023	12.261029	-2.631470	0.997141	1.887163	-0.866926	2.594511	-29.835905	-75.224281	34.922448			
10024	11.565173	-4.132671	1.302657	1.550586	-2.494147	2.183303	-29.974231	-75.382342	34.708825			
10025	10.699158	-5.078896	1.110480	1.610821	-3.562117	1.421938	-29.873916	-75.467329	34.324589			
10026	9.550145	-5.693225	0.942178	1.576333	-4.339662	0.345475	-29.563008	-75.463571	33.861820			
10027	8.221954	-5.827686	0.751929	1.504514	-4.660987	-0.973036	-29.006341	-75.393134	33.313168			
10028	7.063758	-5.426322	1.084460	0.931928	-4.457395	-2.080891	-28.190289	-75.307371	32.724879			
10029	6.402302	-4.630982	1.743016	0.120853	-3.822522	-2.681976	-27.137994	-75.253766	32.068792			
10030	6.552740	-3.614560	2.316678	-0.457468	-2.868694	-2.537287	-25.865174	-75.238322	31.285984			
10031	6.821532	-2.480577	2.747441	-0.896370	-1.790213	-2.314266	-24.406957	-75.247776	30.322459			
10032	7.577528	-1.443820	3.094646	-1.152973	-0.754829	-1.616293	-22.846694	-75.299647	29.233103			
10033	8.229788	-0.492697	3.355610	-1.354357	0.175371	-1.016846	-21.237345	-75.373437	28.010921			
10034	9.188141	0.226351	3.338417	-1.198968	0.931969	-0.152890	-19.671854	-75.449306	26.716201			
10035	9.830139	0.529573	3.348831	-1.089920	1.236613	0.454214	-18.282932	-75.516308	25.456576			
10036	10.319399	0.402878	3.267067	-0.867143	1.115611	0.926459	-17.107882	-75.550088	24.294805			
10037	10.718234	-0.117883	2.950913	-0.382571	0.631346	1.280427	-16.169445	-75.541360	23.283396			
10038	11.031578	-0.868311	2.537273	0.211086	-0.067913	1.538001	-15.435319	-75.472675	22.444583			
10039	10.849329	-1.610811	2.227282	0.592634	-0.809214	1.334388	-14.864717	-75.351588	21.778347			
10040	10.564244	-2.094084	2.096472	0.747681	-1.315022	1.054474	-14.356883	-75.187850	21.249451			
10041	9.924479	-2.089993	2.258026	0.478117	-1.398281	0.472161	-13.854064	-74.997567	20.803354			
10042	9.241606	-1.870260	2.383112	0.205977	-1.266476	-0.172260	-13.328463	-74.798476	20.403177			
10043	9.026298	-1.296992	2.594243	-0.084130	-0.754077	-0.362265	-12.735654	-74.614422	19.990855			
10044	8.743187	-0.555805	2.827014	-0.438330	-0.089482	-0.617909	-12.056209	-74.430711	19.513757			
10045	8.577644	0.259206	3.064578	-0.782102	0.653246	-0.757511	-11.311096	-74.242113	18.941676			
10046	8.570963	0.959104	3.209606	-0.982984	1.305359	-0.756613	-10.581272	-74.045734	18.321713			
10047	8.673974	1.305567	3.157206	-0.916546	1.643921	-0.682102	-9.932379	-73.841575	17.703811			
10048	8.871943	1.423361	3.053564	-0.741312	1.776332	-0.519866	-9.444307	-73.630433	17.168539			
10049	9.003301	1.324713	2.792068	-0.401894	1.715344	-0.458230	-9.135058	-73.419984	16.744488			
10050	9.130127	1.054799	2.804221	-0.301345	1.457290	-0.319488	-8.963575	-73.213768	16.427436			
10051	9.170051	0.703455	2.681287	-0.087652	1.132748	-0.300429	-8.923446	-73.005386	16.231334			
10052	9.007191	0.343470	2.665785	-0.034312	0.775552	-0.445132	-8.994082	-72.788848	16.134526			
10053	8.689613	0.002778	2.668342	-0.048663	0.426064	-0.732741	-9.122711	-72.573272	16.101885			
10054	8.499428	-0.195651	2.681310	-0.059078	0.227546	-0.901311	-9.254480	-72.366383	16.092194			
10055	8.231134	-0.254459	2.813050	-0.226383	0.147207	-1.114609	-9.375952	-72.172461	16.100081			
10056	7.888970	-0.249160	2.917202	-0.401454	0.126778	-1.408480	-9.529876	-71.999275	16.156451			
10057	7.531304	-0.153721	2.833099	-0.420559	0.213774	-1.778510	-9.743846	-71.864914	16.265959			
10058	7.345701	-0.100434	2.731911	-0.374742	0.275721	-1.988605	-10.028626	-71.781586	16.441762			
10059	7.245668	-0.023373	2.737450	-0.414278	0.357899	-2.086489	-10.345559	-71.739274	16.670943			
10060	7.119416	0.236563	2.620280	-0.372487	0.630549	-2.258116	-10.711962	-71.732018	16.964983			
10061	7.152559	0.317751	2.373309	-0.144824	0.751682	-2.308913	-11.099239	-71.777221	17.306624			
10062	7.377173	0.525795	2.650262	-0.377549	0.964157	-2.024822	-11.416793	-71.866092	17.648976			
10063	7.716305	0.757799	2.988483	-0.642718	1.201251	-1.615705	-11.661042	-71.973107	17.948635			
10064	8.014917	0.916064	3.239458	-0.830635	1.366219	-1.267769	-11.834579	-72.080380	18.163085			
10065	8.414558	0.944017	3.595688	-1.074549	1.397804	-0.784045	-11.911783	-72.203056	18.247939			
10066	8.777467	0.958802	3.138747	-0.557077	1.485822	-0.577054	-11.892255	-72.346310	18.174520			
10067	9.408474	0.989700	3.133747	-0.393300	1.566293	0.021501	-11.765220	-72.482913	17.966128			
10068	9.831319	1.133385	3.525782	-0.674530	1.699765	0.532665	-11.629985	-72.564295	17.699005			
10069	9.971424	1.015491	3.000570	-0.125504	1.635784	0.520385	-11.547244	-72.613705	17.391804			
10070	10.461853	0.657771	2.835702	0.209109	1.329267	0.962912	-11.371966	-72.676729	16.994061			
10071	11.093901	0.392702	3.469665	-0.189060	1.047398	1.768962	-10.973298	-72.737966	16.430790			
10072	11.153745	0.392034	3.849503	-0.530241	0.993132	1.939370	-10.466905	-72.752494	15.762954			
10073	10.798497	0.484537	3.937500	-0.715370	1.021881	1.623665	-9.971503	-72.759574	15.084761			
10074	10.637147	0.895599	3.887824	-0.745379	1.394879	1.437416	-9.453957	-72.788300	14.401196			
10075	10.623349	1.556815	4.372342	-1.268584	1.989401	1.537622	-9.018659	-72.846757	13.772873			
10076	10.714938	1.988989	4.719547	-1.612433	2.384827	1.709150	-8.782723	-72.948701	13.213185			
10077	12.067838	1.668319	4.421391	-0.922367	2.168364	2.931415	-8.669413	-73.095993	12.631972			
10078	13.710450	1.300692	3.509478	0.429974	1.950298	4.258421	-8.607611	-73.228944	12.080599			
10079	14.363786	0.669822	3.426378	0.719134	1.353434	4.889629	-8.658573	-73.346178	11.668836			
10080	13.917752	-0.598433	3.767703	0.316263	0.044373	4.614906	-8.801786	-73.465923	11.351512			
10081	13.896661	-1.752867	3.901238	0.211989	-1.112898	4.683031	-8.871074	-73.533984	10.982937			
10082	14.156479	-3.007720	3.424802	0.776480	-2.344677	4.852956	-8.724119	-73.547068	10.579461			
10083	14.014610	-4.497122	3.145868	1.057924	-3.850658	4.698793	-8.413488	-73.525019	10.200687			
10084	13.452123	-5.824004	3.284096	0.837916	-5.225787	4.246218	-8.108451	-73.414629	9.973533			
10085	11.171010	-5.209376	2.132672	1.322331	-4.702317	1.703247	-7.954758	-73.218605	9.995587			
10086	8.594737	-2.786018	2.589204	0.097041	-2.423084	-0.732240	-7.890467	-73.067058	10.202046			
10087	7.035598	-0.165601	3.364662	-1.190334	0.085228	-2.104001	-7.861903	-72.989309	10.423962			
10088	6.338350	1.123556	3.253685	-1.344757	1.336936	-2.853682	-7.954124	-72.950817	10.667187			
10089	5.822718	1.811578	2.911881	-1.202697	2.012941	-3.474983	-8.198035	-72.920278	10.930497			
10090	5.700043	2.048192	2.731632	-1.076368	2.260795	-3.658208	-8.605765	-72.912411	11.192213			
10091	6.247539	1.313275	2.610378	-0.764260	1.580764	-3.142788	-9.132566	-72.967293	11.431633			
10092	7.089907	0.048338	2.104216	0.012223	0.402546	-2.427932	-9.704415	-73.078225	11.607414			
10093	7.780418	-1.375757	1.542923	0.780807	-0.950588	-1.856881	-10.197465	-73.223802	11.654319			
10094	8.568289	-2.801884	1.352356	1.195925	-2.319172	-1.078499	-10.553335	-73.382687	11.583189			
10095	9.393353	-3.859958	1.302807	1.454880	-3.328124	-0.239894	-10.806265	-73.543761	11.464719			
10096	10.233568	-4.742038	1.235401	1.722381	-4.164589	0.600213	-10.978401	-73.681647	11.371619			
10097	10.463492	-5.024047	1.349166	1.643447	-4.436350	0.872058	-11.083140	-73.777037	11.340968			
10098	10.023921	-4.507470	1.461482	1.389599	-3.943172	0.456325	-11.204203	-73.826169	11.455560			
10099	9.274230	-3.529060	1.731011	0.909276	-3.000726	-0.240286	-11.362047	-73.845687	11.710850			
10100	8.662038	-2.406255	1.928236	0.538771	-1.905468	-0.833936	-11.539220	-73.860177	12.054600			
10101	8.359737	-1.236963	2.108539	0.262356	-0.748246	-1.139020	-11.705109	-73.895293	12.407990			
10102	8.244751	-0.459370	2.239623	0.083703	0.025744	-1.257269	-11.826086	-73.938651	12.692022			
10103	8.247941	-0.037458	2.062769	0.235849	0.450816	-1.325870	-11.902050	-74.002692	12.888242			
10104	8.291861	0.051680	2.027525	0.266933	0.542359	-1.297814	-11.910630	-74.094284	12.974603			
10105	8.745346	-0.045167	2.009037	0.391539	0.470038	-0.860309	-11.887864	-74.221420	12.993181			
10106	8.964193	-0.360713	1.908285	0.535291	0.163719	-0.657632	-11.840414	-74.354854	12.960973			
10107	9.285651	-0.652152	1.738518	0.769853	-0.113382	-0.375236	-11.762253	-74.500183	12.902372			
10108	9.327014	-1.048951	1.620681	0.883347	-0.513563	-0.342946	-11.696081	-74.637094	12.860468			
10109	9.317496	-1.235125	1.559832	0.923864	-0.705757	-0.356331	-11.663285	-74.769122	12.872775			
10110	9.210001	-1.245107	1.404572	1.027128	-0.723663	-0.497725	-11.692666	-74.891534	12.969997			
10111	9.153404	-1.088869	1.322265	1.068524	-0.569605	-0.579454	-11.818271	-75.014333	13.187986			
10112	9.129118	-0.885502	1.382981	0.977607	-0.364392	-0.595908	-12.045517	-75.135445	13.534269			
10113	9.092260	-0.578562	1.327509	0.990918	-0.050025	-0.659451	-12.392778	-75.254499	14.010529			
10114	9.158915	-0.297544	1.337142	0.965966	0.248041	-0.605759	-12.837838	-75.368258	14.600883			
10115	9.121033	-0.024020	1.301535	0.957811	0.535807	-0.664832	-13.323223	-75.475100	15.236239			
10116	9.024450	0.185515	1.554186	0.658856	0.748478	-0.707950	-13.782754	-75.568856	15.850455			
10117	8.991804	0.318176	1.567486	0.611224	0.892885	-0.744066	-14.210564	-75.658118	16.420230			
10118	9.002083	0.376782	1.553422	0.604895	0.965744	-0.741085	-14.603679	-75.737956	16.945979			
10119	9.223018	0.423218	1.576691	0.613995	1.039363	-0.524424	-14.961211	-75.805348	17.428606			
10120	9.410399	0.458939	1.560401	0.656810	1.101285	-0.349240	-15.293458	-75.847747	17.875340			
10121	9.475047	0.420103	1.607059	0.617528	1.078339	-0.273743	-15.619122	-75.862818	18.312404			
10122	9.529478	0.365246	1.641333	0.593795	1.040937	-0.210492	-15.959847	-75.843088	18.766946			
10123	9.498306	0.292980	1.809385	0.426513	0.976757	-0.198035	-16.324046	-75.785919	19.259595			
10124	9.485482	0.233004	1.820944	0.420316	0.935621	-0.205794	-16.718964	-75.691509	19.801935			
10125	9.575382	0.212623	1.743930	0.526541	0.950154	-0.138271	-17.148383	-75.559701	20.384958			
10126	9.507533	0.147785	1.480412	0.785205	0.920488	-0.265819	-17.631870	-75.388011	21.006380			
10127	9.506089	0.038219	1.392083	0.896514	0.849020	-0.284814	-18.183400	-75.190000	21.676474			
10128	9.520497	-0.110427	1.502086	0.826131	0.734654	-0.237410	-18.762601	-74.963353	22.360801			
10129	9.533447	-0.300299	1.371684	0.996598	0.594294	-0.246513	-19.332550	-74.695791	23.010527			
10130	9.445310	-0.304673	1.560520	0.825353	0.613925	-0.289895	-19.896089	-74.401674	23.633901			
10131	9.166143	-0.220070	1.609300	0.737241	0.707177	-0.559980	-20.396959	-74.102369	24.171167			
10132	8.933150	0.187935	1.572186	0.716914	1.125529	-0.838988	-20.813563	-73.817594	24.580423			
10133	8.629281	0.842666	1.545858	0.645132	1.772044	-1.209910	-21.134114	-73.571946	24.827973			
10134	8.432277	1.367300	1.539654	0.588006	2.292388	-1.461492	-21.362795	-73.378246	24.921003			
10135	8.488079	1.565202	1.290781	0.850614	2.520802	-1.500923	-21.494064	-73.266328	24.861172			
10136	8.862966	1.335184	1.184632	1.082516	2.346401	-1.148924	-21.523072	-73.250689	24.701301			
10137	9.544669	0.942298	1.039735	1.430453	2.038572	-0.492403	-21.488116	-73.319891	24.507457			
10138	10.434633	0.325688	1.260856	1.479634	1.512133	0.487870	-21.447574	-73.459855	24.364039			
10139	11.538920	-0.349442	1.334814	1.713978	0.953432	1.641729	-21.413017	-73.627669	24.305154			
10140	12.470469	-0.796648	1.413807	1.877285	0.600810	2.607492	-21.381267	-73.768542	24.350137			
10141	12.941304	-0.952135	1.711555	1.695889	0.480844	3.156740	-21.349765	-73.863605	24.479834			
10142	12.948624	-0.817838	2.304327	1.099432	0.587258	3.305696	-21.331776	-73.925161	24.669964			
10143	12.603466	-0.491144	2.455363	0.830526	0.863500	2.981138	-21.342838	-73.963877	24.886725			
10144	11.813057	-0.352912	2.630816	0.441570	0.900983	2.253269	-21.396981	-74.003271	25.108118			
10145	11.026397	-0.708820	2.907256	-0.008245	0.439541	1.604085	-21.421490	-74.087911	25.250387			
10146	10.796842	-0.293366	2.745114	0.036724	0.823613	1.300986	-21.411235	-74.241117	25.253992			
10147	11.168619	-0.942633	3.306818	-0.401677	0.174654	1.865050	-21.390961	-74.517625	25.116997			
10148	11.575997	-1.765517	3.222035	-0.215115	-0.620755	2.314564	-21.282347	-74.854524	24.770388			
10149	11.319739	-3.084685	2.571549	0.382261	-1.964547	2.030392	-21.110715	-75.179952	24.243618			
10150	10.549614	-4.823405	1.829184	0.963590	-3.780315	1.263666	-20.941291	-75.486159	23.676353			
10151	10.078210	-6.394726	1.016358	1.659589	-5.400761	0.750113	-20.707538	-75.789238	23.139741			
10152	9.631466	-7.356432	0.740133	1.817352	-6.432667	0.323768	-20.224570	-76.071894	22.608445			
10153	9.493991	-7.213028	1.076814	1.427544	-6.355714	0.231712	-19.378161	-76.342135	22.034721			
10154	9.731290	-6.184582	1.611593	0.912720	-5.379159	0.472036	-18.230663	-76.585769	21.420594			
10155	10.076250	-4.375233	2.198520	0.324427	-3.634995	0.779200	-16.874180	-76.803363	20.750048			
10156	10.221095	-2.484728	2.950658	-0.501009	-1.855735	0.941651	-15.472978	-76.989581	20.083589			
10157	10.311432	-0.607332	3.748671	-1.419816	-0.116058	1.083052	-14.136979	-77.139572	19.439150			
10158	10.461217	0.921387	4.179194	-1.968947	1.302669	1.240707	-13.012499	-77.255400	18.868257			
10159	10.457390	1.963465	4.250634	-2.167606	2.268302	1.207118	-12.117988	-77.334671	18.330973			
10160	10.534816	2.470135	3.921781	-1.897531	2.765547	1.197095	-11.391913	-77.357317	17.756031			
10161	10.250249	2.362689	3.556198	-1.580082	2.650999	0.853705	-10.789634	-77.301361	17.110738			
10162	9.838906	1.854975	3.257426	-1.288829	2.137609	0.415961	-10.242891	-77.156790	16.370850			
10163	9.629176	1.127133	2.875773	-0.837287	1.433844	0.162499	-9.739621	-76.928423	15.563056			
10164	8.851394	0.297053	2.376658	-0.381540	0.607060	-0.671047	-9.290439	-76.628047	14.746035			
10165	8.458498	-0.392437	2.064881	-0.047351	-0.075012	-1.097421	-8.916755	-76.319918	13.981520			
10166	8.345132	-0.900171	1.924873	0.154978	-0.576116	-1.221960	-8.615167	-76.016130	13.307139			
10167	8.160164	-1.084429	1.878402	0.213886	-0.768004	-1.406919	-8.302590	-75.719652	12.661479			
10168	8.149333	-1.103253	1.941944	0.192129	-0.794525	-1.402478	-7.979610	-75.421457	12.045575			
10169	7.982680	-0.996521	2.045022	0.084546	-0.707853	-1.542863	-7.599941	-75.126504	11.417133			
10170	7.707347	-0.898098	2.175316	-0.076913	-0.637994	-1.779712	-7.163396	-74.841669	10.761474			
10171	7.537028	-0.814160	2.295582	-0.206137	-0.577769	-1.915666	-6.721515	-74.606051	10.130029			
10172	7.667816	-0.771425	2.575700	-0.414227	-0.554106	-1.716636	-6.261441	-74.416747	9.501659			
10173	7.914984	-0.702394	2.841191	-0.583726	-0.498999	-1.408943	-5.838097	-74.272488	8.919871			
10174	8.146782	-0.556780	3.008232	-0.669754	-0.361636	-1.143769	-5.521936	-74.147248	8.444965			
10175	8.309063	-0.538411	3.107491	-0.704615	-0.347476	-0.960023	-5.315791	-74.044166	8.079589			
10176	8.562399	-0.589570	3.116619	-0.626844	-0.392012	-0.711645	-5.196447	-73.954865	7.805026			
10177	8.806982	-0.636296	3.156479	-0.583399	-0.431226	-0.463631	-5.155102	-73.878976	7.625138			
10178	8.853318	-0.708954	3.068787	-0.471631	-0.496424	-0.440792	-5.172992	-73.803424	7.528906			
10179	8.799614	-0.587530	2.927605	-0.345790	-0.367782	-0.533980	-5.245919	-73.734034	7.523931			
10180	8.624867	-0.352865	2.743210	-0.218207	-0.127366	-0.758726	-5.373239	-73.676221	7.609597			
10181	8.348680	0.050692	2.526325	-0.098157	0.280405	-1.095058	-5.555868	-73.640698	7.785097			
10182	8.202604	0.505362	2.405731	-0.040754	0.742282	-1.281979	-5.796941	-73.632960	8.043733			
10183	8.199292	0.898601	2.335185	0.006107	1.148016	-1.317337	-6.082758	-73.650389	8.351997			
10184	8.210860	1.239536	2.128830	0.186115	1.508424	-1.376066	-6.428251	-73.683300	8.714125			
10185	8.301879	1.500870	2.050958	0.265044	1.790466	-1.321269	-6.837763	-73.736605	9.126781			
10186	8.439804	1.767311	2.350011	-0.007262	2.070419	-1.118465	-7.349881	-73.794426	9.613945			
10187	8.547947	1.890807	2.780340	-0.407103	2.208802	-0.906048	-8.034921	-73.842972	10.191081			
10188	8.572585	1.823380	2.897864	-0.518000	2.173233	-0.856118	-8.950036	-73.884318	10.869560			
10189	8.670229	1.417179	2.884125	-0.471216	1.813466	-0.757933	-9.908936	-73.959311	11.545078			
10190	9.104114	1.095423	3.105698	-0.570630	1.548575	-0.272960	-10.673227	-74.063201	12.063731			
10191	9.558335	0.941741	3.115598	-0.468821	1.448860	0.169123	-11.182426	-74.135997	12.350572			
10192	9.810803	0.700785	3.368194	-0.644839	1.241712	0.489254	-11.569389	-74.149057	12.490132			
10193	9.835376	0.188593	2.850976	-0.126825	0.756260	0.400549	-11.955093	-74.127839	12.554501			
10194	9.935638	-0.231762	2.228436	0.510019	0.360479	0.353259	-12.275305	-74.112865	12.532976			
10195	10.122640	-0.457643	2.211074	0.579898	0.154048	0.541351	-12.402085	-74.111562	12.370469			
10196	10.110690	-0.352781	2.664865	0.141331	0.261346	0.645024	-12.305520	-74.092060	12.065111			
10197	9.716853	0.060173	2.839296	-0.125998	0.646442	0.289227	-12.084664	-74.056138	11.670064			
10198	9.464556	0.523504	3.175575	-0.508234	1.088616	0.111664	-11.742116	-74.039185	11.187961			
10199	9.954073	1.242225	3.371398	-0.554860	1.816656	0.598117	-11.233319	-74.043661	10.566898			
10200	10.568067	2.013598	4.001001	-0.979106	2.602585	1.323489	-10.599214	-74.017431	9.823179			
10201	10.933714	2.382827	4.439017	-1.275342	2.968368	1.784338	-9.974118	-73.946387	9.016298			
10202	11.948576	1.924101	4.438077	-0.971690	2.526814	2.790410	-9.402536	-73.901906	8.134781			
10203	13.668450	1.159930	4.101348	-0.162195	1.790865	4.391516	-8.875504	-73.888756	7.179703			
10204	14.483271	-0.013695	3.941663	0.200443	0.610965	5.183596	-8.541720	-73.913644	6.277830			
10205	14.521876	-1.401214	3.980163	0.115103	-0.789437	5.288751	-8.472143	-73.981769	5.528835			
10206	14.610933	-2.755033	4.029202	0.002819	-2.136589	5.443097	-8.560659	-73.992140	4.917536			
10207	14.887888	-3.786220	2.943239	1.033420	-3.231295	5.456171	-8.606562	-73.974616	4.408049			
10208	14.921285	-4.744187	2.616884	1.276535	-4.224212	5.436135	-8.363225	-73.931334	3.966625			
10209	13.104290	-5.041370	3.003120	0.402597	-4.545890	3.800878	-8.005327	-73.791354	3.701100			
10210	10.086531	-5.414573	2.288216	0.268204	-5.042820	0.712968	-7.759899	-73.606747	3.678589			
10211	7.729469	-4.401113	1.900266	0.093582	-4.108171	-1.698536	-7.709112	-73.401057	3.911968			
10212	6.187030	-1.720111	2.412432	-0.632824	-1.427268	-3.132844	-7.822658	-73.183774	4.289278			
10213	5.013520	0.942993	2.730335	-1.103811	1.229057	-4.267387	-8.092104	-72.994928	4.709279			
10214	4.561503	2.391263	2.872851	-1.285663	2.679380	-4.718896	-8.463106	-72.888376	5.146594			
10215	4.965838	2.449495	2.794403	-1.085026	2.754334	-4.362494	-8.901009	-72.863307	5.510099			
10216	6.443239	1.279517	2.168206	-0.112171	1.602744	-3.084224	-9.283721	-72.889678	5.651108			
10217	8.056544	-0.454446	2.174794	0.248352	-0.069344	-1.459386	-9.514328	-73.003542	5.535912			
10218	9.370844	-1.921816	2.281310	0.408039	-1.484995	-0.099880	-9.583773	-73.192360	5.227779			
10219	10.430054	-3.190957	1.622929	1.203492	-2.782120	0.789823	-9.544636	-73.424336	4.831053			
10220	11.042681	-4.417664	1.257942	1.572846	-4.033541	1.336094	-9.516054	-73.646514	4.521662			
10221	11.252193	-5.398030	1.162762	1.585385	-5.022304	1.561202	-9.560355	-73.859440	4.431176			
10222	10.917064	-5.539901	1.446280	1.165662	-5.144022	1.329336	-9.698757	-74.053618	4.615449			
10223	10.047643	-4.690221	1.552669	0.873219	-4.299324	0.488641	-9.903560	-74.196166	5.024228			
10224	9.064251	-3.330973	2.030242	0.248835	-2.915508	-0.388474	-10.178351	-74.300567	5.604341			
10225	8.417491	-1.724393	2.109624	0.112182	-1.313578	-1.063967	-10.483712	-74.380423	6.257842			
10226	7.909742	-0.454731	2.102177	0.059347	-0.053264	-1.616129	-10.748612	-74.467814	6.877655			
10227	7.457448	0.531174	2.071698	0.011835	0.919107	-2.109267	-10.887179	-74.566742	7.364627			
10228	7.507587	0.854044	2.027178	0.063698	1.240973	-2.088791	-10.913467	-74.701881	7.678867			
10229	7.857467	0.676043	1.883551	0.258908	1.063852	-1.778653	-10.831369	-74.869501	7.828469			
10230	8.288789	0.246970	1.754513	0.447779	0.637175	-1.372500	-10.679148	-75.052533	7.868064			
10231	8.649950	-0.182312	1.786649	0.462420	0.214279	-0.992984	-10.493335	-75.240738	7.846195			
10232	8.960812	-0.577222	1.657201	0.621846	-0.185398	-0.704751	-10.317154	-75.430732	7.816128			
10233	9.147008	-1.014379	1.518507	0.757415	-0.631022	-0.537416	-10.167610	-75.622186	7.817245			
10234	9.280460	-1.368728	1.374581	0.889807	-0.992937	-0.425884	-10.104825	-75.805367	7.924954			
10235	9.462312	-1.437809	1.187879	1.086192	-1.064978	-0.289051	-10.149108	-75.986736	8.166714			
10236	9.453909	-1.350373	1.165001	1.083392	-0.974831	-0.303059	-10.312424	-76.156254	8.552940			
10237	9.472522	-1.068232	1.175651	1.060385	-0.683071	-0.291086	-10.574354	-76.308145	9.068289			
10238	9.249275	-0.593380	1.385985	0.791366	-0.198110	-0.476919	-10.928403	-76.434580	9.690394			
10239	9.226738	-0.082209	1.601089	0.562260	0.331147	-0.470467	-11.324131	-76.559456	10.344627			
10240	9.388812	0.334216	1.763215	0.421873	0.770484	-0.294351	-11.692673	-76.676119	10.953391			
10241	9.524227	0.567898	1.748701	0.443592	1.020568	-0.176663	-11.999404	-76.785392	11.479168			
10242	9.577855	0.675565	1.844044	0.339952	1.140408	-0.108253	-12.246450	-76.882476	11.923398			
10243	9.583864	0.688806	1.874101	0.290473	1.160575	-0.096422	-12.455204	-76.974877	12.310023			
10244	9.613797	0.831421	1.655257	0.489717	1.307677	-0.122159	-12.624220	-77.065888	12.645106			
10245	9.516122	0.894914	1.600694	0.500995	1.370167	-0.231911	-12.784321	-77.156616	12.963946			
10246	9.469053	0.970946	1.645358	0.426701	1.447691	-0.271462	-12.948275	-77.245214	13.288136			
10247	9.335345	1.108786	1.515887	0.502953	1.582776	-0.436238	-13.130901	-77.330929	13.629536			
10248	9.372991	1.113493	1.538493	0.469559	1.594788	-0.394836	-13.360200	-77.409173	14.018656			
10249	9.416268	1.084240	1.551726	0.448176	1.574837	-0.348622	-13.618832	-77.470882	14.444331			
10250	9.547385	0.918388	1.632340	0.387067	1.424970	-0.196027	-13.912343	-77.487138	14.901644			
10251	9.479153	0.751966	1.551745	0.449837	1.269460	-0.272572	-14.296111	-77.449678	15.440775			
10252	9.408490	0.475419	1.465351	0.530602	1.009079	-0.347323	-14.721512	-77.348568	16.018803			
10253	9.277316	0.182751	1.396940	0.591677	0.733039	-0.476418	-15.178611	-77.188217	16.649540			
10254	9.150776	-0.115367	1.230674	0.758159	0.457564	-0.621372	-15.653768	-76.984084	17.330700			
10255	9.167705	-0.350112	1.107405	0.917566	0.257226	-0.620980	-16.105157	-76.749594	18.031024			
10256	9.214538	-0.518077	1.018248	1.053340	0.127299	-0.588425	-16.505857	-76.493924	18.715635			
10257	9.270802	-0.504963	0.877928	1.236711	0.181264	-0.570880	-16.825607	-76.224111	19.337901			
10258	9.314909	-0.374781	0.891671	1.263257	0.345272	-0.539724	-17.042849	-75.949328	19.878234			
10259	9.369756	-0.147078	0.957428	1.234755	0.602464	-0.493735	-17.159087	-75.683468	20.350819			
10260	9.391307	0.412754	0.857963	1.332151	1.191769	-0.544028	-17.205274	-75.440021	20.778195			
10261	9.281706	1.086760	0.794792	1.341777	1.877607	-0.722199	-17.187299	-75.245743	21.149515			
10262	9.334725	1.890430	0.867489	1.231149	2.693977	-0.719278	-17.124414	-75.105309	21.474654			
10263	9.440312	2.554785	0.881940	1.184979	3.374319	-0.667524	-17.026227	-75.014378	21.721520			
10264	9.490132	2.866809	1.132438	0.919161	3.677348	-0.582528	-16.926093	-74.970854	21.899742			
10265	9.804491	2.782969	1.627725	0.514554	3.588013	-0.149156	-16.813068	-74.963619	21.997637			
10266	10.387726	2.090212	2.748809	-0.367230	2.863940	0.746326	-16.639918	-74.972765	22.011830			
10267	10.932826	1.791396	3.003679	-0.455077	2.586985	1.361312	-16.315778	-74.967914	21.838886			
10268	11.023751	1.363792	2.749885	-0.138553	2.175513	1.420869	-15.905970	-74.965234	21.432393			
10269	11.034776	0.435042	3.299570	-0.566848	1.186806	1.637764	-15.483873	-75.048206	20.891246			
10270	11.195841	-0.435263	3.444219	-0.593590	0.300540	1.890140	-15.155953	-75.223786	20.325759			
10271	11.386407	-1.037220	2.982249	-0.076938	-0.269681	2.000063	-14.954082	-75.451613	19.783943			
10272	11.247701	-1.482527	2.766463	0.093356	-0.732283	1.841358	-14.841658	-75.702651	19.268090			
10273	11.264456	-2.295928	3.066226	-0.189478	-1.584138	1.977777	-14.769410	-76.048351	18.739745			
10274	12.209282	-3.438116	2.790054	0.285911	-2.664297	2.895192	-14.601752	-76.486081	18.070401			
10275	12.903947	-4.647984	2.380345	0.799800	-3.845046	3.542312	-14.303480	-76.914114	17.228734			
10276	12.586855	-6.335364	1.580237	1.481518	-5.566543	3.144167	-13.973914	-77.269057	16.359550			
10277	11.347669	-7.934343	0.664751	2.073756	-7.256695	1.815042	-13.597962	-77.556460	15.572210			
10278	10.404416	-8.923871	0.378273	2.115734	-8.333822	0.869124	-13.023287	-77.826118	14.898592			
10279	9.869836	-8.672772	1.024018	1.341992	-8.169812	0.440713	-12.000296	-78.080242	14.223276			
10280	9.775149	-6.938818	1.879276	0.442849	-6.520390	0.410826	-10.585091	-78.309445	13.529671			
10281	10.014774	-4.463277	2.922387	-0.621465	-4.154127	0.728336	-8.913336	-78.517034	12.775376			
10282	10.119462	-2.014022	4.000900	-1.801898	-1.865764	0.945481	-7.080491	-78.689529	11.896805			
10283	11.172020	0.506717	5.173945	-2.966473	0.481968	2.137501	-5.266586	-78.808236	10.962658			
10284	11.688136	2.781787	5.812249	-3.743357	2.588933	2.733896	-3.718177	-78.864210	10.061523			
10285	11.889739	4.431030	5.786793	-3.889149	4.146963	2.921660	-2.511912	-78.897143	9.190595			
10286	12.104122	4.673943	5.008010	-3.125192	4.429288	2.995518	-1.720550	-78.889843	8.426023			
10287	11.780406	3.795924	4.201211	-2.274216	3.620842	2.538608	-1.297397	-78.779767	7.773384			
10288	11.341762	2.015243	3.271699	-1.198438	1.944361	1.942466	-1.129456	-78.536488	7.202849			
10289	10.796722	0.186026	2.463041	-0.255174	0.204419	1.258132	-1.101227	-78.166648	6.719473			
10290	9.877911	-1.101517	1.956404	0.249259	-1.040537	0.260481	-1.192604	-77.720084	6.384518			
10291	9.141547	-1.854528	1.841266	0.343283	-1.787243	-0.480757	-1.300402	-77.231999	6.165186			
10292	8.433239	-1.891550	1.624240	0.470205	-1.812912	-1.220394	-1.409214	-76.721792	6.036978			
10293	7.780360	-1.700793	1.406552	0.581473	-1.613155	-1.909246	-1.463146	-76.241715	5.934979			
10294	7.523024	-1.282719	1.700927	0.264069	-1.220518	-2.094222	-1.318354	-75.784465	5.778891			
10295	6.969654	-0.676202	2.252082	-0.392383	-0.672135	-2.498373	-1.025246	-75.350253	5.562325			
10296	6.937912	-0.446038	2.351247	-0.461361	-0.456476	-2.502386	-0.698264	-74.976732	5.312238			
10297	6.921822	-0.051843	2.459575	-0.556313	-0.080104	-2.488224	-0.335941	-74.656475	5.013338			
10298	6.930812	0.243979	2.464131	-0.543571	0.206200	-2.475827	-0.023801	-74.382351	4.735515			
10299	7.027416	0.493525	2.499303	-0.539634	0.447232	-2.370687	0.215608	-74.163499	4.515188			
10300	7.475866	0.636653	2.606321	-0.504418	0.586005	-1.907695	0.369936	-73.977248	4.361149			
10301	7.684955	0.705172	2.716336	-0.531977	0.647988	-1.674423	0.427154	-73.797882	4.280737			
10302	7.800362	0.749775	2.747083	-0.508205	0.693810	-1.553475	0.407523	-73.638029	4.256836			
10303	8.026990	0.673418	2.766483	-0.435097	0.624672	-1.329768	0.342007	-73.502615	4.268798			
10304	8.274857	0.627368	2.744780	-0.320997	0.590818	-1.097842	0.249267	-73.382269	4.311169			
10305	8.305306	0.695258	2.641574	-0.202300	0.672972	-1.098012	0.136031	-73.281970	4.373122			
10306	8.299864	0.780717	2.499426	-0.062029	0.774892	-1.144349	0.016911	-73.215258	4.455122			
10307	8.281851	0.971639	2.506191	-0.081658	0.970141	-1.160157	-0.105370	-73.188901	4.552286			
10308	8.222954	1.140437	2.406553	-0.015296	1.149979	-1.246103	-0.231421	-73.196151	4.664223			
10309	8.118187	1.335554	2.298463	0.038275	1.355283	-1.378630	-0.367196	-73.242566	4.784973			
10310	8.034828	1.505218	2.235818	0.051779	1.531822	-1.477590	-0.495262	-73.321103	4.897372			
10311	7.972962	1.698642	2.244309	-0.002351	1.726292	-1.535591	-0.604629	-73.427282	4.982808			
10312	7.843294	1.781778	2.350591	-0.163692	1.800266	-1.630420	-0.664430	-73.560406	5.008097			
10313	7.725710	1.898857	2.560485	-0.426719	1.897940	-1.684709	-0.637430	-73.727185	4.941203			
10314	7.767326	1.923309	2.784894	-0.654770	1.901933	-1.582258	-0.480168	-73.912315	4.732120			
10315	7.855203	1.901049	3.033967	-0.892328	1.854161	-1.428838	-0.211988	-74.108885	4.401120			
10316	8.038301	1.731976	3.237383	-1.050035	1.661975	-1.197012	0.132424	-74.298151	3.975381			
10317	8.295143	1.358113	3.459102	-1.191105	1.263761	-0.890615	0.510055	-74.474382	3.495216			
10318	8.767236	0.980982	3.300279	-0.908743	0.891575	-0.480066	0.847777	-74.626688	3.024804			
10319	9.246700	0.727731	3.443761	-0.924969	0.625054	0.018093	1.067732	-74.770834	2.643701			
10320	9.925006	0.476474	3.733592	-1.031342	0.359093	0.745714	1.154591	-74.889990	2.380544			
10321	10.734271	0.216904	4.210089	-1.281730	0.083839	1.647966	1.053436	-74.965005	2.259207			
10322	11.485792	-0.188389	4.526209	-1.376645	-0.315088	2.453160	0.773195	-74.962351	2.259245			
10323	11.813457	-0.253322	4.345668	-1.104158	-0.339466	2.724148	0.307278	-74.849200	2.394835			
10324	11.334747	0.018728	3.930737	-0.815121	-0.017961	2.156548	-0.286107	-74.690748	2.661547			
10325	10.855098	0.190007	3.886778	-0.880228	0.184634	1.683716	-0.817843	-74.583033	2.935910			
10326	10.896651	0.543288	3.890599	-0.868282	0.567686	1.723893	-1.243979	-74.513104	3.176556			
10327	10.808453	0.815220	4.401527	-1.381848	0.847824	1.773179	-1.635352	-74.477420	3.379624			
10328	10.793033	1.150784	4.542473	-1.531688	1.204061	1.791280	-1.987340	-74.532427	3.493580			
10329	11.827247	1.234984	4.821287	-1.542199	1.322955	2.857162	-2.289807	-74.662265	3.449626			
10330	13.458295	0.658901	4.296755	-0.614283	0.806964	4.293812	-2.608286	-74.764166	3.327819			
10331	14.144412	0.371909	3.492377	0.336448	0.561303	4.746540	-2.958991	-74.768334	3.269265			
10332	12.450662	0.646321	3.113203	0.263778	0.831643	3.007902	-3.298478	-74.723894	3.257722			
10333	10.450919	0.189281	4.508762	-1.600493	0.364425	1.451951	-3.400978	-74.723750	3.076254			
10334	9.620203	-1.242233	3.738681	-1.080850	-1.077379	0.470318	-3.338621	-74.709711	2.818201			
10335	10.073396	-2.980030	2.282803	0.423445	-2.828663	0.549958	-3.178629	-74.765780	2.587606			
10336	11.984291	-4.383399	3.037485	0.179514	-4.212062	2.608666	-2.910819	-74.770028	2.361039			
10337	12.349234	-4.835587	1.101746	2.148748	-4.688705	2.455125	-2.927163	-74.685816	2.357537			
10338	12.459038	-3.285385	1.674180	1.659319	-3.124175	2.689728	-3.068281	-74.597409	2.619200			
10339	11.593173	-1.455351	2.211746	0.948754	-1.282842	1.971438	-3.394164	-74.472392	3.067490			
10340	10.305487	-0.613201	2.266073	0.583717	-0.432820	0.731787	-3.956911	-74.308730	3.712920			
10341	8.818357	-0.120910	2.154172	0.319241	0.066342	-0.740091	-4.762438	-74.118245	4.508452			
10342	7.643922	0.056831	2.251830	-0.072482	0.256039	-1.848230	-5.666253	-73.975283	5.316854			
10343	7.080270	-0.436649	2.378174	-0.339826	-0.215800	-2.341780	-6.550375	-73.921560	6.038391			
10344	6.994567	-1.235106	2.229577	-0.225528	-0.987681	-2.437457	-7.321531	-73.922744	6.603316			
10345	7.351298	-2.261833	2.057068	0.020525	-1.980454	-2.101246	-7.925011	-73.955052	6.978788			
10346	7.844356	-3.107731	2.102855	0.085488	-2.789368	-1.577035	-8.360866	-74.013955	7.207921			
10347	8.401148	-3.598917	1.972943	0.332303	-3.251008	-1.052297	-8.681068	-74.126285	7.381056			
10348	9.006574	-3.650530	1.580164	0.845789	-3.284342	-0.569348	-8.892314	-74.283571	7.530295			
10349	9.345065	-3.442812	1.468161	1.019682	-3.063880	-0.277934	-9.035775	-74.457088	7.702938			
10350	9.472870	-2.793979	1.573231	0.938151	-2.405287	-0.150852	-9.140291	-74.621351	7.909553			
10351	9.293435	-1.911859	1.574904	0.880903	-1.527190	-0.357788	-9.258706	-74.772539	8.185713			
10352	9.263026	-0.863359	1.606303	0.834578	-0.474669	-0.420809	-9.434308	-74.915488	8.544869			
10353	9.149262	-0.095682	1.694679	0.705646	0.296892	-0.538855	-9.631053	-75.032062	8.920935			
10354	8.904914	0.229898	1.695725	0.624132	0.619853	-0.787609	-9.834470	-75.139927	9.293133			
10355	8.909816	0.353235	1.670553	0.629132	0.751066	-0.793796	-10.092815	-75.257194	9.700930			
10356	8.837594	0.150934	1.573456	0.683932	0.554133	-0.878106	-10.380500	-75.364811	10.120116			
10357	8.878517	-0.229039	1.630907	0.619799	0.187570	-0.805967	-10.705677	-75.465379	10.563594			
10358	8.768818	-0.686500	1.558626	0.648495	-0.263522	-0.907478	-11.038556	-75.541767	11.002565			
10359	8.722585	-1.051714	1.417993	0.762720	-0.620646	-0.967727	-11.311566	-75.614968	11.389761			
10360	8.622157	-1.403829	1.500856	0.650817	-0.968795	-1.026177	-11.486298	-75.675351	11.716319			
10361	8.428877	-1.642165	1.308908	0.786652	-1.211745	-1.247131	-11.564526	-75.727789	11.991241			
10362	8.331173	-1.783783	1.161568	0.903704	-1.353943	-1.369363	-11.638619	-75.793767	12.292218			
10363	8.416064	-1.732848	1.202492	0.877557	-1.294153	-1.278407	-11.736644	-75.882369	12.683062			
10364	8.744733	-1.472677	1.348189	0.799273	-1.011493	-0.936045	-11.933142	-75.987445	13.215707			
10365	9.102976	-1.150892	1.589694	0.626377	-0.663688	-0.545380	-12.266942	-76.094384	13.912020			
10366	9.283034	-0.664501	1.708125	0.519067	-0.155881	-0.365984	-12.711751	-76.193995	14.726052			
10367	9.392275	-0.280546	1.807158	0.412210	0.248747	-0.256145	-13.226833	-76.277370	15.616156			
10368	9.352581	0.044678	1.825376	0.349150	0.589446	-0.308197	-13.783931	-76.346876	16.536028			
10369	9.298094	0.196721	1.933265	0.202472	0.752540	-0.345724	-14.338290	-76.409960	17.439957			
10370	9.304552	0.365259	1.886539	0.217963	0.941942	-0.361111	-14.896171	-76.468457	18.324387			
10371	9.307036	0.321913	1.818225	0.266947	0.921243	-0.372852	-15.445735	-76.522006	19.173108			
10372	9.276908	0.288719	1.832814	0.229160	0.903376	-0.398075	-15.982470	-76.567931	19.992139			
10373	9.252037	0.305764	1.727535	0.306661	0.943286	-0.448171	-16.533327	-76.604493	20.808990			
10374	9.257197	0.226965	1.801710	0.225233	0.879610	-0.422859	-17.094567	-76.632998	21.633311			
10375	9.316021	0.190520	1.877455	0.151221	0.863424	-0.347966	-17.707250	-76.650570	22.512525			
10376	9.440103	0.151713	1.694172	0.344615	0.872995	-0.266598	-18.386271	-76.648615	23.457593			
10377	9.575066	0.204474	1.560653	0.483832	0.976298	-0.170489	-19.127158	-76.629000	24.483667			
10378	9.575221	0.286160	1.591065	0.433075	1.087226	-0.172744	-19.937815	-76.580235	25.599622			
10379	9.403142	0.360824	1.550472	0.417020	1.183526	-0.358668	-20.799266	-76.507264	26.770506			
10380	9.454066	0.375584	1.722858	0.248169	1.226039	-0.277292	-21.702835	-76.417808	27.984060			
10381	9.415135	0.332145	1.784722	0.176189	1.214112	-0.302953	-22.661718	-76.301661	29.227851			
10382	9.212482	0.296067	1.646330	0.266640	1.213147	-0.532338	-23.640237	-76.165252	30.453247			
10383	9.199339	0.156791	1.748820	0.177958	1.108558	-0.514835	-24.602815	-76.014996	31.639901			
10384	9.320430	-0.113105	1.777112	0.209949	0.900596	-0.368853	-25.508371	-75.848012	32.746327			
10385	9.255241	-0.391638	1.867662	0.149203	0.652381	-0.386500	-26.303332	-75.670821	33.733706			
10386	9.271924	-0.705623	1.752138	0.315385	0.401213	-0.364096	-26.967628	-75.482545	34.592027			
10387	9.142437	-0.840603	1.682401	0.386230	0.296788	-0.491535	-27.463410	-75.292878	35.304786			
10388	9.114996	-0.989424	1.754647	0.346698	0.171460	-0.485780	-27.816466	-75.108164	35.905251			
10389	9.062480	-0.948958	1.778290	0.322135	0.229038	-0.537178	-28.055764	-74.932707	36.420549			
10390	9.146337	-0.794372	1.827767	0.282860	0.411195	-0.465063	-28.194991	-74.775149	36.872925			
10391	9.140430	-0.497529	1.954558	0.123572	0.703290	-0.479662	-28.280118	-74.639613	37.300576			
10392	9.187316	-0.144880	2.104110	-0.061850	1.048821	-0.445128	-28.305060	-74.534900	37.698349			
10393	9.108284	0.396719	2.148543	-0.215015	1.566687	-0.580476	-28.315648	-74.461514	38.109284			
10394	9.074284	0.942253	2.189037	-0.367333	2.091089	-0.674046	-28.343519	-74.418331	38.545953			
10395	9.229091	1.344417	2.312494	-0.544494	2.490601	-0.548153	-28.434871	-74.404894	39.045087			
10396	9.517952	1.479874	2.010371	-0.243235	2.722980	-0.360217	-28.621283	-74.410986	39.618812			
10397	9.995282	1.409803	1.936836	-0.085729	2.755615	0.089014	-28.899622	-74.417857	40.257709			
10398	10.673833	0.969216	2.187764	-0.121005	2.411698	0.856211	-29.224433	-74.429505	40.938514			
10399	11.535298	0.490849	2.381972	-0.052197	2.075753	1.791893	-29.480421	-74.420998	41.523385			
10400	11.877396	-0.260840	2.677370	-0.113237	1.365808	2.288165	-29.651720	-74.397536	41.997899			
10401	11.885175	-1.265277	2.705506	0.083285	0.401163	2.435178	-29.746120	-74.380913	42.354707			
10402	11.367965	-1.911129	2.672781	0.157814	-0.303251	2.015666	-29.853136	-74.390784	42.688527			
10403	10.542129	-1.925794	2.333786	0.310456	-0.396470	1.143504	-30.113947	-74.445955	43.126166			
10404	9.875125	-2.020166	2.452855	0.066470	-0.632479	0.541594	-30.544326	-74.578595	43.688004			
10405	9.674491	-2.311726	2.794292	-0.265077	-1.026291	0.464676	-31.078034	-74.813484	44.287579			
10406	9.515658	-2.996428	2.962472	-0.342301	-1.764734	0.437716	-31.626820	-75.131304	44.793532			
10407	9.266242	-4.192633	2.910914	-0.116899	-2.978573	0.337619	-32.072707	-75.544550	45.104088			
10408	9.379743	-5.777490	2.338148	0.749082	-4.415734	0.520035	-32.232914	-76.065026	45.109801			
10409	10.534999	-6.642526	1.132352	2.213314	-4.883619	1.485170	-32.123114	-76.669774	44.841045			
10410	11.913765	-6.992030	0.053995	3.459661	-4.883685	2.637518	-31.693572	-77.322908	44.336455			
10411	13.723596	-6.468529	0.023656	3.571173	-4.219347	4.316059	-30.849987	-77.957125	43.661212			
10412	15.024921	-5.518326	0.883998	2.676770	-3.424489	5.617408	-29.386014	-78.464603	42.640949			
10413	15.143565	-3.717781	2.169024	1.036672	-2.074613	5.758892	-27.495447	-78.775813	41.355576			
10414	14.649971	-1.910593	3.264568	-0.495352	-0.757893	5.290576	-25.540368	-78.921114	40.013947			
10415	13.792490	-0.090837	4.081164	-1.822991	0.595906	4.442756	-23.641001	-78.955045	38.593001			
10416	12.802025	1.418951	4.549423	-2.765269	1.735472	3.451675	-21.816810	-78.891115	37.031792			
10417	11.651479	2.110459	4.556616	-3.068719	2.212573	2.297662	-19.966924	-78.700895	35.220466			
10418	10.115622	2.359184	4.080756	-2.843337	2.373709	0.714623	-18.147922	-78.383508	33.218876			
10419	8.792274	2.110077	3.195790	-2.065057	2.204409	-0.710770	-16.514065	-78.007022	31.187657			
10420	7.543045	1.442842	2.248756	-1.126279	1.658711	-2.065699	-15.079737	-77.622588	29.200608			
10421	6.749310	0.379481	1.578881	-0.302625	0.701155	-2.912937	-13.793983	-77.290649	27.317439			
10422	7.054867	-0.565818	1.745407	-0.122905	-0.233659	-2.527920	-12.480676	-77.015146	25.530606			
10423	7.310919	-1.211404	1.657423	0.204948	-0.835703	-2.267920	-11.256648	-76.750400	23.908466			
10424	7.374429	-1.683448	1.539910	0.474937	-1.285986	-2.216107	-10.102209	-76.494300	22.446020			
10425	7.570730	-1.883932	1.507262	0.630665	-1.479659	-2.031319	-8.990193	-76.233873	21.117360			
10426	7.592798	-2.099896	1.575162	0.656683	-1.724444	-1.993726	-7.946169	-75.976509	19.910514			
10427	7.697281	-2.051713	1.728244	0.567922	-1.719035	-1.864942	-6.976333	-75.679293	18.886803			
10428	7.455833	-1.427194	2.076120	0.099316	-1.210991	-2.037083	-6.184568	-75.339447	18.064886			
10429	7.289108	-1.003433	1.403280	0.652627	-0.688705	-2.382559	-5.578303	-75.066399	17.308737			
10430	7.638278	-0.501878	1.868720	0.228880	-0.276438	-1.941323	-4.797635	-74.883320	16.412242			
10431	7.933296	0.238528	2.416100	-0.333462	0.340645	-1.529922	-3.797730	-74.713137	15.310343			
10432	8.199243	0.619863	2.435604	-0.326000	0.697769	-1.271573	-2.742679	-74.556789	14.094762			
10433	8.451085	0.785939	2.194376	-0.031585	0.888348	-1.091250	-1.746070	-74.421586	12.895983			
10434	8.858903	0.735436	2.238915	0.073618	0.821028	-0.682841	-0.872457	-74.317300	11.785086			
10435	9.438832	0.537932	2.273383	0.258045	0.621423	-0.112362	-0.175929	-74.226277	10.857727			
10436	9.769401	0.316278	2.394266	0.296554	0.372712	0.239516	0.352084	-74.131353	10.103812			
10437	9.948077	0.050785	2.445593	0.366498	0.092011	0.424739	0.706015	-74.024473	9.529418			
10438	9.870932	-0.116888	2.398156	0.442377	-0.079170	0.336111	0.872103	-73.903787	9.154410			
10439	9.737758	-0.096776	2.393349	0.428703	-0.066502	0.205954	0.871337	-73.777884	8.963712			
10440	9.528476	-0.021639	2.476532	0.300947	-0.009977	0.027782	0.748443	-73.646975	8.924795			
10441	9.189172	0.246314	2.482082	0.176082	0.248584	-0.295889	0.552263	-73.530516	8.987492			
10442	9.043815	0.398123	2.548585	0.063373	0.393483	-0.416651	0.323490	-73.440900	9.098377			
10443	8.951481	0.594473	2.610701	-0.041685	0.585810	-0.487815	0.093676	-73.373082	9.228205			
10444	8.949496	0.739890	2.639547	-0.084631	0.738017	-0.482293	-0.184954	-73.326431	9.402373			
10445	8.865021	0.845011	2.442905	0.066025	0.883595	-0.621098	-0.541887	-73.290563	9.641432			
10446	8.668088	0.946942	2.343594	0.091495	1.008432	-0.840534	-0.988111	-73.265817	9.957539			
10447	8.278787	1.006178	2.388383	-0.069289	1.062430	-1.203304	-1.509691	-73.249063	10.357251			
10448	7.903717	1.258861	2.441065	-0.265608	1.309564	-1.552741	-2.146649	-73.250931	10.849582			
10449	7.573781	1.592009	2.341236	-0.320018	1.663506	-1.906469	-2.923911	-73.287449	11.446317			
10450	7.386066	1.973568	2.417255	-0.511143	2.050580	-2.077973	-3.793332	-73.366067	12.108079			
10451	7.327318	2.206614	2.657095	-0.803597	2.277671	-2.080598	-4.706498	-73.493133	12.799480			
10452	7.424178	2.419152	3.059205	-1.209398	2.473714	-1.891361	-5.586805	-73.669528	13.448739			
10453	7.737448	2.298722	3.424414	-1.480954	2.359563	-1.498969	-6.402147	-73.891483	14.010666			
10454	8.275344	1.939419	3.831860	-1.708845	2.018208	-0.872200	-7.093078	-74.145810	14.422142			
10455	9.198425	1.256654	4.013580	-1.586441	1.407490	0.076753	-7.639063	-74.388507	14.661099			
10456	10.074423	0.606698	3.808905	-1.116481	0.864583	0.881970	-8.002476	-74.574202	14.696586			
10457	10.694007	0.293221	3.451684	-0.601707	0.646370	1.393650	-8.225029	-74.667950	14.568951			
10458	10.977697	0.055564	3.108064	-0.178880	0.476494	1.585292	-8.467033	-74.654471	14.417349			
10459	10.508426	0.076562	2.307804	0.476813	0.559642	0.921288	-8.874167	-74.558142	14.360647			
10460	9.888377	-0.048795	1.665805	0.963196	0.473431	0.157535	-9.521336	-74.437335	14.533537			
10461	9.402051	-0.108102	1.465329	1.049639	0.426480	-0.364211	-10.297803	-74.320666	14.909783			
10462	9.339493	-0.075569	2.164938	0.365676	0.437346	-0.242227	-11.051080	-74.261891	15.342115			
10463	9.978529	-0.189473	3.328418	-0.579944	0.325979	0.686962	-11.643352	-74.276838	15.645873			
10464	11.034832	0.108726	4.525388	-1.485851	0.658267	2.003291	-12.055087	-74.286804	15.734902			
10465	12.955090	-0.453107	4.943793	-1.361291	0.241531	3.991994	-12.302637	-74.370393	15.580474			
10466	15.302256	-0.989179	3.398445	0.753712	-0.043431	5.875428	-12.323441	-74.420495	15.163586			
10467	15.919462	-1.838783	2.429861	1.889017	-0.815720	6.264652	-12.398172	-74.390930	14.777131			
10468	14.918770	-2.807815	2.263953	1.838156	-1.848707	5.312870	-12.499372	-74.328806	14.544459			
10469	13.802399	-3.458794	2.425067	1.421888	-2.575458	4.318685	-12.601017	-74.270965	14.420173			
10470	14.222386	-4.234645	3.422196	0.606479	-3.338806	5.033337	-12.636091	-74.216724	14.357107			
10471	14.864363	-5.255350	3.637804	0.629259	-4.314163	5.769145	-12.552752	-74.081227	14.288333			
10472	14.456559	-6.368346	3.537118	0.727221	-5.444266	5.415231	-12.361963	-73.783626	14.260403			
10473	12.189407	-5.440315	2.621999	1.066092	-4.636915	2.931512	-12.249126	-73.304659	14.423191			
10474	8.605689	-2.544196	2.463163	0.196577	-1.976698	-0.721415	-12.295198	-72.761233	14.770972			
10475	5.481410	0.560103	3.209253	-1.507546	0.874951	-3.679134	-12.441871	-72.303316	15.156209			
10476	3.676599	2.226692	3.447853	-2.330237	2.391312	-5.429216	-12.638511	-71.966893	15.493126			
10477	3.018213	2.655389	3.534889	-2.621496	2.767078	-6.054076	-12.921737	-71.751347	15.796055			
10478	4.021987	2.186532	3.218726	-1.979498	2.409743	-5.165947	-13.326379	-71.667869	16.037091			
10479	6.449958	0.883134	2.720393	-0.693666	1.357540	-2.923688	-13.809706	-71.751425	16.159738			
10480	8.260135	-0.620264	2.249541	0.359592	0.045022	-1.236932	-14.235373	-71.927864	16.127334			
10481	9.337900	-2.262676	1.673878	1.260293	-1.484286	-0.256211	-14.574276	-72.169422	16.008807			
10482	10.107410	-3.693674	1.215946	1.914426	-2.845962	0.459438	-14.895189	-72.437152	15.940126			
10483	10.718062	-5.038381	1.109707	2.160021	-4.139964	1.127518	-15.316622	-72.715382	16.077819			
10484	10.860716	-5.855737	1.456939	1.816261	-4.939974	1.441865	-15.785998	-72.984415	16.420056			
10485	10.233665	-5.782734	1.640288	1.407848	-4.909079	0.900725	-16.215613	-73.213442	16.898158			
10486	9.243344	-5.003331	1.797144	0.935594	-4.203935	-0.057996	-16.572974	-73.382310	17.445372			
10487	8.424400	-3.827704	2.211249	0.271159	-3.093683	-0.820077	-16.888298	-73.494545	18.042308			
10488	8.082908	-2.385668	2.483779	-0.133011	-1.682434	-1.190292	-17.115037	-73.570679	18.621906			
10489	7.967074	-1.189046	2.536814	-0.265339	-0.499007	-1.386294	-17.256966	-73.627651	19.112822			
10490	7.885445	-0.324802	2.501327	-0.300269	0.354061	-1.546682	-17.331940	-73.696523	19.514732			
10491	7.835216	0.079633	2.245837	-0.102056	0.755265	-1.697278	-17.356637	-73.790251	19.822972			
10492	7.990160	0.175851	1.896451	0.252026	0.871713	-1.648946	-17.349162	-73.908419	20.064915			
10493	8.291903	0.043941	1.659073	0.546277	0.772923	-1.409459	-17.368368	-74.044187	20.302167			
10494	8.746158	-0.244854	1.610351	0.705386	0.527098	-0.959834	-17.416733	-74.191656	20.560696			
10495	9.173105	-0.555844	1.557996	0.860314	0.257610	-0.534993	-17.478534	-74.347387	20.834546			
10496	9.545250	-0.978881	1.706234	0.816616	-0.137942	-0.102110	-17.497779	-74.487413	21.081025			
10497	9.579347	-1.151879	1.613127	0.908260	-0.304989	-0.077446	-17.530796	-74.596749	21.345256			
10498	9.361103	-1.313554	1.475404	0.984979	-0.478839	-0.308320	-17.623555	-74.684232	21.678499			
10499	9.368703	-1.294288	1.365130	1.078403	-0.448174	-0.328621	-17.782056	-74.769871	22.090216			
10500	9.260621	-1.084271	1.503545	0.887416	-0.251765	-0.413513	-17.992930	-74.838255	22.569739			
10501	9.103742	-0.811345	1.648121	0.672557	0.002578	-0.549840	-18.240469	-74.896711	23.091553			
10502	8.935528	-0.628317	1.554904	0.691026	0.183058	-0.749293	-18.518495	-74.965090	23.637006			
10503	8.963846	-0.305000	1.575070	0.628606	0.513717	-0.742664	-18.792335	-75.052439	24.176469			
10504	8.967361	-0.260861	1.799752	0.388075	0.546651	-0.687379	-19.070989	-75.140147	24.695678			
10505	9.062613	-0.135377	2.114101	0.073052	0.660987	-0.529562	-19.385734	-75.220103	25.213966			
10506	9.177436	-0.090844	2.235662	-0.042060	0.714143	-0.393560	-19.734116	-75.290766	25.711235			
10507	9.331536	-0.100421	2.123915	0.083736	0.740806	-0.271051	-20.112972	-75.354169	26.212384			
10508	9.404574	-0.149075	2.062949	0.148792	0.717566	-0.211285	-20.496951	-75.389396	26.717504			
10509	9.497708	-0.172327	1.964523	0.255028	0.728989	-0.143199	-20.931933	-75.394418	27.282285			
10510	9.274718	-0.210316	1.930347	0.233147	0.687826	-0.364758	-21.437441	-75.371705	27.926935			
10511	9.172668	-0.213017	1.857731	0.272592	0.703008	-0.481782	-22.011154	-75.335592	28.659240			
10512	9.059960	-0.174268	1.824197	0.266722	0.756590	-0.604142	-22.637103	-75.289929	29.470053			
10513	8.934913	-0.121720	1.708334	0.335439	0.832072	-0.759458	-23.268917	-75.236908	30.311050			
10514	8.924987	-0.022314	1.583286	0.431913	0.970076	-0.810742	-23.895273	-75.178186	31.168060			
10515	9.044832	0.101123	1.384575	0.623700	1.158107	-0.756973	-24.493261	-75.113551	32.009560			
10516	9.232631	0.191809	1.286079	0.738073	1.313512	-0.611485	-25.061810	-75.037401	32.819699			
10517	9.412799	0.231029	1.167837	0.878787	1.421754	-0.473294	-25.585565	-74.939078	33.579205			
10518	9.644063	0.204017	1.237407	0.863296	1.451872	-0.235243	-26.057863	-74.812731	34.284421			
10519	9.798678	0.142098	1.477279	0.677941	1.416660	-0.027494	-26.451463	-74.654140	34.919941			
10520	9.720364	0.191723	1.501652	0.638786	1.482978	-0.108574	-26.749572	-74.462538	35.452980			
10521	9.569710	0.234239	1.669549	0.452192	1.509886	-0.224295	-26.943434	-74.252435	35.871876			
10522	9.481885	0.404591	1.863806	0.235825	1.663550	-0.287955	-27.052086	-74.042884	36.185056			
10523	9.437705	0.665043	1.977987	0.090579	1.918603	-0.339796	-27.105283	-73.842633	36.413391			
10524	9.321956	0.970876	2.020119	-0.010730	2.212509	-0.483863	-27.133672	-73.656895	36.576099			
10525	9.191673	1.241524	2.069105	-0.119644	2.465530	-0.635747	-27.202858	-73.506369	36.733006			
10526	9.266087	1.351552	1.860532	0.086943	2.631947	-0.635873	-27.376957	-73.403313	36.949635			
10527	9.475726	1.359268	1.770938	0.220895	2.705683	-0.463695	-27.706135	-73.342443	37.286543			
10528	9.680646	1.079587	2.049347	0.045542	2.447202	-0.164406	-28.139985	-73.323358	37.725436			
10529	10.194643	0.530730	1.983059	0.311166	2.031623	0.381456	-28.642828	-73.328955	38.234959			
10530	10.711614	0.077441	2.084003	0.396268	1.686289	0.961685	-29.074593	-73.338342	38.709059			
10531	10.978939	-0.457578	2.334201	0.298126	1.191674	1.353601	-29.376177	-73.358697	39.071060			
10532	11.075488	-1.117713	2.844836	-0.063984	0.498307	1.665831	-29.570358	-73.424831	39.326726			
10533	11.323207	-1.268695	2.841438	0.000047	0.393316	1.923736	-29.754143	-73.541843	39.545728			
10534	11.354226	-0.925787	2.756408	-0.005654	0.737180	1.884737	-30.031734	-73.702279	39.787573			
10535	11.430061	-0.638889	2.803627	-0.130671	1.013939	1.929094	-30.499134	-73.929939	40.114012			
10536	11.259977	-0.912065	2.528439	0.086045	0.748022	1.739134	-31.245624	-74.247000	40.575701			
10537	11.737532	-2.417143	2.656830	0.232489	-0.667656	2.441700	-32.278155	-74.705830	41.191877			
10538	12.888047	-3.999010	2.116416	1.112957	-1.966474	3.658214	-33.482153	-75.233978	41.889791			
10539	13.185115	-5.253485	1.070346	2.223446	-3.050506	3.911027	-34.627810	-75.726600	42.472930			
10540	12.613560	-6.556738	0.116272	3.093618	-4.359500	3.360343	-35.420830	-76.125403	42.754903			
10541	11.630878	-7.355769	-0.435146	3.459269	-5.296553	2.416505	-35.654542	-76.419681	42.635574			
10542	10.176658	-7.687004	0.213708	2.561583	-5.971162	1.163803	-35.304528	-76.644149	42.219602			
10543	9.311406	-7.100049	1.276073	1.291109	-5.683427	0.423173	-34.609770	-76.849041	41.766467			
10544	8.907628	-5.345851	2.073076	0.231774	-4.154399	-0.070588	-33.540417	-77.030550	41.169050			
10545	8.799743	-3.106855	3.102541	-1.077307	-2.152814	-0.277589	-32.156880	-77.202608	40.361200			
10546	9.427361	-1.477534	3.987252	-2.053183	-0.654746	0.302228	-30.526029	-77.361474	39.285474			
10547	10.086828	-0.118813	4.514433	-2.651464	0.610232	0.898756	-28.838850	-77.490074	38.005751			
10548	10.834352	1.092320	4.579748	-2.770219	1.809918	1.527509	-27.308282	-77.575554	36.660989			
10549	11.424710	1.605139	4.244180	-2.407311	2.380963	2.004636	-26.110837	-77.628665	35.419718			
10550	11.565902	1.409100	3.637051	-1.728025	2.260288	2.056964	-25.088682	-77.604610	34.184451			
10551	11.049754	0.708959	2.700851	-0.748086	1.628229	1.442678	-24.191405	-77.461803	32.933896			
10552	10.371160	-0.304418	1.624881	0.388601	0.693195	0.659280	-23.460998	-77.256894	31.748905			
10553	10.051054	-1.369133	1.143239	1.007911	-0.337464	0.339911	-22.764569	-77.026775	30.615077			
10554	9.620437	-2.152151	1.384011	0.850970	-1.197929	0.033159	-22.005059	-76.769366	29.530023			
10555	9.482370	-2.618370	1.868157	0.467505	-1.740512	0.036832	-21.107241	-76.500442	28.447647			
10556	9.070208	-2.682615	2.048737	0.270472	-1.883066	-0.323586	-20.080786	-76.222122	27.344157			
10557	8.825426	-2.543392	2.106132	0.202528	-1.795243	-0.564524	-18.947329	-75.931484	26.209652			
10558	8.262326	-1.921686	2.340652	-0.167801	-1.286859	-1.109067	-17.742671	-75.597307	25.056628			
10559	7.522898	-1.347327	2.226372	-0.240109	-0.801652	-1.896539	-16.616162	-75.256544	23.957830			
10560	6.912241	-0.686772	2.267103	-0.457026	-0.232767	-2.523846	-15.559743	-74.946840	22.904302			
10561	6.758937	-0.060141	2.196248	-0.464804	0.362572	-2.730127	-14.548019	-74.685495	21.849699			
10562	6.758075	0.482624	2.300924	-0.597544	0.869691	-2.735599	-13.596578	-74.454168	20.804766			
10563	6.959270	0.875253	2.207349	-0.471865	1.269854	-2.585339	-12.720379	-74.270020	19.777552			
10564	7.422717	0.881735	2.202803	-0.314997	1.300493	-2.135715	-11.932063	-74.120194	18.777653			
10565	7.972154	0.618491	2.200578	-0.103870	1.069013	-1.589148	-11.227705	-73.982585	17.812342			
10566	8.586319	0.170283	2.202513	0.142460	0.657019	-0.972277	-10.622668	-73.846262	16.917364			
10567	9.050548	-0.357530	2.035536	0.517902	0.169801	-0.545191	-10.158318	-73.698376	16.145040			
10568	9.110240	-0.851978	1.906071	0.741290	-0.317889	-0.501145	-9.839519	-73.540592	15.531795			
10569	8.803916	-1.097413	1.903380	0.711068	-0.593265	-0.786144	-9.625112	-73.389172	15.068237			
10570	8.392512	-1.114660	1.978963	0.547720	-0.651724	-1.160043	-9.488564	-73.258068	14.734861			
10571	8.021303	-0.943357	2.095089	0.331862	-0.518857	-1.491554	-9.445711	-73.163266	14.550439			
10572	7.751998	-0.686098	2.283351	0.061181	-0.295657	-1.707952	-9.471563	-73.114633	14.482485			
10573	7.544598	-0.345729	2.533416	-0.265203	0.011437	-1.851016	-9.542004	-73.110011	14.506099			
10574	7.523570	0.072298	2.715816	-0.487617	0.415463	-1.839319	-9.682507	-73.148676	14.623342			
10575	7.693097	0.426987	2.818244	-0.579830	0.778874	-1.666173	-9.929530	-73.212304	14.840531			
10576	7.600575	0.897768	2.651704	-0.503102	1.262522	-1.827754	-10.311654	-73.301652	15.160183			
10577	7.729190	1.110408	2.753137	-0.603157	1.488346	-1.690242	-10.754025	-73.443173	15.550810			
10578	8.129593	1.262683	3.413007	-1.164532	1.632622	-1.134462	-11.117294	-73.608917	15.901201			
10579	8.611650	1.162495	3.981600	-1.597048	1.536312	-0.514614	-11.402680	-73.761174	16.150657			
10580	9.192845	0.776624	4.048879	-1.494758	1.199398	0.078322	-11.620297	-73.887417	16.264070			
10581	9.843948	0.386382	3.545238	-0.821200	0.903298	0.585917	-11.772271	-73.968844	16.243446			
10582	10.578588	0.083850	3.532387	-0.596788	0.665277	1.304532	-11.856707	-73.994028	16.131290			
10583	11.229189	-0.167278	3.883931	-0.737861	0.448731	2.038970	-11.883196	-73.943026	15.953006			
10584	11.562195	-0.388518	3.743221	-0.477767	0.270567	2.334142	-11.887385	-73.819033	15.722510			
10585	11.676482	-0.747904	3.145132	0.184565	-0.036938	2.301598	-11.847810	-73.651379	15.435459			
10586	11.479352	-0.901768	3.171039	0.155759	-0.202547	2.127948	-11.678815	-73.449936	15.107504			
10587	10.588740	-0.394288	3.134900	-0.044649	0.239719	1.234703	-11.486330	-73.217579	14.852602			
10588	9.338316	0.592186	2.946783	-0.238779	1.139602	-0.071920	-11.309566	-73.016990	14.699331			
10589	8.386482	1.936250	3.250263	-0.864313	2.392521	-0.971016	-11.204967	-72.910831	14.669666			
10590	7.698740	3.031547	3.697075	-1.557101	3.409358	-1.561569	-11.235410	-72.917362	14.738696			
10591	8.156674	3.275927	4.783860	-2.492745	3.634171	-0.827847	-11.360338	-73.032525	14.799888			
10592	9.709418	3.277441	4.654521	-1.945809	3.766103	0.613685	-11.592762	-73.192876	14.766851			
10593	11.864843	2.777527	4.588720	-1.266800	3.446803	2.679718	-11.961175	-73.399540	14.668775			
10594	14.329771	1.726775	4.590713	-0.553396	2.601048	5.097943	-12.402793	-73.576352	14.517120			
10595	14.847028	0.363135	4.567119	-0.351337	1.315770	5.665354	-13.091671	-73.672663	14.437977			
10596	14.131271	-1.348394	3.650857	0.374288	-0.383648	4.834917	-13.745399	-73.647817	14.230199			
10597	12.980098	-1.959960	1.960991	1.694263	-1.054841	3.309304	-13.972606	-73.544027	13.754909			
10598	12.794558	-2.799986	0.936568	2.640855	-1.929088	2.904320	-13.862321	-73.449605	13.256527			
10599	13.101918	-4.973723	1.677053	2.024421	-4.081961	3.545829	-13.564758	-73.389424	12.924947			
10600	14.296543	-7.980375	2.848720	1.261988	-7.001108	5.206777	-13.141268	-73.262942	12.642683			
10601	15.044026	-9.570746	1.955910	2.411430	-8.565242	5.761911	-12.884047	-72.916752	12.478938			
10602	12.786001	-7.280213	1.070202	2.722962	-6.422382	3.185996	-12.813415	-72.433833	12.556992			
10603	9.273151	-2.101181	2.858582	0.055076	-1.442074	0.010476	-12.658647	-71.968089	12.675913			
10604	6.779582	0.504075	3.034364	-0.825101	0.997451	-2.481366	-12.578677	-71.540701	12.785205			
10605	5.118664	1.188168	3.015128	-1.286243	1.571163	-4.104765	-12.648731	-71.145442	12.918516			
10606	4.066480	1.681556	2.994773	-1.573913	1.998853	-5.137235	-12.857481	-70.809291	13.023457			
10607	4.230464	1.883210	3.066294	-1.567507	2.229109	-4.973328	-13.178225	-70.652425	13.074397			
10608	5.572284	1.150684	2.966361	-1.020576	1.616476	-3.687401	-13.551374	-70.713558	13.019587			
10609	7.595715	-0.620056	2.576481	-0.008055	0.005869	-1.767973	-13.837472	-70.912898	12.792658			
10610	9.312652	-2.255380	2.118278	0.921293	-1.514629	-0.160943	-14.013285	-71.165143	12.440475			
10611	10.315753	-3.344800	1.465970	1.777176	-2.567071	0.675539	-14.209178	-71.412692	12.126927			
10612	10.745247	-4.196237	1.283163	1.995267	-3.405653	1.102224	-14.486312	-71.639566	11.992226			
10613	10.586275	-4.613143	1.439968	1.721709	-3.824287	1.042454	-14.811807	-71.827124	12.050833			
10614	10.040783	-4.644956	1.552531	1.402379	-3.877671	0.570000	-15.142197	-71.953543	12.250332			
10615	9.127665	-3.971490	1.581777	1.097820	-3.252089	-0.335996	-15.512777	-72.031846	12.592505			
10616	8.403723	-2.888854	1.820389	0.680559	-2.191849	-1.036899	-15.901069	-72.087848	13.040405			
10617	8.094147	-1.865917	2.185913	0.268832	-1.156980	-1.305974	-16.244146	-72.128273	13.488533			
10618	7.817923	-1.023664	2.353996	0.048833	-0.316101	-1.590353	-16.498716	-72.160586	13.851108			
10619	7.672557	-0.472420	2.262386	0.103910	0.225342	-1.803435	-16.696875	-72.200499	14.131552			
10620	7.592817	-0.325654	2.147185	0.185585	0.364755	-1.926000	-16.854360	-72.266671	14.341401			
10621	7.658532	-0.578382	2.031683	0.294580	0.115190	-1.874469	-16.996421	-72.366975	14.512013			
10622	7.895555	-1.125870	2.051740	0.311596	-0.409111	-1.593654	-17.125377	-72.494441	14.660826			
10623	8.245905	-1.662692	1.881521	0.540054	-0.925387	-1.259818	-17.255281	-72.636122	14.811518			
10624	8.553162	-2.083612	1.676761	0.790771	-1.332240	-0.986061	-17.347534	-72.784026	14.965067			
10625	8.917870	-2.311056	1.529121	1.008709	-1.539007	-0.657278	-17.438358	-72.929931	15.159293			
10626	9.041423	-2.467230	1.537139	1.013550	-1.682973	-0.520882	-17.563115	-73.053843	15.448223			
10627	8.933472	-2.400741	1.423070	1.079427	-1.625254	-0.659056	-17.738791	-73.170981	15.851149			
10628	9.007249	-2.214900	1.359107	1.152025	-1.427771	-0.619332	-17.975805	-73.284286	16.382569			
10629	9.067094	-1.772398	1.332415	1.187406	-0.970010	-0.605189	-18.252593	-73.390980	17.009368			
10630	9.153761	-1.211954	1.395074	1.141109	-0.387330	-0.552330	-18.531644	-73.486979	17.678835			
10631	9.171051	-0.660091	1.561345	0.969832	0.182979	-0.538659	-18.784138	-73.573744	18.341485			
10632	9.182987	-0.098351	1.753776	0.764945	0.759804	-0.525591	-19.021987	-73.658764	18.980114			
10633	9.216811	0.372974	1.835921	0.665055	1.243899	-0.513780	-19.259625	-73.751131	19.596619			
10634	9.344349	0.567023	1.852791	0.652252	1.458972	-0.404335	-19.522344	-73.845163	20.187356			
10635	9.537307	0.721646	1.967487	0.561178	1.642278	-0.203320	-19.834916	-73.930028	20.775884			
10636	9.625068	0.713483	1.964181	0.562338	1.655220	-0.119753	-20.182189	-73.996992	21.354915			
10637	9.688298	0.568886	1.917076	0.607636	1.532597	-0.058518	-20.548696	-74.039308	21.918971			
10638	9.609011	0.350625	1.873785	0.621000	1.323937	-0.126171	-20.913562	-74.057348	22.473566			
10639	9.522870	0.141847	1.794732	0.671632	1.125897	-0.210216	-21.280719	-74.054643	23.041134			
10640	9.268064	-0.021389	1.738896	0.660285	0.955865	-0.454721	-21.632163	-74.025408	23.621694			
10641	9.166971	-0.123591	1.931465	0.448156	0.857910	-0.493765	-21.963484	-73.988861	24.213748			
10642	9.172712	-0.289926	1.877155	0.507852	0.713598	-0.486421	-22.291634	-73.933078	24.819474			
10643	9.191544	-0.326885	1.740497	0.646785	0.704348	-0.501072	-22.630722	-73.852171	25.442824			
10644	9.326425	-0.421528	1.375898	1.042699	0.663781	-0.457203	-22.975089	-73.742433	26.070313			
10645	9.489361	-0.419123	1.474782	0.995921	0.711430	-0.278510	-23.326426	-73.600175	26.713513			
10646	9.600110	-0.355105	1.658770	0.854997	0.813218	-0.135536	-23.671510	-73.412603	27.345220			
10647	9.469037	-0.129660	1.740102	0.744987	1.050065	-0.270694	-23.993926	-73.176316	27.928441			
10648	9.356609	0.183826	1.915304	0.545632	1.371212	-0.374985	-24.278783	-72.914828	28.428838			
10649	9.157938	0.606409	1.905924	0.491756	1.794708	-0.625459	-24.520039	-72.656355	28.824479			
10650	8.923954	1.081359	1.981564	0.340181	2.255224	-0.894671	-24.705305	-72.409594	29.099661			
10651	8.727757	1.547906	1.974214	0.275269	2.711030	-1.150024	-24.836457	-72.209089	29.260667			
10652	8.739771	1.794047	1.863121	0.381609	2.979100	-1.207299	-24.928820	-72.067711	29.323190			
10653	8.902156	1.613725	1.825732	0.492029	2.838919	-1.044323	-25.028677	-71.999698	29.345974			
10654	9.360849	1.177743	1.621043	0.857244	2.495530	-0.610632	-25.170608	-72.006937	29.402264			
10655	9.946977	0.645954	1.486307	1.185932	2.070729	-0.021143	-25.399430	-72.068901	29.559143			
10656	10.520618	-0.126019	1.518884	1.359738	1.399650	0.637113	-25.724629	-72.166969	29.864200			
10657	11.233941	-0.596971	1.654648	1.434743	1.045170	1.418729	-26.072132	-72.266156	30.267900			
10658	11.503097	-0.898557	1.973359	1.200504	0.782422	1.804943	-26.343135	-72.345157	30.697581			
10659	11.508005	-1.014440	2.579455	0.606294	0.641956	1.991427	-26.508945	-72.430863	31.093762			
10660	11.479460	-0.717552	2.957174	0.182499	0.906742	2.027170	-26.608257	-72.536737	31.442099			
10661	11.208639	-0.281291	2.965195	0.033719	1.287757	1.713178	-26.715966	-72.655366	31.749363			
10662	10.750983	-0.259428	3.350966	-0.487028	1.204650	1.376210	-26.914248	-72.814467	32.056436			
10663	10.297675	-0.554494	3.401307	-0.660034	0.829165	0.994491	-27.200626	-73.073834	32.335988			
10664	10.846034	-1.339227	3.255848	-0.367299	0.133636	1.583678	-27.621960	-73.486010	32.585062			
10665	12.284575	-2.109549	3.017856	0.184499	-0.420998	3.003545	-28.127540	-74.028212	32.800720			
10666	12.980942	-3.378780	2.185377	1.145286	-1.561573	3.638890	-28.664498	-74.574155	32.909562			
10667	12.501823	-5.210835	1.151496	2.068816	-3.434049	3.175766	-29.081804	-75.058486	32.855032			
10668	11.735621	-7.198091	0.707811	2.367728	-5.541202	2.585935	-29.220499	-75.478300	32.606797			
10669	11.123465	-8.677044	0.867602	2.091504	-7.152160	2.197589	-29.007800	-75.843911	32.245912			
10670	10.438599	-8.541687	1.359863	1.409138	-7.182706	1.597690	-28.482633	-76.174599	31.882167			
10671	10.141468	-7.444171	1.618314	1.010919	-6.198108	1.207529	-27.700026	-76.479069	31.496537			
10672	10.044846	-5.687682	2.076279	0.423863	-4.552090	0.988145	-26.648969	-76.757854	31.001964			
10673	10.041377	-3.732769	2.756706	-0.394008	-2.725768	0.900703	-25.483109	-77.022457	30.465177			
10674	10.563107	-1.831268	3.709235	-1.404227	-0.931869	1.405618	-24.302406	-77.274501	29.886440			
10675	10.662835	-0.454739	4.219652	-2.039192	0.317483	1.476630	-23.152539	-77.472322	29.209031			
10676	11.154856	0.421721	4.402731	-2.235267	1.147018	1.921035	-22.084260	-77.626475	28.440870			
10677	11.240238	0.907568	3.970433	-1.859542	1.621662	1.885307	-21.094425	-77.711143	27.575175			
10678	11.083383	0.929120	3.362259	-1.285989	1.649534	1.616860	-20.165939	-77.692274	26.592671			
10679	10.800967	0.563365	2.822907	-0.735399	1.288400	1.266394	-19.162540	-77.548968	25.421499			
10680	10.127043	-0.000957	2.415820	-0.348620	0.689425	0.569798	-18.171499	-77.277723	24.177776			
10681	9.245128	-0.563146	1.836534	0.166904	0.097839	-0.372107	-17.300487	-76.914861	22.993514			
10682	8.639526	-1.016510	1.382254	0.596403	-0.370419	-1.032478	-16.559931	-76.522841	21.925590			
10683	7.928543	-1.204459	1.362155	0.540981	-0.622156	-1.720223	-15.839537	-76.133772	20.919876			
10684	7.521218	-1.327930	1.379616	0.497435	-0.787751	-2.107672	-15.107414	-75.788821	19.976872			
10685	7.257631	-1.075049	1.641257	0.206160	-0.587892	-2.320400	-14.322950	-75.485241	19.056412			
10686	7.049719	-0.728066	1.921068	-0.102313	-0.293254	-2.476306	-13.479975	-75.214453	18.116618			
10687	7.128683	-0.434962	2.158152	-0.298751	-0.029260	-2.357845	-12.569750	-74.982713	17.115446			
10688	7.315748	-0.139533	2.478679	-0.549988	0.235292	-2.110384	-11.602680	-74.779567	16.033365			
10689	7.524659	0.054846	2.556467	-0.553805	0.414037	-1.895570	-10.637198	-74.610030	14.913303			
10690	7.837851	0.207532	2.581009	-0.477527	0.559922	-1.591075	-9.748979	-74.468835	13.818240			
10691	8.104181	0.232578	2.498533	-0.301520	0.582418	-1.354303	-8.990028	-74.339459	12.802352			
10692	8.396579	0.090169	2.451135	-0.141312	0.439499	-1.077384	-8.397914	-74.215563	11.917390			
10693	8.514027	-0.056966	2.350971	0.020246	0.287814	-0.984570	-7.953913	-74.102295	11.176115			
10694	8.621848	-0.231039	2.417358	0.016348	0.103123	-0.855996	-7.602236	-74.007910	10.543164			
10695	8.612823	-0.301276	2.545997	-0.089809	0.015999	-0.826852	-7.314328	-73.930484	9.996428			
10696	8.600970	-0.389177	2.580584	-0.109525	-0.082680	-0.825546	-7.076686	-73.875316	9.525599			
10697	8.596829	-0.429534	2.563788	-0.083906	-0.130129	-0.832766	-6.881855	-73.831359	9.124029			
10698	8.412278	-0.393373	2.525767	-0.093415	-0.106554	-1.021750	-6.757901	-73.803526	8.819392			
10699	8.248175	-0.304759	2.494870	-0.109931	-0.026964	-1.190806	-6.715332	-73.799556	8.631064			
10700	8.060572	-0.182956	2.369994	-0.047324	0.090515	-1.409549	-6.770992	-73.818290	8.577467			
10701	7.945572	0.036432	2.256377	0.016835	0.311260	-1.558749	-6.924504	-73.867883	8.658235			
10702	7.890697	0.418529	2.171343	0.060842	0.699871	-1.648163	-7.206433	-73.938935	8.879074			
10703	8.011202	0.855929	2.121195	0.114838	1.155234	-1.562618	-7.637286	-74.022227	9.227363			
10704	8.120846	1.187426	2.165560	0.077911	1.508238	-1.460032	-8.228923	-74.106322	9.693968			
10705	8.295177	1.370410	2.651975	-0.361605	1.714783	-1.172685	-8.968312	-74.184068	10.246519			
10706	8.524713	1.210315	3.197901	-0.833277	1.590711	-0.805062	-9.835336	-74.260085	10.852914			
10707	8.963813	0.856883	2.905121	-0.440404	1.299371	-0.450985	-10.653789	-74.363307	11.355593			
10708	9.697848	0.537648	3.086943	-0.434196	1.048651	0.315405	-11.245474	-74.477797	11.639490			
10709	10.491769	0.186481	3.441066	-0.578132	0.762975	1.188973	-11.593734	-74.532017	11.685839			
10710	10.738854	-0.179828	3.475034	-0.544546	0.427643	1.454599	-11.809770	-74.496077	11.582988			
10711	10.641587	-0.552528	2.913163	-0.015923	0.058975	1.234096	-12.024998	-74.409854	11.430082			
10712	10.606911	-0.981324	2.474834	0.411670	-0.366722	1.109326	-12.187608	-74.306178	11.236771			
10713	10.428303	-0.961909	2.418513	0.435794	-0.349961	0.920977	-12.281395	-74.188965	11.031610			
10714	10.033914	-0.685014	2.363221	0.407416	-0.090009	0.510072	-12.326450	-74.066459	10.849392			
10715	9.577470	-0.022646	2.398579	0.280380	0.551394	0.041193	-12.294035	-73.980380	10.691919			
10716	9.234654	0.943442	2.769630	-0.138699	1.507693	-0.244647	-12.110476	-73.950097	10.482523			
10717	9.027513	2.014535	3.189720	-0.574011	2.571863	-0.390126	-11.866687	-73.967952	10.236583			
10718	8.883180	2.794901	3.804291	-1.191273	3.354376	-0.403968	-11.646965	-74.027887	9.981235			
10719	9.438639	3.015324	4.103392	-1.328949	3.601633	0.201304	-11.440393	-74.112628	9.650190			
10720	10.702682	2.966167	3.891001	-0.788551	3.592991	1.365597	-11.251117	-74.216216	9.235092			
10721	12.028680	2.619421	3.947644	-0.502275	3.299033	2.677249	-11.171558	-74.346911	8.806224			
10722	13.309002	1.544146	3.588930	0.129023	2.257467	3.872394	-11.257010	-74.552127	8.422341			
10723	14.255527	0.587796	4.051696	-0.140166	1.371508	4.954878	-11.554242	-74.724345	8.121720			
10724	14.225864	-0.513552	3.426453	0.377502	0.256542	4.821899	-12.160883	-74.738807	7.889403			
10725	13.618663	-1.178047	1.760372	1.785702	-0.536065	3.843027	-12.707329	-74.605300	7.568675			
10726	12.854393	-1.301965	0.683238	2.634562	-0.787390	2.829953	-12.854760	-74.428182	7.156458			
10727	12.374197	-2.558793	1.257817	1.864410	-2.006802	2.586787	-12.659328	-74.318939	6.760329			
10728	13.017484	-5.186477	2.564876	0.552545	-4.476068	3.699991	-12.294486	-74.256912	6.399834			
10729	14.447839	-7.181749	2.837180	0.520506	-6.406678	5.255507	-11.967095	-74.089184	6.102241			
10730	14.160328	-6.586199	2.359795	1.022208	-5.879733	4.810745	-11.937389	-73.727611	6.005474			
10731	10.673558	-3.146275	2.365010	0.455898	-2.555817	1.263257	-11.922542	-73.298356	5.974593			
10732	7.443938	0.645319	3.456589	-1.081649	1.237801	-1.745821	-11.856544	-72.928237	5.961966			
10733	5.394943	1.487943	3.763964	-1.850267	2.050906	-3.659884	-11.984440	-72.600585	6.051474			
10734	3.919036	1.139712	3.106637	-1.665121	1.600085	-5.232732	-12.344372	-72.297447	6.204736			
10735	3.550544	1.089043	2.485125	-1.167294	1.486333	-5.763442	-12.861297	-72.109440	6.343991			
10736	4.921212	0.643284	2.733962	-1.016767	1.142250	-4.356673	-13.440788	-72.125055	6.445121			
10737	7.047811	-0.422862	2.733714	-0.493403	0.181810	-2.259736	-13.924565	-72.278534	6.370029			
10738	8.897897	-2.184271	2.277762	0.250653	-1.546991	-0.502715	-14.213662	-72.483781	6.076595			
10739	10.029491	-3.794240	1.644021	0.919486	-3.191973	0.514714	-14.431089	-72.683608	5.722633			
10740	10.783447	-4.978809	0.995748	1.517325	-4.441073	1.143448	-14.709022	-72.875624	5.501224			
10741	10.974993	-5.797001	0.988733	1.385308	-5.238913	1.397468	-15.085818	-73.077528	5.548203			
10742	10.537439	-6.087210	1.239268	0.918882	-5.480814	1.084269	-15.498406	-73.253111	5.827027			
10743	9.649078	-5.432243	1.513087	0.473396	-4.796890	0.270420	-15.905437	-73.398605	6.278024			
10744	8.797018	-4.189266	1.773244	0.163326	-3.536404	-0.563417	-16.352299	-73.505646	6.875921			
10745	8.322078	-2.772709	2.181738	-0.147663	-2.071134	-1.015332	-16.748263	-73.582747	7.504350			
10746	8.234480	-1.333330	2.394411	-0.164845	-0.607087	-1.156944	-17.077171	-73.628301	8.077628			
10747	7.992673	-0.350451	2.310113	-0.017158	0.349548	-1.492845	-17.322267	-73.662429	8.547462			
10748	7.750801	0.183345	2.195044	0.091507	0.855168	-1.801005	-17.481838	-73.702687	8.887732			
10749	7.616479	0.204705	2.195885	0.045004	0.875049	-1.931899	-17.609127	-73.780182	9.141612			
10750	7.840778	-0.076931	2.047943	0.194113	0.587474	-1.732158	-17.749717	-73.894857	9.361699			
10751	8.222550	-0.608464	1.923237	0.326736	0.063905	-1.352870	-17.891030	-74.031340	9.557097			
10752	8.511428	-1.097868	1.749033	0.485120	-0.430118	-1.078361	-18.014830	-74.168093	9.732428			
10753	8.554336	-1.591111	1.559751	0.591527	-0.940894	-1.043086	-18.163661	-74.298286	9.944248			
10754	8.838027	-1.935668	1.356446	0.796588	-1.293723	-0.791093	-18.356228	-74.427450	10.221070			
10755	9.024543	-2.286322	1.288526	0.846483	-1.633760	-0.596169	-18.610603	-74.551966	10.603883			
10756	9.156812	-2.303842	1.216785	0.930245	-1.643383	-0.481591	-18.960311	-74.674968	11.134625			
10757	9.478390	-1.985366	1.491209	0.772941	-1.255988	-0.126085	-19.428116	-74.790938	11.827692			
10758	9.812253	-1.528727	1.574418	0.816645	-0.753204	0.180401	-19.950960	-74.881603	12.599947			
10759	9.848629	-0.957736	1.655084	0.798145	-0.150955	0.186920	-20.488207	-74.949654	13.399831			
10760	9.798902	-0.535721	1.779268	0.698203	0.303886	0.131727	-20.980124	-74.994105	14.151904			
10761	9.688636	-0.238100	1.953705	0.520657	0.635183	0.039659	-21.419297	-75.026638	14.847710			
10762	9.527976	0.091742	2.039777	0.418186	0.980316	-0.126848	-21.817477	-75.054996	15.481028			
10763	9.464362	0.231695	2.080864	0.362908	1.135857	-0.193129	-22.185887	-75.084746	16.060809			
10764	9.575785	0.374372	2.005097	0.463811	1.291459	-0.118710	-22.532025	-75.111482	16.593802			
10765	9.616845	0.389472	1.891208	0.573233	1.311500	-0.108905	-22.863270	-75.126379	17.090152			
10766	9.500490	0.319870	1.785965	0.631150	1.237386	-0.240759	-23.199310	-75.124962	17.580050			
10767	9.608797	0.149560	1.734120	0.686424	1.088451	-0.132678	-23.575009	-75.109366	18.111101			
10768	9.597479	0.013424	1.686008	0.714743	0.967602	-0.142772	-24.003454	-75.072319	18.702393			
10769	9.599099	-0.145079	1.646631	0.738955	0.829706	-0.135878	-24.452587	-75.014669	19.341826			
10770	9.597658	-0.187536	1.594354	0.787479	0.807444	-0.147284	-24.896950	-74.934178	20.001102			
10771	9.534878	-0.200498	1.490151	0.876739	0.806054	-0.233743	-25.334001	-74.826312	20.674255			
10772	9.477468	-0.255632	1.253116	1.097149	0.753199	-0.342370	-25.760184	-74.691682	21.337321			
10773	9.512870	-0.269692	1.522164	0.857344	0.797662	-0.246445	-26.206860	-74.528297	22.011818			
10774	9.425268	-0.417234	1.659552	0.712141	0.687898	-0.284656	-26.672897	-74.322875	22.685673			
10775	9.205121	-0.474397	1.611371	0.724005	0.640146	-0.505611	-27.135337	-74.082487	23.325043			
10776	8.949878	-0.469074	1.638129	0.661474	0.655752	-0.749791	-27.553786	-73.820608	23.899103			
10777	8.679415	-0.331226	1.712405	0.555237	0.801031	-1.013585	-27.911493	-73.564987	24.389993			
10778	8.390693	-0.044510	1.791568	0.443476	1.086048	-1.313326	-28.185191	-73.326741	24.764707			
10779	8.336951	0.313806	1.863050	0.399081	1.462835	-1.399902	-28.370510	-73.122005	25.005787			
10780	8.363818	0.584085	1.859528	0.440970	1.750235	-1.416580	-28.467805	-72.965276	25.113253			
10781	8.631195	0.672591	1.729951	0.655660	1.871949	-1.209867	-28.512421	-72.871489	25.137724			
10782	9.116505	0.559350	1.723834	0.795308	1.825281	-0.733537	-28.530142	-72.838775	25.135110			
10783	9.677285	0.369173	1.599070	1.058315	1.699400	-0.203568	-28.563367	-72.856932	25.163107			
10784	10.259446	-0.032663	1.345561	1.435169	1.356745	0.344446	-28.654953	-72.899739	25.291846			
10785	10.745673	-0.333114	1.223922	1.658087	1.117381	0.821250	-28.861298	-72.938738	25.579905			
10786	11.299764	-0.664499	1.340087	1.667802	0.881476	1.428463	-29.112841	-72.955630	25.991945			
10787	11.560251	-0.662506	1.504190	1.569531	0.947810	1.718968	-29.353336	-72.927989	26.464010			
10788	11.480936	-0.490127	2.188071	0.891760	1.173474	1.791944	-29.485410	-72.874770	26.917440			
10789	11.181909	-0.235754	2.711245	0.313353	1.429553	1.602202	-29.505762	-72.835336	27.292287			
10790	10.810979	0.135889	3.062045	-0.121393	1.769252	1.283567	-29.490564	-72.836659	27.611218			
10791	10.360705	0.496265	3.329831	-0.508894	2.073721	0.869958	-29.526615	-72.904200	27.914404			
10792	9.927089	0.545121	3.380359	-0.697634	2.059051	0.460803	-29.733298	-73.053440	28.259441			
10793	9.906333	0.001913	3.498156	-0.864039	1.520143	0.546603	-30.173154	-73.314409	28.695758			
10794	10.822718	-0.688868	3.186210	-0.401393	0.946397	1.443440	-30.793001	-73.680395	29.165443			
10795	11.939574	-1.290874	2.369874	0.571517	0.461049	2.405993	-31.523359	-74.086910	29.591233			
10796	12.295694	-2.963964	2.153721	0.734407	-1.168344	2.942790	-32.264809	-74.531702	29.954956			
10797	12.348365	-4.906243	2.159643	0.573193	-3.102344	3.274058	-32.880414	-74.987641	30.186330			
10798	11.833042	-6.876601	2.045644	0.382065	-5.152678	3.024593	-33.316551	-75.417474	30.297033			
10799	11.340872	-8.060253	1.196075	0.946054	-6.474188	2.524353	-33.576295	-75.805196	30.338979			
10800	10.637897	-8.472433	0.548134	1.335542	-7.049398	1.753184	-33.443353	-76.108382	30.191060			
10801	9.904662	-8.115169	0.713840	1.011320	-6.810739	1.006682	-32.933604	-76.362574	29.961241			
10802	9.469523	-7.123677	0.983605	0.715909	-5.903658	0.483918	-32.093557	-76.578141	29.654652			
10803	9.105750	-5.361371	1.626249	0.106340	-4.210666	0.013920	-30.986522	-76.763379	29.263930			
10804	8.952776	-3.459648	2.497382	-0.704959	-2.363410	-0.206693	-29.680633	-76.929811	28.773884			
10805	8.987240	-1.706869	3.309581	-1.464197	-0.669169	-0.218678	-28.258572	-77.081229	28.172024			
10806	9.245438	-0.235888	3.903590	-2.003278	0.746445	-0.004482	-26.780194	-77.203588	27.417705			
10807	9.600090	0.998982	4.039759	-2.097631	1.931069	0.254574	-25.345901	-77.303333	26.529987			
10808	9.931715	1.904425	4.022996	-2.046426	2.794900	0.504803	-23.974396	-77.352634	25.497951			
10809	9.951630	2.064467	3.662828	-1.687147	2.907052	0.454524	-22.730990	-77.355906	24.368381			
10810	9.948964	1.368465	3.362894	-1.345472	2.176703	0.464233	-21.516709	-77.314282	23.100717			
10811	9.804755	0.269377	2.869955	-0.820477	1.043078	0.320478	-20.363317	-77.224951	21.773081			
10812	9.746395	-1.037446	2.298822	-0.196423	-0.285832	0.248756	-19.314914	-77.100720	20.480339			
10813	9.496712	-2.124815	1.931184	0.172980	-1.412716	0.005969	-18.370669	-76.954334	19.307184			
10814	9.050967	-2.831443	1.764550	0.287334	-2.174275	-0.419042	-17.482206	-76.790959	18.261007			
10815	8.793153	-3.094135	1.841867	0.192786	-2.478147	-0.641692	-16.607423	-76.617656	17.350105			
10816	8.664903	-2.948052	2.021949	0.024091	-2.365658	-0.742808	-15.657697	-76.420483	16.486049			
10817	8.445342	-2.468388	2.069679	-0.038438	-1.926217	-0.981589	-14.718010	-76.210291	15.713698			
10818	8.116516	-1.830402	2.068100	-0.083951	-1.334688	-1.344122	-13.797954	-76.002936	15.002393			
10819	7.848488	-1.051776	2.038500	-0.100129	-0.597330	-1.658333	-12.914062	-75.809642	14.355462			
10820	7.855825	-0.215426	2.218519	-0.266307	0.211915	-1.653872	-12.112997	-75.635596	13.783258			
10821	7.993660	0.485142	2.438624	-0.444908	0.892722	-1.500897	-11.411020	-75.491913	13.293528			
10822	8.189431	1.008962	2.600846	-0.554257	1.402435	-1.293585	-10.825187	-75.378959	12.875951			
10823	8.576094	1.325013	2.844230	-0.691847	1.715293	-0.869882	-10.365988	-75.288985	12.526735			
10824	8.884648	1.311242	2.894091	-0.647727	1.704237	-0.554822	-10.057933	-75.203119	12.254973			
10825	8.971261	1.156027	2.903631	-0.612275	1.546914	-0.459445	-9.873507	-75.111623	12.040572			
10826	9.046678	0.859650	2.726022	-0.391116	1.259120	-0.417253	-9.806371	-75.016594	11.889288			
10827	8.927400	0.576006	2.565284	-0.235821	0.976633	-0.560580	-9.791245	-74.911556	11.749682			
10828	8.657161	0.465111	2.464473	-0.183949	0.859186	-0.842496	-9.850204	-74.800795	11.656651			
10829	8.251260	0.461838	2.331689	-0.142923	0.844986	-1.268748	-9.978317	-74.705091	11.625171			
10830	7.920365	0.557537	2.206656	-0.099111	0.933958	-1.625488	-10.159549	-74.651229	11.662765			
10831	7.839654	0.528476	2.305336	-0.209491	0.908110	-1.677241	-10.416006	-74.640402	11.785976			
10832	7.745600	0.609032	2.236114	-0.171102	0.995388	-1.791131	-10.746730	-74.671492	11.997937			
10833	7.808277	0.667984	2.135654	-0.067812	1.070924	-1.761296	-11.136305	-74.744145	12.285715			
10834	7.904716	0.890605	2.181570	-0.107574	1.310486	-1.669717	-11.582490	-74.855099	12.643173			
10835	8.104201	1.056531	2.428898	-0.320518	1.497772	-1.425330	-12.051901	-75.004526	13.028435			
10836	8.338323	1.174235	2.801119	-0.650395	1.637966	-1.115177	-12.517356	-75.185532	13.399115			
10837	8.693881	1.075645	3.436391	-1.205428	1.567699	-0.612768	-12.948786	-75.384682	13.699725			
10838	9.253370	0.851577	3.584365	-1.237718	1.388696	-0.028148	-13.311693	-75.569200	13.852381			
10839	9.834348	0.536442	3.487320	-1.023591	1.121023	0.524580	-13.611549	-75.707545	13.858559			
10840	10.482401	0.234572	3.521676	-0.913615	0.870521	1.175736	-13.835177	-75.771118	13.738430			
10841	11.030412	-0.161397	3.453443	-0.716421	0.521394	1.712814	-14.055679	-75.749660	13.543300			
10842	11.215154	-0.474775	3.031639	-0.250353	0.230747	1.809702	-14.313977	-75.642467	13.316861			
10843	11.223377	-0.756450	2.546945	0.240506	-0.043580	1.718294	-14.568243	-75.509463	13.096283			
10844	10.924242	-0.701187	2.188228	0.539451	-0.002775	1.337559	-14.779193	-75.375930	12.893195			
10845	10.285097	-0.405902	1.945915	0.643843	0.256392	0.639789	-14.951992	-75.280674	12.775891			
10846	9.712334	0.195666	2.329242	0.161453	0.847817	0.139610	-15.021555	-75.235551	12.702225			
10847	9.582339	0.884637	3.187845	-0.675807	1.569589	0.179601	-14.980274	-75.245408	12.628966			
10848	9.783418	1.623168	3.574656	-0.978817	2.332815	0.420982	-14.902080	-75.291073	12.507945			
10849	10.181801	2.240190	4.092149	-1.361462	2.994601	0.893012	-14.918532	-75.310576	12.379352			
10850	10.512281	2.357693	3.834432	-1.021248	3.125899	1.139729	-15.162327	-75.363032	12.300314			
10851	11.920647	2.064045	3.853802	-0.705025	2.925864	2.522471	-15.476818	-75.468612	12.203811			
10852	13.186139	1.779942	4.031065	-0.577264	2.740350	3.805284	-15.793472	-75.512165	11.994710			
10853	13.040359	0.983253	3.844579	-0.458921	1.950758	3.669981	-16.160059	-75.465826	11.682448			
10854	12.409028	-0.418033	3.291259	-0.150398	0.503199	3.021454	-16.459444	-75.379864	11.208943			
10855	12.065320	-1.695861	2.539626	0.402707	-0.848060	2.597639	-16.388937	-75.271751	10.476651			
10856	12.588874	-2.850469	2.329397	0.639853	-2.010914	3.132495	-15.860192	-75.180717	9.520810			
10857	14.183657	-4.222149	3.130432	0.143545	-3.256180	4.958184	-14.962870	-75.126323	8.472657			
10858	15.332153	-5.856821	3.209748	0.214698	-4.883395	6.180613	-14.062630	-74.987702	7.519855			
10859	14.491120	-6.618126	1.831433	1.300474	-5.872308	5.052390	-13.563419	-74.700333	7.013432			
10860	11.810908	-5.119183	1.866132	0.804927	-4.477305	2.373011	-13.438921	-74.333564	7.001859			
10861	9.123579	-2.195670	2.960086	-0.584220	-1.528812	-0.109914	-13.547169	-73.962263	7.265543			
10862	6.948754	0.103307	3.251129	-1.174368	0.722582	-2.265219	-13.781565	-73.628970	7.597974			
10863	5.125792	1.095728	2.854541	-1.176154	1.605653	-4.185854	-14.035045	-73.373274	7.913226			
10864	4.158649	1.352976	2.746204	-1.304013	1.819823	-5.159268	-14.318779	-73.195776	8.167435			
10865	4.069940	0.823055	2.300895	-0.944089	1.251094	-5.331685	-14.751024	-73.093127	8.406210			
10866	4.810492	-0.290076	2.205120	-0.744819	0.183968	-4.568748	-15.352539	-73.065353	8.666935			
10867	6.051293	-1.376969	1.987760	-0.300183	-0.844626	-3.358090	-15.993437	-73.094228	8.909929			
10868	7.303331	-2.186635	1.688795	0.236259	-1.608513	-2.175355	-16.561062	-73.161314	9.072854			
10869	8.579967	-3.183324	1.887637	0.266655	-2.492969	-0.811218	-16.960439	-73.259525	9.115729			
10870	9.539465	-4.125509	1.898604	0.377091	-3.368829	0.194040	-17.192096	-73.357717	9.026950			
10871	10.114650	-4.890268	1.775129	0.524500	-4.112742	0.778919	-17.295843	-73.421168	8.883648			
10872	10.181487	-5.344714	1.554310	0.669091	-4.590819	0.823158	-17.364837	-73.440849	8.798805			
10873	9.930127	-5.082310	1.487025	0.690353	-4.350809	0.543104	-17.429266	-73.424402	8.838085			
10874	9.570108	-4.472858	1.500883	0.665191	-3.757480	0.151495	-17.543537	-73.382386	9.023712			
10875	9.114978	-3.694162	1.695611	0.470389	-2.971422	-0.296695	-17.661075	-73.346460	9.322487			
10876	9.042005	-2.921299	1.949223	0.324273	-2.166536	-0.363229	-17.740784	-73.327662	9.641086			
10877	9.036481	-2.280595	2.010809	0.355955	-1.520018	-0.407088	-17.783866	-73.320737	9.944457			
10878	9.090089	-1.669263	2.031139	0.432657	-0.906705	-0.403523	-17.816760	-73.326049	10.219806			
10879	9.023276	-1.255955	2.007787	0.485229	-0.501512	-0.509936	-17.855975	-73.355004	10.487018			
10880	9.126358	-0.759526	2.037231	0.537637	0.002735	-0.446337	-17.949724	-73.406715	10.777106			
10881	8.945435	-0.681746	1.927415	0.589710	0.061627	-0.655780	-18.118735	-73.471649	11.119230			
10882	8.884052	-0.495156	1.782265	0.716702	0.232925	-0.769454	-18.369704	-73.568112	11.524475			
10883	9.120744	-0.614193	1.949301	0.589039	0.160875	-0.485734	-18.699330	-73.697259	12.016024			
10884	9.502422	-0.637072	1.890568	0.723776	0.167157	-0.131557	-19.087804	-73.814526	12.542236			
10885	9.763950	-0.774438	1.864884	0.783564	0.061031	0.126855	-19.518136	-73.905456	13.101672			
10886	9.770778	-0.781572	1.772898	0.855025	0.063762	0.111371	-20.000789	-73.965449	13.708780			
10887	9.625984	-0.925749	1.621165	0.933268	-0.082111	-0.052209	-20.565059	-74.006211	14.398011			
10888	9.449189	-1.138883	1.435461	1.032554	-0.299572	-0.247711	-21.170046	-74.031533	15.134738			
10889	9.252512	-1.370855	1.429680	0.954803	-0.515249	-0.412953	-21.790518	-74.052243	15.918330			
10890	9.061275	-1.487842	1.376745	0.935910	-0.622685	-0.595743	-22.409841	-74.073654	16.717390			
10891	9.086475	-1.535577	1.428919	0.879196	-0.634228	-0.550477	-23.001580	-74.100835	17.521614			
10892	9.175149	-1.508914	1.560972	0.768503	-0.560775	-0.432299	-23.518261	-74.128623	18.282490			
10893	9.277493	-1.379597	1.683726	0.678569	-0.388733	-0.315399	-23.947114	-74.149566	18.991898			
10894	9.361913	-1.077178	1.796345	0.607148	-0.051710	-0.238699	-24.266174	-74.156089	19.622385			
10895	9.357246	-0.710187	1.912074	0.513319	0.337365	-0.255432	-24.489194	-74.152072	20.189678			
10896	9.277328	-0.356562	2.045718	0.381085	0.703412	-0.339520	-24.637003	-74.132366	20.677797			
10897	9.270625	-0.086926	2.138763	0.300100	0.986864	-0.354232	-24.760879	-74.109644	21.134055			
10898	9.326295	0.064263	2.122653	0.333988	1.149575	-0.322878	-24.869500	-74.073086	21.548420			
10899	9.444380	0.014263	2.122631	0.360327	1.121311	-0.204623	-24.997930	-74.026655	21.963734			
10900	9.569198	-0.122699	2.051590	0.456653	1.005441	-0.087763	-25.166590	-73.961678	22.402722			
10901	9.629633	-0.200815	1.937273	0.583356	0.942609	-0.050805	-25.367584	-73.879546	22.874937			
10902	9.716672	-0.223039	1.767057	0.775727	0.938454	-0.009450	-25.572014	-73.778000	23.355213			
10903	9.623264	-0.221210	1.674255	0.850041	0.945298	-0.125424	-25.765260	-73.658919	23.836053			
10904	9.611414	-0.217942	1.605343	0.925571	0.965044	-0.157852	-25.927877	-73.516964	24.289943			
10905	9.466581	-0.326410	1.728820	0.782946	0.866997	-0.255137	-26.046374	-73.356063	24.708794			
10906	9.353621	-0.348329	1.774232	0.729133	0.852926	-0.352229	-26.100449	-73.176920	25.054678			
10907	9.275500	-0.392072	1.856208	0.652337	0.820167	-0.403339	-26.092792	-72.985831	25.322345			
10908	9.044291	-0.364698	1.902842	0.571903	0.834458	-0.618693	-26.028400	-72.787173	25.494740			
10909	8.752940	-0.356358	2.066583	0.362361	0.821557	-0.856941	-25.929480	-72.598292	25.596367			
10910	8.536565	-0.281799	2.105185	0.290439	0.876557	-1.064464	-25.804579	-72.432543	25.626685			
10911	8.525868	-0.071312	2.127280	0.283387	1.089589	-1.097569	-25.684764	-72.304066	25.625403			
10912	8.706597	0.100553	2.041119	0.428055	1.284375	-0.972538	-25.552647	-72.218841	25.590240			
10913	9.152250	0.151242	1.906721	0.689196	1.391019	-0.592481	-25.429370	-72.166354	25.559914			
10914	9.528081	-0.073433	1.890337	0.819916	1.216687	-0.210057	-25.323039	-72.136893	25.566586			
10915	9.911100	-0.583253	1.924817	0.906748	0.761828	0.230840	-25.261358	-72.131992	25.648389			
10916	10.418635	-1.213992	1.782085	1.199268	0.203479	0.756982	-25.241874	-72.145325	25.852896			
10917	10.797519	-1.581678	1.869597	1.228848	-0.106071	1.190139	-25.201051	-72.157547	26.158182			
10918	10.955595	-1.595194	2.306600	0.854087	-0.094983	1.463466	-25.091073	-72.164400	26.492330			
10919	11.181112	-1.407695	2.858560	0.378528	0.114315	1.806860	-24.911108	-72.188331	26.801574			
10920	11.144819	-0.983255	3.119300	0.093547	0.514295	1.790353	-24.700474	-72.229966	27.074954			
10921	11.042236	-0.406773	3.177042	-0.034920	1.054604	1.636181	-24.541350	-72.300303	27.343368			
10922	11.120628	-0.168191	3.519317	-0.379325	1.275689	1.776571	-24.475922	-72.418670	27.597287			
10923	11.490203	-0.414644	3.757862	-0.524766	1.058481	2.225681	-24.524647	-72.602331	27.823048			
10924	11.960660	-1.147839	3.505141	-0.148940	0.390538	2.696748	-24.657998	-72.858078	27.985679			
10925	12.277768	-2.291619	2.873125	0.565863	-0.692025	2.972086	-24.886586	-73.166222	28.124396			
10926	12.236728	-3.457655	2.027721	1.382160	-1.838013	2.856779	-25.242621	-73.483674	28.321122			
10927	11.933461	-4.994734	1.441669	1.901018	-3.394444	2.608933	-25.670447	-73.792178	28.622208			
10928	11.605817	-6.341280	1.100919	2.175631	-4.771090	2.378373	-25.956668	-74.035882	28.922629			
10929	11.142960	-7.190425	0.969471	2.218721	-5.675888	2.005486	-25.999958	-74.182986	29.175537			
10930	10.164176	-7.484931	1.136520	1.862862	-6.107787	1.134954	-25.742480	-74.235694	29.353014			
10931	8.943600	-6.913635	1.622218	1.120858	-5.733089	0.000198	-25.183598	-74.224174	29.472750			
10932	7.800725	-5.695343	2.369869	0.104228	-4.741113	-1.071134	-24.377154	-74.188927	29.532109			
10933	7.147374	-4.091073	3.111615	-0.850573	-3.332440	-1.708695	-23.403143	-74.168009	29.524886			
10934	7.396677	-2.410440	3.782563	-1.576572	-1.755714	-1.490419	-22.261578	-74.171735	29.365659			
10935	7.959332	-0.966362	4.348856	-2.143523	-0.390558	-0.955513	-20.986212	-74.179735	29.004710			
10936	8.573450	0.356871	4.906507	-2.705207	0.841253	-0.342805	-19.633380	-74.149553	28.428897			
10937	9.095101	1.266348	5.401688	-3.179499	1.653976	0.220124	-18.380183	-74.074871	27.765876			
10938	9.454774	1.691803	5.806724	-3.522530	1.994470	0.655670	-17.399930	-73.929305	27.127077			
10939	9.162833	1.216662	5.342689	-3.031304	1.532914	0.308742	-16.926568	-73.760240	26.703694			
10940	8.994924	0.310725	3.961253	-1.562638	0.840646	-0.140661	-16.955301	-73.582309	26.503392			
10941	9.161944	-0.982603	2.896985	-0.255079	-0.223251	-0.159489	-17.289972	-73.394335	26.477782			
10942	9.286569	-1.908043	2.791106	0.052997	-1.069051	0.012050	-17.719838	-73.199139	26.579268			
10943	9.369932	-2.661414	2.785567	0.217353	-1.762877	0.161431	-18.197484	-73.008883	26.783832			
10944	9.529740	-3.353714	2.616334	0.542561	-2.364050	0.337451	-18.695998	-72.817270	27.055788			
10945	9.357838	-3.761509	2.584960	0.603315	-2.748383	0.211403	-19.136070	-72.622658	27.341335			
10946	8.853177	-3.697551	2.890553	0.185657	-2.760265	-0.181889	-19.452348	-72.418486	27.585933			
10947	8.356737	-3.552591	2.649124	0.279078	-2.630143	-0.730937	-19.739324	-72.233315	27.833830			
10948	7.953667	-3.259451	2.700697	0.094030	-2.383291	-1.124211	-19.937250	-72.076203	28.047508			
10949	7.817632	-2.795460	2.990676	-0.273354	-1.965514	-1.214077	-20.051773	-71.948889	28.228963			
10950	7.831832	-2.265633	3.044790	-0.388582	-1.437965	-1.238151	-20.137969	-71.844240	28.395224			
10951	7.994859	-1.822353	3.056748	-0.414126	-0.970267	-1.125368	-20.244139	-71.768593	28.581902			
10952	8.258872	-1.369393	3.185658	-0.528822	-0.493787	-0.884690	-20.344727	-71.713809	28.762331			
10953	8.604877	-1.031177	3.304477	-0.596661	-0.117016	-0.557576	-20.452667	-71.674864	28.927026			
10954	8.756118	-0.804129	3.352994	-0.634871	0.129421	-0.424451	-20.542811	-71.637353	29.041739			
10955	9.056367	-0.549653	3.549382	-0.776849	0.407038	-0.109655	-20.620260	-71.603069	29.111641			
10956	9.107699	-0.329221	3.591925	-0.834981	0.632315	-0.072899	-20.681984	-71.564413	29.112259			
10957	9.140394	-0.143924	3.761349	-1.011327	0.804984	-0.012459	-20.717055	-71.529905	29.029119			
10958	9.336101	-0.072542	3.832952	-1.030228	0.902747	0.186475	-20.734675	-71.505175	28.857167			
10959	9.476765	-0.103593	3.853664	-0.999567	0.898263	0.329527	-20.756156	-71.484631	28.623899			
10960	9.638531	-0.166201	3.855119	-0.939072	0.869185	0.490394	-20.789096	-71.461413	28.336518			
10961	9.604071	-0.397376	3.691138	-0.752793	0.664564	0.434860	-20.874810	-71.441940	28.044408			
10962	9.602874	-0.621751	3.722086	-0.746890	0.451695	0.468062	-20.981081	-71.426854	27.762099			
10963	9.600134	-0.696457	3.788281	-0.797762	0.384558	0.493348	-21.114332	-71.402151	27.486992			
10964	9.621373	-0.782781	3.924363	-0.904994	0.305903	0.563804	-21.227803	-71.354400	27.176718			
10965	9.565860	-0.788689	3.954507	-0.939427	0.307018	0.521190	-21.327171	-71.278291	26.841415			
10966	9.394565	-0.628612	3.494711	-0.555935	0.492018	0.203041	-21.451501	-71.192775	26.476750			
10967	9.220958	-0.504985	3.258263	-0.380949	0.620440	-0.047072	-21.569947	-71.131609	26.084171			
10968	9.117514	-0.258100	3.628331	-0.774765	0.839485	-0.063049	-21.552408	-71.095543	25.612903			
10969	8.877707	-0.023181	3.660538	-0.884120	1.042106	-0.307631	-21.450880	-71.087844	25.049393			
10970	8.798066	0.038227	3.270566	-0.529339	1.107587	-0.506933	-21.294140	-71.102747	24.388217			
10971	8.828338	0.022911	3.317374	-0.552354	1.089195	-0.461025	-21.055041	-71.122455	23.641170			
10972	8.760668	0.061493	3.093149	-0.348950	1.115788	-0.595644	-20.827646	-71.147833	22.850243			
10973	8.872969	-0.145304	3.090024	-0.289635	0.916883	-0.465262	-20.635074	-71.160071	22.048407			
10974	8.722826	-0.351660	2.737813	0.019438	0.688788	-0.689521	-20.517545	-71.181338	21.276133			
10975	8.705919	-0.730945	2.557893	0.200870	0.303410	-0.716660	-20.502415	-71.209238	20.566834			
10976	8.420997	-0.809579	2.392305	0.271203	0.186860	-1.027287	-20.585943	-71.257559	19.938457			
10977	8.280718	-0.778048	2.460200	0.153971	0.204993	-1.143057	-20.783022	-71.348667	19.413457			
10978	8.040159	-0.743189	2.563883	-0.031392	0.224660	-1.344010	-21.110620	-71.439656	18.968029			
10979	7.727628	-0.685622	2.414921	0.001145	0.255396	-1.691550	-21.622661	-71.546381	18.637160			
10980	7.636958	-0.644013	2.554436	-0.178382	0.318292	-1.742385	-22.322171	-71.684324	18.435072			
10981	7.803579	-0.729157	2.492750	-0.103572	0.273758	-1.593474	-23.217470	-71.882555	18.364801			
10982	8.349222	-1.253581	2.288931	0.173302	-0.179854	-1.068691	-24.296777	-72.112557	18.387413			
10983	8.917851	-1.556473	1.563882	0.947122	-0.477537	-0.687397	-25.539959	-72.337593	18.499662			
10984	9.296560	-1.650912	1.038151	1.484434	-0.580036	-0.448451	-26.846564	-72.543550	18.698605			
10985	9.682517	-1.913577	0.885696	1.638361	-0.802667	-0.072648	-28.125652	-72.793196	18.985426			
10986	10.029657	-2.455948	0.868690	1.593236	-1.284332	0.345642	-29.358706	-73.101960	19.298023			
10987	10.456246	-3.199298	0.874849	1.486793	-1.950907	0.879190	-30.566208	-73.461843	19.630501			
10988	11.005876	-3.905223	1.438638	0.862601	-2.452031	1.663024	-31.694256	-73.807506	19.905959			
10989	11.440035	-4.184049	1.780628	0.484695	-2.579696	2.214798	-32.764205	-74.079896	20.129696			
10990	11.454509	-3.971376	1.888377	0.329835	-2.315121	2.231991	-33.715287	-74.268316	20.273863			
10991	11.211522	-3.517483	2.044109	0.141824	-1.828546	1.972268	-34.567017	-74.397844	20.370517			
10992	10.798507	-2.903290	2.311537	-0.128764	-1.174680	1.544396	-35.309489	-74.475792	20.392799			
10993	10.320802	-2.154611	2.452550	-0.235488	-0.430864	1.000965	-35.968562	-74.507488	20.354504			
10994	9.740726	-1.371614	2.327372	-0.084242	0.259840	0.292016	-36.654543	-74.514478	20.322159			
10995	9.342913	-0.692612	2.299067	0.013661	0.892547	-0.207556	-37.426939	-74.525502	20.349090			
10996	9.101152	-0.324890	2.287868	0.063569	1.247358	-0.506194	-38.267482	-74.539587	20.405031			
10997	8.972829	-0.397849	2.155836	0.135360	1.156968	-0.649686	-39.107207	-74.538568	20.421694			
10998	8.897589	-0.617931	1.915716	0.274297	0.894713	-0.738380	-39.962553	-74.536119	20.404430			
10999	9.158876	-1.077840	1.637992	0.446633	0.423978	-0.466541	-40.885288	-74.538977	20.393734			
11000	9.602438	-1.657875	1.645287	0.349334	-0.038516	0.063481	-41.806494	-74.537224	20.369097			
11001	9.888549	-2.052679	1.534551	0.370864	-0.384340	0.388606	-42.620263	-74.507367	20.240885			
11002	9.836406	-2.355412	0.983688	0.729667	-0.853053	0.287327	-43.362952	-74.451372	20.035088			
11003	9.726431	-2.415451	0.578938	1.023857	-1.059724	0.117150	-44.088659	-74.387233	19.821987			
11004	9.630183	-2.342608	0.600730	0.991654	-0.975228	0.018621	-44.764533	-74.325061	19.584043			
11005	9.559080	-2.014046	0.577760	1.112167	-0.682183	-0.114033	-45.365741	-74.269863	19.289521			
11006	9.590392	-1.741961	0.838151	0.998611	-0.311108	-0.085482	-45.811966	-74.218795	18.852246			
11007	9.579386	-1.468088	1.047113	0.932761	0.030690	-0.109833	-46.109942	-74.162038	18.254074			
11008	9.634903	-1.267116	0.826891	1.232345	0.103483	-0.138428	-46.305606	-74.097924	17.519899			
11009	9.819417	-1.141057	0.555196	1.578623	0.082930	-0.038628	-46.452948	-74.033733	16.697722			
11010	9.918032	-1.402055	0.686202	1.378458	-0.082809	0.132008	-46.643395	-73.988454	15.879832			
11011	10.131621	-1.734894	0.799959	1.180838	-0.301813	0.425186	-46.858636	-73.939570	15.066393			
11012	10.118706	-1.834025	0.613194	1.280325	-0.494127	0.397330	-47.144330	-73.885592	14.278235			
11013	10.120477	-2.029383	0.559092	1.217616	-0.692003	0.429069	-47.499913	-73.842488	13.552263			
11014	9.982030	-1.964742	0.704173	1.088605	-0.568084	0.311008	-47.887831	-73.807684	12.851103			
11015	9.739958	-1.870907	0.753855	1.025575	-0.478511	0.069346	-48.259680	-73.783800	12.143380			
11016	9.719279	-1.702015	0.926429	0.972051	-0.242578	0.047119	-48.620949	-73.775181	11.416164			
11017	9.632277	-1.458021	0.941503	1.071069	-0.047880	-0.084197	-48.967670	-73.780591	10.656552			
11018	9.639721	-1.238875	0.983880	1.166961	0.142675	-0.115013	-49.256233	-73.794666	9.832517			
11019	9.622269	-1.009215	1.173212	1.159998	0.429003	-0.145560	-49.523621	-73.816771	8.959405			
11020	9.625146	-0.970835	1.078606	1.256369	0.382995	-0.167783	-49.760319	-73.843854	8.026674			
11021	9.627794	-1.011351	1.166159	1.169844	0.396631	-0.140495	-49.968739	-73.873572	7.047015			
11022	9.518554	-1.127983	0.901671	1.250846	0.109918	-0.267453	-50.134961	-73.895211	6.010491			
11023	9.294182	-1.349671	0.795703	1.109834	-0.146363	-0.454087	-50.305894	-73.916423	4.977020			
11024	9.202486	-1.577786	0.633548	1.028808	-0.438713	-0.521531	-50.494369	-73.939841	3.961688			
11025	9.216746	-1.829913	0.499913	0.929528	-0.719218	-0.476437	-50.744967	-73.961290	3.021643			
11026	9.416785	-2.129196	0.364425	0.838150	-1.023235	-0.242287	-51.053007	-73.983850	2.156087			
11027	9.682497	-2.332343	0.284645	0.787865	-1.214156	0.045133	-51.438454	-74.007128	1.384015			
11028	9.797800	-2.601987	0.130116	0.685277	-1.498696	0.190729	-51.935168	-74.028644	0.721061			
11029	10.058045	-3.019246	-0.034452	0.504988	-1.872549	0.508149	-52.520087	-74.065057	0.185201			
11030	10.181499	-3.335667	-0.309219	0.414101	-2.262776	0.655996	-53.111616	-74.102951	-0.298635			
11031	9.931904	-3.560779	-0.243282	0.086807	-2.319493	0.482614	-53.672011	-74.141515	-0.725935			
11032	9.266976	-3.429943	-0.174883	-0.073496	-2.159419	-0.168868	-54.210874	-74.182386	-1.093582			
11033	9.057369	-3.677740	-0.160967	-0.375505	-2.257615	-0.307450	-54.855997	-74.244127	-1.297991			
11034	9.043411	-3.562710	-0.099464	-0.359984	-2.109656	-0.330829	-55.433829	-74.310499	-1.483176			
11035	9.155773	-3.258107	0.029716	-0.188700	-1.806915	-0.265771	-55.966587	-74.404700	-1.649480			
