// General information: 
//  MT Manager version: 2022.0.0 
//  XDA version: 2022.0.0 build 7085 rev 119802 built on 2022-11-08
// Device information: 
//  DeviceId: 00B4938A
//  ProductCode: MTW2-3A7G6
//  Firmware Version: 4.6.0
//  Hardware Version: 2.0.0
// Device settings: 
//  Filter Profile: human(46.1)
//  Option Flags: Orientation Smoother Disabled, Position/Velocity Smoother Disabled, Continuous Zero Rotation Update Disabled, AHS Disabled, ICC Disabled
// Coordinate system: ENU
PacketCounter	Acc_X	Acc_Y	Acc_Z	FreeAcc_E	FreeAcc_N	FreeAcc_U	Roll	Pitch	Yaw	Vel_E	Vel_N	Vel_U
09830	8.965802	-0.147154	3.692662	0.002354	-0.015539	-0.115122	-2.281708	-67.688048	99.055341			
09831	9.004654	-0.164393	3.757912	0.024377	-0.057271	-0.054160	-2.274883	-67.678867	99.068056			
09832	9.051264	-0.188491	3.770009	0.047075	-0.045991	-0.006080	-2.266363	-67.665294	99.080254			
09833	9.079358	-0.174881	3.785922	0.033486	-0.049534	0.025756	-2.265192	-67.653698	99.094503			
09834	9.120167	-0.169269	3.782315	0.024910	-0.029569	0.062054	-2.264560	-67.641790	99.108080			
09835	9.165528	-0.164957	3.813219	0.020486	-0.039129	0.115697	-2.273833	-67.626135	99.125698			
09836	9.241571	-0.206997	3.822152	0.057184	-0.010392	0.190059	-2.292944	-67.602494	99.146552			
09837	9.267484	-0.166333	3.858994	0.016632	-0.034756	0.227446	-2.325745	-67.568685	99.171134			
09838	9.271963	-0.146361	3.829703	-0.010273	-0.002718	0.220120	-2.375435	-67.529076	99.202168			
09839	9.293448	-0.136291	3.816106	-0.028178	0.023293	0.234604	-2.443474	-67.484615	99.243107			
09840	9.182935	-0.164451	3.854144	0.004747	-0.043308	0.147527	-2.518609	-67.442927	99.283384			
09841	9.145550	-0.152254	3.830881	-0.014212	-0.031396	0.103901	-2.609642	-67.401826	99.330227			
09842	9.089683	-0.184835	3.843056	0.015489	-0.054362	0.057591	-2.713199	-67.366545	99.382596			
09843	9.083490	-0.301392	3.828041	0.122127	-0.024240	0.048297	-2.817692	-67.332149	99.429784			
09844	9.080860	-0.390022	3.864946	0.206247	-0.044515	0.061897	-2.926331	-67.303560	99.473992			
09845	9.079632	-0.507943	3.882240	0.317186	-0.043975	0.069972	-3.034375	-67.280175	99.511988			
09846	9.066308	-0.536111	3.886020	0.338795	-0.046835	0.059979	-3.138285	-67.257575	99.545288			
09847	9.058708	-0.594480	3.904947	0.391512	-0.058419	0.061801	-3.244086	-67.239274	99.578595			
09848	9.011173	-0.605161	3.878190	0.394838	-0.049192	0.008183	-3.357617	-67.218957	99.612200			
09849	8.985204	-0.626437	3.900574	0.411404	-0.075545	-0.006270	-3.477708	-67.198097	99.648663			
09850	9.016006	-0.593989	3.969657	0.375221	-0.129477	0.048438	-3.597891	-67.181200	99.676975			
09851	9.019658	-0.521863	3.974273	0.294211	-0.139043	0.052175	-3.741917	-67.159880	99.715296			
09852	9.098445	-0.546074	4.035497	0.308135	-0.160749	0.149457	-3.890905	-67.135764	99.748835			
09853	9.173224	-0.487341	4.031912	0.232995	-0.132716	0.215769	-4.051739	-67.105477	99.784716			
09854	9.258482	-0.490737	4.060195	0.220532	-0.122189	0.305708	-4.231253	-67.067735	99.828999			
09855	9.242606	-0.496032	4.085004	0.214983	-0.145867	0.301242	-4.415400	-67.022144	99.866375			
09856	9.220791	-0.471939	4.095633	0.178343	-0.160805	0.284948	-4.622046	-66.970931	99.918107			
09857	9.165819	-0.570437	4.069317	0.261829	-0.142156	0.227641	-4.831055	-66.918521	99.963645			
09858	9.100217	-0.607757	4.012129	0.283045	-0.106051	0.146686	-5.046084	-66.870567	100.005339			
09859	9.045948	-0.706882	3.861678	0.358774	0.024731	0.041858	-5.253262	-66.826082	100.032025			
09860	9.018849	-0.846370	3.773606	0.479260	0.111129	-0.011971	-5.440740	-66.787715	100.037370			
09861	8.977023	-0.919873	3.742520	0.540721	0.132418	-0.059245	-5.607195	-66.753227	100.021244			
09862	8.913310	-0.951025	3.681063	0.561994	0.168512	-0.140174	-5.739653	-66.725690	99.978120			
09863	8.800385	-1.091178	3.564058	0.694317	0.244208	-0.283877	-5.845188	-66.705475	99.912718			
09864	8.663585	-1.131177	3.455544	0.732508	0.293089	-0.450231	-5.901191	-66.697492	99.814382			
09865	8.642577	-1.202853	3.311109	0.795382	0.420456	-0.523176	-5.937457	-66.705797	99.704609			
09866	8.626696	-1.274498	3.198984	0.862629	0.518263	-0.578783	-5.929139	-66.724361	99.571201			
09867	8.704517	-1.367371	3.124763	0.948935	0.618016	-0.532599	-5.909582	-66.751873	99.441404			
09868	8.791146	-1.464580	3.117921	1.043848	0.658622	-0.451744	-5.867647	-66.783524	99.310355			
09869	8.953431	-1.463069	3.126999	1.037116	0.706669	-0.299138	-5.820429	-66.820393	99.189954			
09870	9.113215	-1.404817	3.175620	0.976507	0.713135	-0.135569	-5.766243	-66.860292	99.077951			
09871	9.235416	-1.354837	3.263152	0.928002	0.669915	0.009058	-5.719151	-66.897832	98.986797			
09872	9.301621	-1.273537	3.273596	0.848170	0.674466	0.070843	-5.668341	-66.931787	98.902028			
09873	9.345846	-1.182326	3.358189	0.762529	0.602471	0.140993	-5.625936	-66.961584	98.832871			
09874	9.363801	-1.078103	3.483183	0.667262	0.483512	0.202132	-5.573095	-66.982987	98.755758			
09875	9.330972	-0.973406	3.546103	0.571525	0.403562	0.192306	-5.524721	-66.996394	98.689683			
09876	9.337799	-0.835806	3.625625	0.440817	0.322977	0.224224	-5.484158	-67.002423	98.633071			
09877	9.303411	-0.816143	3.719191	0.429626	0.222741	0.228116	-5.454295	-66.994234	98.583506			
09878	9.230662	-0.802906	3.732077	0.423250	0.185018	0.165529	-5.415486	-66.969560	98.536866			
09879	9.116612	-0.741657	3.826499	0.374945	0.056063	0.094937	-5.364580	-66.930986	98.489159			
09880	8.986068	-0.860513	3.699809	0.498589	0.137715	-0.070463	-5.293657	-66.878429	98.433884			
09881	8.783409	-0.966694	3.584786	0.616210	0.181813	-0.298452	-5.163540	-66.820245	98.363258			
09882	8.566738	-1.035588	3.509555	0.702091	0.181651	-0.525466	-4.996737	-66.773063	98.295637			
09883	8.331205	-1.120545	3.485102	0.809197	0.125693	-0.749580	-4.805095	-66.757152	98.238227			
09884	8.263426	-1.102648	3.653416	0.814610	-0.053791	-0.747314	-4.635144	-66.782561	98.222812			
09885	8.213510	-1.147169	3.637540	0.871267	-0.056088	-0.798965	-4.492856	-66.809253	98.251270			
09886	8.205072	-1.021549	3.559736	0.750917	0.002442	-0.841924	-4.378546	-66.836312	98.333160			
09887	8.352034	-0.898204	3.460993	0.619986	0.138768	-0.749682	-4.309507	-66.878928	98.477158			
09888	8.570087	-0.593989	3.553608	0.314109	0.108208	-0.521995	-4.271062	-66.943645	98.666612			
09889	8.823247	-0.282427	3.567220	-0.008455	0.156965	-0.292720	-4.286751	-67.023581	98.910361			
09890	9.085317	0.132038	3.512201	-0.441596	0.258411	-0.084678	-4.337292	-67.101413	99.179268			
09891	9.394442	0.545523	3.483479	-0.878924	0.350495	0.176927	-4.445828	-67.170712	99.477159			
09892	9.796370	0.764264	3.307908	-1.142976	0.628106	0.472947	-4.577004	-67.243274	99.778308			
09893	10.175030	0.968366	3.271414	-1.382564	0.767335	0.801962	-4.705780	-67.322557	100.055461			
09894	10.001391	1.251513	3.242425	-1.663070	0.682926	0.621641	-4.814297	-67.365999	100.325496			
09895	10.134347	1.391803	3.132783	-1.830082	0.804796	0.697285	-4.962846	-67.419718	100.596190			
09896	10.410284	0.919425	2.922902	-1.407784	1.136361	0.887290	-5.102678	-67.474732	100.826650			
09897	10.541585	0.870997	2.981057	-1.371259	1.125938	1.032692	-5.141497	-67.502000	100.982719			
09898	10.421427	0.849514	2.905105	-1.350621	1.148084	0.893628	-5.131801	-67.496619	101.081526			
09899	10.420633	0.594952	2.789304	-1.108503	1.281540	0.857488	-5.090393	-67.492863	101.126231			
09900	10.471147	0.283312	2.576431	-0.819358	1.529651	0.834002	-5.016642	-67.509174	101.115524			
09901	10.367035	0.184640	2.672084	-0.697876	1.412980	0.778157	-4.847687	-67.509621	101.027462			
09902	10.186178	0.183144	2.591615	-0.678075	1.421061	0.581013	-4.608909	-67.511365	100.862674			
09903	10.184635	0.230782	2.611511	-0.705738	1.400153	0.586423	-4.281403	-67.503970	100.625032			
09904	10.001341	0.219596	2.725208	-0.648199	1.234117	0.461481	-3.890730	-67.485371	100.327893			
09905	9.967917	0.210666	2.785268	-0.605393	1.175367	0.454416	-3.456164	-67.462473	99.994244			
09906	9.928886	0.123679	2.845995	-0.482030	1.125785	0.443917	-2.985098	-67.418920	99.629395			
09907	9.733200	0.069559	2.949032	-0.375438	0.977651	0.303634	-2.484418	-67.358620	99.250335			
09908	9.586612	0.008566	2.872382	-0.283331	1.014975	0.139359	-1.972803	-67.299533	98.864931			
09909	9.380422	-0.101638	2.837628	-0.134856	0.997011	-0.063715	-1.451275	-67.236528	98.474956			
09910	9.161470	-0.042035	2.755524	-0.160102	0.996593	-0.299104	-0.927943	-67.169434	98.081303			
09911	8.872121	0.084561	2.751440	-0.241383	0.887595	-0.568990	-0.439058	-67.111545	97.703275			
09912	8.878382	0.238892	2.620146	-0.382767	1.002231	-0.615032	0.017595	-67.067094	97.336967			
09913	8.997222	0.474229	2.560477	-0.603802	1.082708	-0.528612	0.438296	-67.021938	97.006537			
09914	9.012662	0.535407	2.407240	-0.659811	1.229941	-0.573565	0.834024	-66.984074	96.690604			
09915	9.105885	0.503658	2.312077	-0.621557	1.364486	-0.524613	1.212012	-66.958405	96.384562			
09916	9.104959	0.386790	2.279087	-0.487361	1.414862	-0.538814	1.586037	-66.945410	96.084013			
09917	9.063802	0.322500	2.319147	-0.395264	1.374013	-0.561159	1.935235	-66.943939	95.794331			
09918	8.980030	0.272658	2.259230	-0.329204	1.404643	-0.661842	2.275317	-66.944931	95.507874			
09919	8.995082	0.314569	2.290381	-0.347773	1.377613	-0.634588	2.577469	-66.953208	95.242483			
09920	8.968658	0.348669	2.326327	-0.358076	1.330550	-0.643632	2.850801	-66.959092	94.995775			
09921	8.970931	0.385950	2.254318	-0.388820	1.392284	-0.668352	3.073840	-66.967835	94.777307			
09922	9.049707	0.411327	2.207072	-0.409558	1.462012	-0.613104	3.251826	-66.982793	94.595444			
09923	9.185575	0.351393	2.170168	-0.349163	1.554665	-0.503069	3.368334	-67.001391	94.457507			
09924	9.288502	0.384798	2.102734	-0.387067	1.650636	-0.433380	3.441143	-67.006527	94.358854			
09925	9.410492	0.387259	2.156992	-0.381817	1.648809	-0.299770	3.471356	-67.001304	94.290785			
09926	9.466813	0.409601	2.064859	-0.415598	1.754251	-0.283687	3.462686	-66.982510	94.251640			
09927	9.513565	0.497724	2.097092	-0.500625	1.735528	-0.226720	3.422060	-66.957618	94.238345			
09928	9.512590	0.496402	2.101824	-0.501000	1.735419	-0.226720	3.350113	-66.932645	94.249403			
09929	9.481021	0.559627	2.058121	-0.572797	1.759106	-0.272444	3.242548	-66.906811	94.289957			
09930	9.475497	0.613717	2.098446	-0.627404	1.717632	-0.261705	3.115373	-66.882083	94.351623			
09931	9.367328	0.690910	2.151400	-0.701930	1.621224	-0.340009	2.962122	-66.858711	94.429086			
09932	9.342305	0.727935	2.245922	-0.735368	1.523916	-0.326401	2.784106	-66.843616	94.518974			
09933	9.304709	0.822530	2.305909	-0.831209	1.444297	-0.336693	2.584229	-66.841300	94.619945			
09934	9.247958	0.953108	2.367442	-0.963070	1.350296	-0.363501	2.364137	-66.844755	94.729574			
09935	9.250912	1.132290	2.386928	-1.151504	1.311451	-0.351557	2.118480	-66.855406	94.853873			
09936	9.291364	1.264493	2.419911	-1.294733	1.281198	-0.301298	1.838278	-66.860841	94.993340			
09937	9.326289	1.417367	2.316500	-1.476227	1.371990	-0.310417	1.505653	-66.864785	95.160267			
09938	9.323491	1.405135	2.407659	-1.473606	1.289276	-0.280378	1.126913	-66.879048	95.356198			
09939	9.416702	1.586402	2.453226	-1.674383	1.261136	-0.178623	0.718380	-66.917061	95.584957			
09940	9.482550	1.526515	2.320867	-1.653842	1.408021	-0.173306	0.288552	-66.978209	95.813098			
09941	9.539097	1.311738	2.267102	-1.469580	1.489861	-0.144421	-0.119948	-67.082290	96.014931			
09942	9.770252	1.467161	2.643277	-1.615597	1.197179	0.214965	-0.432039	-67.252355	96.151317			
09943	10.217941	1.209972	2.844448	-1.371405	1.176309	0.708560	-0.663202	-67.486309	96.200560			
09944	10.871745	0.709284	2.768956	-0.909620	1.498554	1.290995	-0.758806	-67.751142	96.134582			
09945	11.395953	0.460227	2.933874	-0.659747	1.514943	1.847355	-0.684896	-68.036657	95.921324			
09946	12.074050	0.206706	3.223415	-0.387309	1.464524	2.593786	-0.463065	-68.337410	95.565371			
09947	12.637529	-0.193545	3.518990	0.048158	1.374009	3.234813	-0.113205	-68.601290	95.126231			
09948	13.088019	-0.675479	4.197710	0.609376	0.895413	3.905906	0.321280	-68.833022	94.628952			
09949	13.678453	-1.167936	4.703571	1.171069	0.633150	4.637749	0.843041	-69.006328	94.097818			
09950	13.609823	-1.340686	4.944614	1.414676	0.374090	4.655639	1.378405	-69.057765	93.603965			
09951	12.533601	-1.211927	4.769859	1.337427	0.140061	3.585187	1.784895	-69.039816	93.234006			
09952	11.159175	-0.344625	4.362119	0.491721	-0.039432	2.163567	2.000926	-69.016602	93.038257			
09953	10.026176	0.638537	4.181176	-0.474691	-0.355274	1.052975	1.976424	-68.992154	93.027507			
09954	9.226955	1.330380	4.549668	-1.128200	-1.038560	0.446680	1.723393	-68.980407	93.151185			
09955	8.755355	1.470637	4.952972	-1.250276	-1.590654	0.150119	1.310949	-68.970773	93.369787			
09956	8.250616	1.426456	5.341294	-1.198299	-2.121400	-0.184578	0.848850	-68.916311	93.611603			
09957	7.684859	1.072892	5.500738	-0.857382	-2.433073	-0.657842	0.383219	-68.838031	93.827980			
09958	7.129321	0.546001	5.453693	-0.356324	-2.538025	-1.192974	-0.015943	-68.759793	93.976939			
09959	6.627614	-0.140248	5.189336	0.296663	-2.416552	-1.753757	-0.266372	-68.691813	94.006511			
09960	6.168870	-0.917130	4.887523	1.049154	-2.245374	-2.286631	-0.319782	-68.633594	93.873758			
09961	6.025277	-1.399980	4.568094	1.512072	-1.966299	-2.534041	-0.167941	-68.573734	93.596592			
09962	6.305957	-1.670240	4.301445	1.766324	-1.595377	-2.370102	0.111209	-68.516571	93.219351			
09963	6.646467	-1.741811	4.162205	1.836165	-1.331635	-2.106287	0.485576	-68.455097	92.801531			
09964	7.161918	-1.539183	4.049490	1.635942	-1.043458	-1.670490	0.861395	-68.416739	92.398247			
09965	7.738582	-1.228382	3.879151	1.325955	-0.688224	-1.198133	1.201181	-68.415222	92.056923			
09966	8.219732	-0.708094	3.907108	0.818951	-0.567700	-0.738664	1.474867	-68.441841	91.800869			
09967	8.780684	-0.255777	4.000202	0.378713	-0.480935	-0.179790	1.623709	-68.512747	91.653662			
09968	9.231236	0.026554	4.005960	0.098961	-0.351184	0.243703	1.672350	-68.610168	91.607801			
09969	9.592516	0.210366	4.068365	-0.085197	-0.306068	0.604186	1.598918	-68.717791	91.674517			
09970	9.836198	0.035935	4.072542	0.078115	-0.232834	0.830495	1.399924	-68.835694	91.842659			
09971	9.985204	-0.292213	3.939586	0.380758	-0.061106	0.918633	1.102559	-68.966746	92.120308			
09972	9.832455	-0.780271	3.844678	0.843463	-0.024051	0.739822	0.725909	-69.081152	92.489192			
09973	9.581995	-1.281235	3.698120	1.314666	0.031837	0.453901	0.305541	-69.171049	92.926104			
09974	9.272938	-1.540146	3.475690	1.541184	0.130245	0.089210	-0.120644	-69.240747	93.393338			
09975	9.192910	-1.584535	3.300344	1.551444	0.255055	-0.043321	-0.580687	-69.326736	93.895238			
09976	9.071099	-1.550749	3.311726	1.495139	0.185738	-0.148984	-1.018275	-69.408856	94.396480			
09977	9.038278	-1.259276	3.326299	1.181021	0.130211	-0.172735	-1.445163	-69.481813	94.890772			
09978	9.271130	-1.018867	3.223104	0.904425	0.280784	0.009912	-1.854345	-69.551776	95.371717			
09979	9.111487	-0.607421	3.182919	0.473428	0.227355	-0.156432	-2.244052	-69.580291	95.854807			
09980	9.227838	-0.414820	3.206839	0.255266	0.225952	-0.040655	-2.647837	-69.613576	96.345719			
09981	9.234589	-0.417579	3.078536	0.225903	0.340819	-0.078102	-3.074150	-69.643800	96.851911			
09982	9.283207	-0.469540	2.994941	0.245603	0.434455	-0.059793	-3.493388	-69.643556	97.355324			
09983	9.041535	-0.592417	2.943757	0.349814	0.407800	-0.300733	-3.930852	-69.609429	97.862028			
09984	8.979253	-0.837085	2.840212	0.565112	0.505465	-0.388272	-4.323984	-69.560272	98.338179			
09985	8.954083	-0.962526	2.722513	0.660586	0.623363	-0.448440	-4.679967	-69.496351	98.775589			
09986	8.915889	-1.104718	2.695993	0.781068	0.655842	-0.488438	-4.987807	-69.417492	99.170546			
09987	8.909936	-1.096320	2.640375	0.750640	0.717606	-0.513118	-5.222783	-69.327320	99.506790			
09988	8.914468	-0.979914	2.556528	0.613867	0.803293	-0.542215	-5.380620	-69.222702	99.769339			
09989	8.831056	-0.868125	2.453613	0.489530	0.878273	-0.661164	-5.451921	-69.108203	99.961250			
09990	8.753231	-0.671213	2.355008	0.284895	0.944721	-0.777094	-5.439187	-68.993658	100.074137			
09991	8.611148	-0.489786	2.282210	0.105486	0.964646	-0.943722	-5.358507	-68.884075	100.124428			
09992	8.482733	-0.394687	2.218227	0.015567	0.987256	-1.091556	-5.217007	-68.784533	100.112980			
09993	8.409534	-0.381661	2.156294	0.006690	1.032323	-1.184259	-5.042136	-68.706016	100.069099			
09994	8.414461	-0.462118	2.145071	0.091836	1.064306	-1.182690	-4.842811	-68.645489	99.989277			
09995	8.230171	-0.575660	2.176878	0.226843	0.989418	-1.340647	-4.623217	-68.601116	99.887784			
09996	8.097510	-0.763136	2.386629	0.448360	0.771816	-1.383494	-4.388210	-68.593643	99.761305			
09997	8.112638	-0.831894	2.609325	0.546334	0.578876	-1.287318	-4.131497	-68.621063	99.602697			
09998	8.133440	-0.681963	2.748694	0.422571	0.439961	-1.221932	-3.842680	-68.664641	99.397913			
09999	8.258277	-0.509202	2.730652	0.258692	0.479753	-1.116839	-3.533333	-68.717363	99.152229			
10000	8.563096	-0.364550	2.926375	0.133214	0.386916	-0.765274	-3.204587	-68.778613	98.864875			
10001	8.795617	-0.322615	3.022130	0.106918	0.368510	-0.514679	-2.893765	-68.858393	98.570392			
10002	9.032379	-0.290517	2.938977	0.075536	0.515723	-0.324056	-2.577017	-68.951067	98.244749			
10003	9.197255	-0.194595	2.814288	-0.018749	0.667001	-0.215693	-2.282316	-69.051758	97.923816			
10004	9.333003	-0.088621	2.605115	-0.129427	0.883969	-0.163790	-2.009094	-69.160269	97.608371			
10005	9.688301	0.008848	2.322889	-0.248987	1.245251	0.068931	-1.766155	-69.277367	97.307417			
10006	9.949312	-0.099826	1.908939	-0.170183	1.716708	0.170635	-1.528777	-69.376370	97.009924			
10007	10.186968	-0.418657	1.440969	0.115105	2.252506	0.234148	-1.276265	-69.463593	96.712027			
10008	10.349491	-0.849381	1.212039	0.537391	2.552687	0.311413	-0.983989	-69.527167	96.406339			
10009	10.428984	-1.486179	1.431964	1.207951	2.427393	0.466979	-0.679126	-69.580680	96.109472			
10010	10.487258	-2.094774	1.449284	1.833589	2.483006	0.528671	-0.342089	-69.630979	95.832903			
10011	10.573836	-2.354700	1.595979	2.121441	2.394395	0.659375	-0.019611	-69.701554	95.619914			
10012	10.880154	-2.630523	1.998956	2.437871	2.140111	1.085474	0.211983	-69.811935	95.519092			
10013	11.285307	-2.304938	2.413068	2.147192	1.845035	1.610061	0.296867	-69.921830	95.596618			
10014	11.793473	-1.664440	2.376150	1.483566	1.972820	2.078883	0.151008	-70.009988	95.916683			
10015	12.486338	-0.430911	2.999689	0.270781	1.479466	2.947807	-0.221119	-70.079326	96.507697			
10016	12.963365	0.638961	4.200802	-0.730229	0.383384	3.804337	-0.873645	-70.118844	97.332905			
10017	13.381937	1.167270	5.358919	-1.217205	-0.631547	4.584390	-1.801145	-70.102964	98.308634			
10018	13.354381	1.578374	5.491946	-1.695139	-0.809188	4.590896	-2.842574	-69.976276	99.368309			
10019	12.718001	2.596701	5.812924	-2.731197	-1.424094	4.072276	-3.927302	-69.809980	100.427941			
10020	11.775208	2.299947	5.990326	-2.457249	-1.854324	3.239202	-5.101969	-69.669789	101.417343			
10021	10.798136	1.279953	5.413683	-1.526865	-1.510729	2.142718	-6.140270	-69.504572	102.226965			
10022	9.529789	0.106650	4.308024	-0.440225	-0.758726	0.609288	-6.878200	-69.328699	102.795565			
10023	8.591685	-0.886458	4.077027	0.554095	-0.744488	-0.306709	-7.418224	-69.265920	103.210084			
10024	8.213890	-2.264032	4.804169	1.985130	-1.406185	-0.338739	-7.835287	-69.270646	103.496349			
10025	7.562215	-3.479840	4.412470	3.197128	-1.129148	-1.022374	-7.876193	-69.133779	103.562531			
10026	6.090550	-3.653848	3.987338	3.460281	-1.194134	-2.536381	-7.541049	-68.940955	103.417414			
10027	5.614172	-3.418615	4.639555	3.340059	-1.964055	-2.761607	-7.135677	-68.874069	103.203839			
10028	6.099397	-2.630380	5.165028	2.587137	-2.351605	-2.159213	-6.777250	-68.819524	103.038662			
10029	6.377889	-1.432529	5.032184	1.381452	-2.248615	-1.996823	-6.527997	-68.683849	102.968537			
10030	6.505554	-0.263361	5.059298	0.223826	-2.344225	-1.910628	-6.431715	-68.519081	103.019600			
10031	7.088395	0.698049	5.113325	-0.771908	-2.282484	-1.382202	-6.502151	-68.368634	103.192996			
10032	7.817940	1.521866	4.880289	-1.682551	-1.889244	-0.820845	-6.705769	-68.222979	103.464788			
10033	8.506333	2.056817	4.738432	-2.305292	-1.559255	-0.257834	-7.016022	-68.063335	103.819216			
10034	9.279172	2.097090	4.333134	-2.481685	-0.893429	0.302637	-7.406494	-67.934878	104.219191			
10035	9.475317	1.803260	4.158570	-2.255726	-0.611474	0.427664	-7.783373	-67.834109	104.601282			
10036	9.613294	1.199627	3.854587	-1.727576	-0.200574	0.467759	-8.137138	-67.822273	104.943376			
10037	9.697712	0.191462	3.711434	-0.770332	0.083738	0.543787	-8.369571	-67.863443	105.194040			
10038	9.220909	-0.725796	3.697797	0.176036	0.031150	0.146915	-8.432296	-67.911687	105.320935			
10039	8.810460	-1.452106	3.559059	0.924948	0.096911	-0.245306	-8.339853	-67.973248	105.321107			
10040	8.656760	-1.720395	3.484613	1.210551	0.141407	-0.402250	-8.089580	-68.019839	105.192738			
10041	8.549961	-1.609132	3.467951	1.128299	0.104900	-0.515714	-7.730213	-68.041398	104.968536			
10042	8.706936	-1.192316	3.489991	0.726587	0.090424	-0.385268	-7.310813	-68.050094	104.686500			
10043	8.949351	-0.618455	3.623839	0.175382	-0.016103	-0.139296	-6.896884	-68.032677	104.397392			
10044	9.152987	0.045862	3.573205	-0.483441	0.023895	0.001217	-6.518393	-67.980447	104.131717			
10045	9.146068	0.857598	3.571285	-1.267385	-0.076685	-0.038848	-6.215784	-67.910775	103.921179			
10046	9.096023	1.209395	3.589816	-1.595556	-0.147420	-0.090574	-6.007819	-67.836702	103.772340			
10047	9.131828	1.326451	3.455470	-1.721774	-0.014201	-0.110868	-5.849244	-67.772138	103.644266			
10048	9.086897	1.182913	3.383361	-1.577407	0.068012	-0.172913	-5.709553	-67.716285	103.510930			
10049	9.033567	0.839863	3.205462	-1.247015	0.270006	-0.275511	-5.556560	-67.690637	103.333346			
10050	8.942196	0.474215	3.134933	-0.875064	0.359993	-0.372338	-5.344488	-67.673130	103.092756			
10051	8.854223	0.091147	3.167374	-0.470036	0.357821	-0.427123	-5.068298	-67.666531	102.774621			
10052	8.801876	-0.203517	3.090034	-0.164596	0.456538	-0.494576	-4.738504	-67.658990	102.406220			
10053	8.747716	-0.347581	3.100284	0.004095	0.452739	-0.536369	-4.396790	-67.651871	102.010725			
10054	8.751378	-0.363884	2.998848	0.028852	0.555804	-0.571350	-4.060484	-67.634282	101.609372			
10055	8.749750	-0.270144	2.848757	-0.061606	0.689328	-0.632954	-3.734012	-67.586327	101.223848			
10056	8.698673	-0.123723	2.708791	-0.202017	0.791709	-0.737881	-3.468915	-67.518129	100.886840			
10057	8.760456	-0.098560	2.572878	-0.233550	0.950304	-0.734287	-3.254506	-67.443753	100.597998			
10058	8.750683	-0.182718	2.342277	-0.164949	1.183364	-0.831233	-3.089738	-67.366685	100.360799			
10059	8.682374	-0.229143	2.240276	-0.118553	1.269537	-0.934108	-3.000769	-67.300254	100.202130			
10060	8.529482	-0.349110	2.077179	-0.004508	1.386305	-1.137046	-2.993919	-67.244055	100.126220			
10061	8.366329	-0.414434	1.877815	0.047541	1.521380	-1.364224	-3.080516	-67.208513	100.140788			
10062	8.224883	-0.374792	1.829369	0.006365	1.509161	-1.514606	-3.257912	-67.193307	100.239033			
10063	8.015474	-0.099359	1.910622	-0.254211	1.319418	-1.682332	-3.513500	-67.189730	100.417743			
10064	7.989030	0.248789	2.142089	-0.587902	1.050533	-1.625761	-3.856817	-67.205145	100.666644			
10065	8.005564	0.633699	2.506665	-0.951629	0.668685	-1.480748	-4.250514	-67.236481	100.975154			
10066	8.333673	0.809962	2.758950	-1.146979	0.531731	-1.088033	-4.698386	-67.275946	101.323184			
10067	8.667158	0.599815	2.706737	-0.994077	0.719728	-0.796061	-5.182844	-67.335875	101.688903			
10068	9.010060	0.532837	2.842052	-0.967057	0.716587	-0.426870	-5.671532	-67.425456	102.047794			
10069	9.260219	0.405551	2.964356	-0.874126	0.690555	-0.145088	-6.139803	-67.552387	102.385218			
10070	9.423991	0.271840	3.056739	-0.768251	0.654231	0.046868	-6.561260	-67.704820	102.675859			
10071	9.597761	0.123122	2.882205	-0.668554	0.866058	0.149349	-6.916833	-67.861396	102.897746			
10072	9.754898	0.012270	2.623593	-0.606901	1.146728	0.205199	-7.192270	-67.999866	103.032549			
10073	10.089160	0.086720	2.346704	-0.739304	1.491079	0.411586	-7.381438	-68.132703	103.068608			
10074	10.594963	0.207286	2.013867	-0.930371	1.948614	0.755622	-7.520937	-68.237117	103.023506			
10075	11.102206	0.419795	1.775881	-1.200000	2.314945	1.132173	-7.624582	-68.315954	102.906943			
10076	11.327143	0.715667	2.337009	-1.464088	1.834468	1.534961	-7.682155	-68.394888	102.745539			
10077	11.667850	1.180512	3.110578	-1.889582	1.175947	2.114366	-7.700783	-68.544421	102.566077			
10078	12.500463	0.671995	2.946953	-1.446569	1.642255	2.860432	-7.635222	-68.747245	102.305373			
10079	13.222086	0.061696	3.165352	-0.850801	1.709319	3.648401	-7.350692	-68.965298	101.881162			
10080	13.538918	-0.969107	4.185925	0.266796	0.911926	4.359826	-6.846820	-69.216115	101.298651			
10081	13.676455	-1.765949	5.123516	1.178312	0.101688	4.850702	-6.121662	-69.458462	100.612568			
10082	13.336284	-2.444397	5.530525	1.983190	-0.376516	4.690511	-5.250867	-69.636118	99.872606			
10083	12.500831	-2.744578	5.852481	2.440766	-0.955502	4.014243	-4.265517	-69.747476	99.104599			
10084	11.581847	-2.550668	5.926664	2.386347	-1.359040	3.157597	-3.339226	-69.818662	98.360829			
10085	10.714455	-2.446542	5.257743	2.340807	-1.036536	2.098438	-2.548917	-69.843271	97.660863			
10086	9.838906	-1.408468	4.954294	1.372563	-1.141987	1.148365	-1.905516	-69.842074	97.039971			
10087	9.057281	0.488160	5.076630	-0.438866	-1.693276	0.433529	-1.438687	-69.846542	96.530761			
10088	8.250603	2.398976	5.151540	-2.284668	-2.205015	-0.310894	-1.134915	-69.822948	96.123454			
10089	7.481301	3.881346	5.146366	-3.729352	-2.579562	-1.040142	-1.033660	-69.778065	95.836549			
10090	6.675220	4.507806	4.956020	-4.350231	-2.710095	-1.864617	-1.099988	-69.757637	95.620859			
10091	6.284062	3.833732	4.913691	-3.687373	-2.730775	-2.244505	-1.223727	-69.790635	95.389945			
10092	6.363328	2.298582	4.848490	-2.182687	-2.516792	-2.184786	-1.266014	-69.841308	95.074869			
10093	6.605004	0.556569	4.815446	-0.467620	-2.281461	-1.957712	-1.196402	-69.863004	94.668435			
10094	7.198907	-1.215171	4.634617	1.268872	-1.801148	-1.450486	-1.014745	-69.859817	94.201827			
10095	8.063109	-2.751965	4.321853	2.770680	-1.131198	-0.740247	-0.722626	-69.847232	93.682096			
10096	8.685927	-3.961093	4.138737	3.970904	-0.687439	-0.219772	-0.333672	-69.790999	93.128718			
10097	9.027431	-4.427940	3.966176	4.443936	-0.385278	0.032853	0.074634	-69.714826	92.585418			
10098	9.058134	-4.127620	3.509229	4.144811	0.039958	-0.105957	0.418480	-69.674057	92.138248			
10099	8.608892	-3.167537	3.345970	3.201428	-0.010774	-0.588125	0.662992	-69.701541	91.816141			
10100	8.531991	-1.820831	3.435290	1.870653	-0.190942	-0.627064	0.775623	-69.788755	91.642559			
10101	8.525978	-0.653444	3.320515	0.702896	-0.152257	-0.667862	0.768346	-69.916267	91.605925			
10102	8.606256	0.282038	3.383594	-0.232577	-0.244387	-0.567038	0.663341	-70.065829	91.685805			
10103	8.665236	0.682968	3.413748	-0.640576	-0.294409	-0.500902	0.455841	-70.230242	91.866208			
10104	8.599666	0.650781	3.349618	-0.622802	-0.281496	-0.586068	0.168965	-70.390334	92.132893			
10105	8.673739	0.198306	3.319495	-0.189319	-0.237257	-0.528297	-0.189409	-70.556849	92.463383			
10106	8.719965	-0.215442	3.349891	0.206402	-0.260072	-0.474825	-0.544798	-70.702247	92.799708			
10107	8.778409	-0.693117	3.233191	0.660327	-0.136152	-0.456418	-0.903902	-70.844563	93.131813			
10108	8.841912	-1.279690	3.213428	1.227570	-0.096324	-0.398502	-1.224851	-70.971586	93.436032			
10109	8.820824	-1.472334	3.205389	1.405062	-0.107098	-0.417821	-1.509221	-71.068324	93.721462			
10110	8.849836	-1.554152	3.111065	1.469923	-0.019816	-0.418401	-1.750594	-71.146122	93.976948			
10111	8.872982	-1.471322	2.908597	1.368401	0.163888	-0.460942	-1.957873	-71.212871	94.211937			
10112	8.767656	-1.158316	2.855147	1.046687	0.157445	-0.579865	-2.145783	-71.275565	94.432690			
10113	8.816389	-1.055382	2.809015	0.931667	0.201945	-0.548546	-2.342681	-71.340562	94.654319			
10114	8.863653	-0.874231	2.592342	0.732817	0.404308	-0.574270	-2.514636	-71.399847	94.856088			
10115	8.893984	-0.819593	2.405658	0.662293	0.578727	-0.604630	-2.683254	-71.457076	95.055427			
10116	8.873273	-0.684625	2.253419	0.514404	0.701915	-0.673526	-2.843031	-71.504722	95.256180			
10117	8.809786	-0.665328	2.085721	0.482676	0.833210	-0.786171	-2.997246	-71.537630	95.454952			
10118	8.815910	-0.625771	1.925471	0.429317	0.981405	-0.830938	-3.127997	-71.551858	95.641086			
10119	8.828392	-0.588214	1.801364	0.379325	1.099729	-0.858464	-3.245872	-71.554182	95.823962			
10120	8.810424	-0.534898	1.686382	0.315530	1.201185	-0.912622	-3.332611	-71.543449	95.985709			
10121	8.795754	-0.700651	1.557146	0.471081	1.329298	-0.964413	-3.375788	-71.529049	96.104294			
10122	8.700858	-0.767549	1.469070	0.535310	1.389168	-1.081371	-3.323129	-71.516999	96.153857			
10123	8.676016	-0.782010	1.405548	0.550211	1.445275	-1.125409	-3.157024	-71.509111	96.107664			
10124	8.547744	-0.848068	1.360508	0.626187	1.455347	-1.261431	-2.862370	-71.492842	95.953855			
10125	8.465818	-0.925664	1.465058	0.724497	1.339965	-1.306637	-2.456245	-71.482296	95.700071			
10126	8.400812	-1.105271	1.789671	0.941001	1.027826	-1.265394	-1.961467	-71.476954	95.356804			
10127	8.262263	-1.311032	2.373668	1.206165	0.447174	-1.212500	-1.380671	-71.496286	94.921674			
10128	8.203008	-1.198369	2.868005	1.153215	-0.044957	-1.116777	-0.722435	-71.521364	94.411785			
10129	8.142738	-0.974587	3.295509	0.990447	-0.482629	-1.043403	-0.025635	-71.544958	93.832064			
10130	8.283631	-0.517336	3.759318	0.595966	-0.908984	-0.766301	0.678074	-71.583680	93.216934			
10131	8.598150	0.025389	3.851251	0.089961	-0.938097	-0.438642	1.329022	-71.630390	92.603482			
10132	8.826760	0.519132	3.409488	-0.403532	-0.486653	-0.357210	1.893023	-71.671021	92.024545			
10133	9.022454	0.947220	2.618164	-0.858945	0.289966	-0.414030	2.348010	-71.719298	91.516286			
10134	9.365797	0.940947	1.671250	-0.896303	1.286405	-0.381973	2.671495	-71.801526	91.099285			
10135	9.762371	0.497858	1.098314	-0.476471	1.968353	-0.186859	2.868800	-71.895646	90.780338			
10136	10.241438	-0.595341	0.691887	0.600151	2.554735	0.128807	2.976107	-71.977650	90.559244			
10137	10.900708	-1.841639	0.523504	1.840170	2.978659	0.686478	2.992355	-72.024958	90.455341			
10138	11.702829	-2.871131	0.692475	2.878248	3.118796	1.486336	2.938495	-72.021453	90.467286			
10139	12.835801	-3.695412	1.195101	3.720421	3.039081	2.707878	2.761508	-72.015236	90.668626			
10140	13.922050	-3.935345	1.987843	3.980633	2.645635	3.986480	2.383943	-71.964295	91.092243			
10141	14.124008	-3.710660	2.211882	3.728857	2.493444	4.259526	1.830157	-71.970145	91.752588			
10142	14.585689	-1.975736	3.376766	2.007437	1.413498	5.087654	1.054981	-72.100394	92.675478			
10143	14.733986	-0.198998	4.814383	0.241391	-0.044237	5.687223	-0.121832	-72.148155	93.890522			
10144	13.586849	1.135660	5.535670	-1.126392	-1.166371	4.812823	-1.548601	-72.027361	95.280602			
10145	12.069843	2.672161	6.046407	-2.700325	-2.204695	3.499977	-3.130022	-71.944039	96.757728			
10146	11.308666	2.784088	6.136189	-2.898287	-2.524542	2.777595	-4.819642	-71.886411	98.211549			
10147	10.213646	2.327622	5.548474	-2.539223	-2.255189	1.544575	-6.329857	-71.680126	99.468777			
10148	8.719553	1.799926	4.842693	-2.058391	-1.983153	-0.088924	-7.521529	-71.441643	100.468996			
10149	8.562463	0.959809	4.950735	-1.276907	-2.065979	-0.176938	-8.616639	-71.353511	101.366770			
10150	8.907391	-1.273221	5.288600	0.876972	-2.152139	0.362325	-9.623761	-71.295766	102.193212			
10151	8.125126	-3.557386	4.888642	3.144522	-1.879876	-0.370797	-10.200918	-71.057816	102.818314			
10152	6.800183	-4.016817	4.665744	3.668242	-2.020690	-1.651371	-10.414581	-70.812371	103.276414			
10153	7.423376	-4.084503	5.291945	3.702078	-2.371199	-0.842386	-10.715610	-70.687897	103.763303			
10154	8.500438	-3.506443	5.243829	3.026230	-1.982584	0.135251	-10.992170	-70.502298	104.243408			
10155	8.623029	-2.045655	4.937856	1.532395	-1.708141	0.069495	-11.200452	-70.224304	104.684017			
10156	9.096362	-0.403730	4.965351	-0.157536	-1.652624	0.424762	-11.399695	-69.977543	105.087759			
10157	9.934216	1.025793	4.731528	-1.683369	-1.227727	1.040288	-11.566061	-69.746790	105.420328			
10158	9.811834	2.184475	4.296422	-2.862654	-0.916770	0.697683	-11.635660	-69.498001	105.633037			
10159	9.423969	2.972510	3.982532	-3.637822	-0.787604	0.169970	-11.660257	-69.304934	105.761863			
10160	8.752768	3.201924	3.759422	-3.819816	-0.804367	-0.552099	-11.629811	-69.166136	105.789587			
10161	7.991533	2.957041	3.654602	-3.510785	-0.931047	-1.282017	-11.582046	-69.089390	105.747045			
10162	7.738272	2.167201	3.516197	-2.707839	-0.812184	-1.509121	-11.497306	-69.066483	105.627392			
10163	7.756719	1.285593	3.481397	-1.830057	-0.694063	-1.439592	-11.332727	-69.076663	105.410422			
10164	7.807376	0.391632	3.437356	-0.938213	-0.559004	-1.343262	-11.088852	-69.108041	105.094977			
10165	7.586239	-0.197964	3.471065	-0.316035	-0.618555	-1.496679	-10.800154	-69.145651	104.713632			
10166	7.416642	-0.730231	3.480841	0.244926	-0.645427	-1.616379	-10.467828	-69.196050	104.277578			
10167	7.515787	-0.912026	3.308083	0.425772	-0.440449	-1.573334	-10.125290	-69.265203	103.807013			
10168	7.638652	-0.789002	3.394104	0.315865	-0.494366	-1.437291	-9.766234	-69.334405	103.314563			
10169	7.826434	-0.618126	3.471903	0.153077	-0.522140	-1.245707	-9.421597	-69.411794	102.836747			
10170	8.084024	-0.347618	3.527539	-0.115396	-0.510930	-1.001250	-9.090359	-69.471642	102.363546			
10171	8.345032	-0.136075	3.581901	-0.325662	-0.489063	-0.749420	-8.759754	-69.502774	101.885758			
10172	8.585105	0.085184	3.627689	-0.544427	-0.460653	-0.519529	-8.434602	-69.495611	101.426212			
10173	8.856732	0.088340	3.446675	-0.557930	-0.190783	-0.326836	-8.151588	-69.474834	101.005569			
10174	8.973404	0.119827	3.312358	-0.587841	-0.018124	-0.264800	-7.897025	-69.446483	100.636246			
10175	9.126850	0.102434	3.185286	-0.573124	0.161843	-0.163789	-7.719675	-69.433398	100.346846			
10176	9.292950	-0.146555	2.931189	-0.334653	0.474092	-0.084610	-7.592981	-69.437916	100.131938			
10177	9.401622	-0.474930	2.783198	-0.011477	0.667519	-0.018989	-7.507840	-69.450249	99.980471			
10178	9.353129	-0.610855	2.622799	0.127570	0.808047	-0.114026	-7.431712	-69.447738	99.867202			
10179	9.179045	-0.736611	2.503776	0.263889	0.868069	-0.313046	-7.368913	-69.428010	99.780975			
10180	9.130371	-0.681016	2.432955	0.212213	0.920041	-0.386384	-7.310824	-69.389625	99.701835			
10181	8.997206	-0.609259	2.397577	0.149494	0.911577	-0.527433	-7.261715	-69.330836	99.626661			
10182	8.892978	-0.499335	2.309678	0.044526	0.962602	-0.661709	-7.228838	-69.263114	99.552454			
10183	8.858337	-0.344598	2.249641	-0.110031	1.010028	-0.723271	-7.240548	-69.193397	99.504134			
10184	8.932608	-0.277196	2.165737	-0.186569	1.122182	-0.687742	-7.302456	-69.123427	99.479654			
10185	9.020288	-0.246906	2.042469	-0.230319	1.277786	-0.652314	-7.421337	-69.047497	99.480228			
10186	9.132486	-0.176435	1.832677	-0.319556	1.522655	-0.627290	-7.581474	-68.958798	99.498545			
10187	9.200926	0.053973	1.873408	-0.561518	1.513362	-0.562606	-7.768787	-68.859468	99.534753			
10188	9.101158	0.315761	1.980747	-0.825268	1.383628	-0.633439	-7.981065	-68.750302	99.587187			
10189	8.979235	0.474742	2.346525	-0.982886	1.009538	-0.627212	-8.208423	-68.647897	99.658447			
10190	8.742577	0.471219	2.661113	-0.974458	0.646798	-0.736991	-8.446459	-68.554029	99.754132			
10191	8.597067	0.257243	2.589083	-0.767751	0.681281	-0.889377	-8.710619	-68.476262	99.868436			
10192	8.498595	-0.009922	2.587723	-0.509747	0.663685	-0.968356	-8.972250	-68.428834	99.981123			
10193	8.503550	-0.249533	2.724319	-0.283115	0.546681	-0.901149	-9.198417	-68.433388	100.068453			
10194	8.553278	-0.452249	2.780970	-0.093401	0.512513	-0.822387	-9.370463	-68.469875	100.120507			
10195	8.609618	-0.598909	2.820880	0.043180	0.490864	-0.746334	-9.490311	-68.521733	100.123933			
10196	8.771576	-0.598235	2.613531	0.029544	0.733538	-0.669929	-9.560666	-68.573182	100.071660			
10197	9.101209	-0.626873	2.342944	0.037729	1.096616	-0.457990	-9.615980	-68.618412	99.973279			
10198	9.425180	-0.514898	2.177024	-0.091854	1.358833	-0.221874	-9.656855	-68.654736	99.850065			
10199	9.880555	-0.195533	2.033365	-0.435248	1.645828	0.132160	-9.711494	-68.688733	99.722950			
10200	10.418291	-0.053791	1.787057	-0.604256	2.061385	0.537328	-9.797022	-68.727831	99.609304			
10201	10.735921	0.407144	2.048705	-1.085022	1.918420	0.900171	-9.890710	-68.799928	99.515211			
10202	11.126581	1.035880	2.679943	-1.744752	1.445903	1.453238	-9.984904	-68.958194	99.456471			
10203	11.613506	1.081356	2.927675	-1.818755	1.351346	1.997477	-10.030251	-69.189514	99.352323			
10204	12.137652	0.774580	3.512038	-1.540529	0.935887	2.717576	-9.904202	-69.495056	99.099881			
10205	12.864701	0.105310	4.206934	-0.895881	0.461967	3.685207	-9.535151	-69.872787	98.634177			
10206	13.275194	-0.526097	4.805121	-0.241940	-0.046679	4.312998	-8.800525	-70.250975	97.922346			
10207	13.587347	-1.572634	5.773810	0.855507	-0.946487	4.979094	-7.738325	-70.635370	96.957907			
10208	14.031580	-3.341636	6.558230	2.710736	-1.625645	5.713720	-6.311059	-70.940327	95.731211			
10209	12.968100	-3.775702	6.774864	3.316208	-2.209919	4.762756	-4.692422	-71.029545	94.361871			
10210	10.595151	-3.096765	5.511411	2.830091	-1.776725	2.064002	-3.222856	-71.012979	93.048846			
10211	8.889598	-1.218912	5.038718	1.069111	-1.869878	0.250092	-2.029799	-70.946552	91.920669			
10212	7.434335	0.428189	4.856564	-0.509481	-2.154981	-1.202506	-1.204231	-70.824146	91.025762			
10213	6.589506	1.806192	4.897772	-1.855874	-2.451037	-1.988355	-0.626834	-70.760459	90.293972			
10214	6.531764	3.128818	4.924794	-3.164176	-2.473591	-2.029607	-0.171803	-70.739380	89.641584			
10215	6.405048	4.258728	4.881697	-4.287119	-2.444881	-2.155307	0.134807	-70.697450	89.102568			
10216	6.480081	3.845097	4.735912	-3.874593	-2.264569	-2.127358	0.214811	-70.694605	88.695268			
10217	7.361344	2.081495	4.653194	-2.112593	-1.915251	-1.324874	0.254127	-70.741282	88.332335			
10218	8.767070	0.250224	4.809989	-0.277003	-1.649020	0.049569	0.377598	-70.820254	87.954209			
10219	10.005581	-1.728029	4.821129	1.718100	-1.326280	1.215916	0.575851	-70.881850	87.592351			
10220	11.259748	-3.555894	4.538426	3.582241	-0.726205	2.297793	0.821451	-70.934501	87.255268			
10221	11.553625	-4.969664	3.855697	5.036401	-0.048910	2.339779	1.058399	-70.959776	86.971776			
10222	10.717780	-5.369428	3.330242	5.451637	0.155699	1.369776	1.232975	-70.959217	86.816505			
10223	9.265092	-4.642048	2.978972	4.715015	0.041754	-0.115692	1.245770	-70.972464	86.872027			
10224	8.617680	-3.054792	2.760187	3.119051	0.087242	-0.786133	1.074069	-71.095142	87.153894			
10225	8.457251	-1.244017	2.898450	1.288472	-0.059157	-0.879047	0.734746	-71.316932	87.618557			
10226	8.239329	0.078094	3.263032	-0.066655	-0.470145	-0.963147	0.253784	-71.575578	88.238780			
10227	8.194878	1.223595	3.408751	-1.242782	-0.633244	-0.962430	-0.388108	-71.834760	89.022529			
10228	7.929187	1.455286	3.321340	-1.505974	-0.666740	-1.250652	-1.155693	-72.049777	89.886633			
10229	7.705165	1.287939	3.419508	-1.375076	-0.862621	-1.440932	-1.953980	-72.195380	90.770717			
10230	7.757240	0.756878	3.228253	-0.873360	-0.695648	-1.450723	-2.719189	-72.299336	91.604854			
10231	8.037470	0.140882	3.336205	-0.293303	-0.739352	-1.145607	-3.404255	-72.377278	92.354109			
10232	8.421415	-0.576191	3.304181	0.391494	-0.615775	-0.777350	-3.986655	-72.440795	93.003233			
10233	8.774514	-1.169184	3.117010	0.957758	-0.347531	-0.483340	-4.474183	-72.479669	93.572745			
10234	8.790849	-1.628886	3.005201	1.398842	-0.244474	-0.488151	-4.849377	-72.490823	94.053891			
10235	8.692253	-1.786663	2.902582	1.544641	-0.177702	-0.606445	-5.146813	-72.505727	94.473951			
10236	8.579085	-1.663070	2.834375	1.412576	-0.146332	-0.736158	-5.390363	-72.533573	94.851344			
10237	8.595538	-1.436342	2.693655	1.177078	-0.009084	-0.767438	-5.608174	-72.575086	95.210015			
10238	8.553229	-1.044414	2.617963	0.778010	0.047086	-0.840802	-5.811151	-72.612291	95.557389			
10239	8.770516	-0.697546	2.406869	0.417151	0.307131	-0.705922	-6.027076	-72.659717	95.917491			
10240	8.908408	-0.448503	2.290241	0.154510	0.451578	-0.616042	-6.232686	-72.699110	96.273869			
10241	9.226038	-0.206934	2.183919	-0.107787	0.636622	-0.351441	-6.454888	-72.757644	96.641608			
10242	9.339410	-0.193249	2.026783	-0.137023	0.809341	-0.289246	-6.693174	-72.810166	97.010962			
10243	9.374181	-0.167908	1.995765	-0.176604	0.838844	-0.265349	-6.942723	-72.856605	97.389501			
10244	9.327030	-0.215590	1.655880	-0.140855	1.140708	-0.407326	-7.179977	-72.909497	97.744532			
10245	9.175797	-0.262206	1.516524	-0.100937	1.219712	-0.589567	-7.394878	-72.970937	98.071926			
10246	9.064748	-0.302760	1.223252	-0.067579	1.454901	-0.777405	-7.575980	-73.068708	98.357868			
10247	8.924804	-0.434840	0.994327	0.060817	1.617553	-0.969063	-7.719772	-73.199557	98.606777			
10248	8.770039	-0.638626	0.775994	0.264582	1.764192	-1.167390	-7.787639	-73.364616	98.783869			
10249	8.586572	-0.848285	0.686088	0.480380	1.777927	-1.355284	-7.767963	-73.551416	98.883623			
10250	8.422259	-1.035123	0.628735	0.677123	1.765155	-1.516489	-7.639545	-73.756287	98.886166			
10251	8.358508	-1.290809	0.702206	0.944512	1.656956	-1.543089	-7.391676	-73.970970	98.794083			
10252	8.380802	-1.448776	0.766268	1.114678	1.581725	-1.495264	-7.029063	-74.164102	98.618078			
10253	8.651303	-1.615795	0.879168	1.288285	1.530687	-1.197234	-6.577313	-74.340920	98.376008			
10254	8.867901	-1.728219	0.926348	1.411266	1.532257	-0.972721	-6.038862	-74.467989	98.085855			
10255	9.063026	-1.853780	1.003989	1.550919	1.507119	-0.762486	-5.446700	-74.557021	97.779135			
10256	9.215594	-1.951431	1.174160	1.668953	1.388856	-0.571499	-4.833480	-74.597243	97.476738			
10257	9.222594	-2.048769	1.480073	1.798587	1.110554	-0.486594	-4.220041	-74.589622	97.193763			
10258	9.133256	-1.919527	1.615385	1.698807	0.966558	-0.544992	-3.618591	-74.548839	96.939247			
10259	9.219896	-1.667135	1.659606	1.465001	0.951738	-0.459184	-3.057572	-74.488672	96.719070			
10260	9.568224	-1.326999	1.691601	1.134354	1.010642	-0.124286	-2.526085	-74.433384	96.510968			
10261	9.707158	-0.932741	1.507668	0.740549	1.214137	-0.047986	-2.057366	-74.365875	96.343419			
10262	10.039931	-0.422635	1.292487	0.219115	1.487591	0.206713	-1.667080	-74.295408	96.222031			
10263	10.235646	-0.121261	1.104881	-0.093905	1.711840	0.339390	-1.404791	-74.207194	96.188652			
10264	10.282854	0.230242	1.540736	-0.408412	1.291864	0.498871	-1.276292	-74.130740	96.251062			
10265	10.434272	0.058771	2.971896	-0.126987	-0.010358	1.035972	-1.373882	-74.055536	96.396693			
10266	10.713294	0.005631	3.873617	-0.018458	-0.781933	1.552515	-1.641890	-74.001460	96.668015			
10267	12.098696	0.700525	3.938885	-0.773342	-0.525447	2.895962	-2.170185	-74.011821	97.159700			
10268	13.428101	1.526084	3.919333	-1.690037	-0.213444	4.155200	-3.070463	-73.934648	97.990273			
10269	13.736813	2.297128	4.852888	-2.474666	-1.086513	4.686350	-4.422347	-73.909528	99.179963			
10270	13.213355	2.215914	5.662744	-2.415540	-2.011024	4.389053	-6.086617	-73.954001	100.577247			
10271	12.483321	1.940545	6.992159	-2.139715	-3.486334	4.034861	-7.997452	-74.018476	102.074737			
10272	12.376510	1.743734	6.636446	-2.106685	-3.168112	3.817574	-9.943143	-73.922098	103.555664			
10273	11.355506	1.432396	5.291495	-1.941690	-2.109511	2.466465	-11.693762	-73.705928	104.870000			
10274	10.333886	0.135142	4.781004	-0.714305	-1.794940	1.409278	-13.304298	-73.572368	106.017017			
10275	10.238881	-1.404237	4.490276	0.724212	-1.452600	1.337833	-14.562202	-73.462784	106.983699			
10276	9.708798	-2.740806	4.660983	2.037110	-1.686783	0.980931	-15.452480	-73.307531	107.756967			
10277	9.019419	-4.909039	4.624515	4.208196	-1.711543	0.492468	-16.028079	-73.118986	108.350540			
10278	7.776896	-5.879877	4.509461	5.259985	-1.853903	-0.632076	-16.217107	-72.892806	108.758561			
10279	7.187049	-5.369347	4.495928	4.799372	-1.981902	-1.225792	-16.278283	-72.684000	109.090568			
10280	7.401550	-3.889699	4.723180	3.311652	-2.178239	-1.065737	-16.291391	-72.435218	109.368084			
10281	7.881578	-1.749809	4.845172	1.136278	-2.247527	-0.739979	-16.262821	-72.114751	109.588101			
10282	9.299562	0.490726	4.886768	-1.241622	-1.985349	0.440104	-16.229613	-71.807988	109.796887			
10283	11.089435	2.726191	4.704348	-3.670707	-1.409930	1.895277	-16.205501	-71.516987	110.004058			
10284	12.478822	4.495878	4.204472	-5.617440	-0.624287	2.902108	-16.184583	-71.262553	110.192260			
10285	12.499294	5.208136	3.797002	-6.363110	-0.259365	2.725962	-16.164649	-71.046912	110.308157			
10286	10.394562	4.685545	3.357111	-5.641221	-0.406262	0.641160	-16.034863	-70.835101	110.238438			
10287	8.951498	3.420918	3.118176	-4.236358	-0.487857	-0.681956	-15.823617	-70.735881	110.052652			
10288	8.630352	1.764906	3.043192	-2.551623	-0.361696	-0.856278	-15.567377	-70.772368	109.794708			
10289	8.086363	0.022123	3.368013	-0.726136	-0.687360	-1.110188	-15.205285	-70.850644	109.450565			
10290	8.142980	-0.956955	3.282136	0.257819	-0.507030	-0.999475	-14.751993	-70.928613	109.025467			
10291	7.883815	-1.609062	3.103980	0.949041	-0.362522	-1.248451	-14.210152	-70.981138	108.514314			
10292	7.837996	-1.751408	3.051893	1.120849	-0.315741	-1.300368	-13.641733	-71.062802	107.976631			
10293	8.069997	-1.658916	2.972172	1.031097	-0.179566	-1.116989	-13.070503	-71.141047	107.442486			
10294	8.141404	-1.296916	3.026526	0.697137	-0.240681	-1.061670	-12.510025	-71.177898	106.919724			
10295	7.960529	-0.715350	3.039360	0.162501	-0.353274	-1.270545	-11.991604	-71.155684	106.428305			
10296	8.166227	-0.314765	2.900263	-0.241772	-0.181745	-1.146296	-11.534764	-71.113754	105.979090			
10297	8.230034	0.143036	2.900540	-0.684599	-0.186753	-1.114214	-11.112125	-71.023018	105.578934			
10298	8.372045	0.519273	2.832377	-1.060818	-0.091543	-1.023525	-10.762342	-70.921434	105.242320			
10299	8.374968	0.519486	2.742731	-1.056164	0.014558	-1.048169	-10.478966	-70.805054	104.954086			
10300	8.436461	0.395579	2.584729	-0.940366	0.214250	-1.033111	-10.260126	-70.699572	104.722040			
10301	8.376300	0.121386	2.530637	-0.660163	0.287923	-1.091304	-10.077349	-70.602466	104.522497			
10302	8.489561	-0.079465	2.516023	-0.465922	0.371854	-0.977872	-9.928446	-70.514110	104.337832			
10303	8.400613	-0.233093	2.365214	-0.311194	0.514620	-1.103085	-9.780070	-70.414086	104.155691			
10304	8.420792	-0.291175	2.479318	-0.244481	0.435138	-1.043856	-9.658393	-70.318244	103.986883			
10305	8.510573	-0.377484	2.315328	-0.173199	0.641236	-1.009739	-9.553310	-70.232985	103.826009			
10306	8.512587	-0.268491	2.261489	-0.282270	0.697178	-1.032892	-9.458946	-70.153660	103.671857			
10307	8.551167	-0.264701	2.176734	-0.291360	0.799957	-1.026000	-9.385715	-70.107779	103.529471			
10308	8.638729	-0.315878	2.076371	-0.250318	0.932985	-0.974949	-9.347688	-70.094122	103.413964			
10309	8.626334	-0.261536	1.870328	-0.312551	1.118400	-1.058737	-9.340981	-70.114049	103.324214			
10310	8.644610	-0.224818	1.652833	-0.360782	1.320632	-1.115709	-9.404870	-70.170859	103.284486			
10311	8.527223	-0.167343	1.491251	-0.417216	1.419456	-1.281777	-9.516812	-70.246085	103.280343			
10312	8.528433	-0.119969	1.340595	-0.473528	1.545296	-1.331321	-9.697118	-70.338354	103.323462			
10313	8.594909	0.034583	1.304181	-0.638094	1.574717	-1.286984	-9.951618	-70.441512	103.429005			
10314	8.525495	0.150348	1.291753	-0.755212	1.540892	-1.361026	-10.264262	-70.522631	103.576217			
10315	8.486554	0.307166	1.402388	-0.913839	1.400770	-1.369622	-10.648858	-70.588249	103.796718			
10316	8.574641	0.397722	1.699903	-1.013603	1.131843	-1.195040	-11.105932	-70.634672	104.074973			
10317	8.754204	0.356172	2.187780	-0.987905	0.723996	-0.865668	-11.593991	-70.642510	104.386014			
10318	9.085249	0.275147	2.543987	-0.945877	0.495959	-0.434595	-12.085960	-70.618000	104.695207			
10319	9.465574	0.377876	2.661533	-1.102032	0.503140	-0.047650	-12.533639	-70.567560	104.976768			
10320	9.724541	0.374527	2.603753	-1.147189	0.646426	0.174932	-12.940379	-70.512305	105.224923			
10321	9.989544	0.343509	2.559821	-1.161787	0.779711	0.410030	-13.257912	-70.474061	105.408851			
10322	10.209426	0.264398	2.711152	-1.114741	0.713953	0.670644	-13.484719	-70.458976	105.523480			
10323	10.490903	-0.073654	2.632699	-0.815045	0.894362	0.935866	-13.634831	-70.466151	105.574287			
10324	10.701396	-0.422074	2.545819	-0.493012	1.058100	1.133389	-13.693699	-70.479152	105.552736			
10325	10.849588	-0.392449	2.501581	-0.535382	1.144428	1.256600	-13.655457	-70.489765	105.465558			
10326	10.912987	-0.286753	2.269152	-0.644710	1.379922	1.232888	-13.571532	-70.497207	105.330385			
10327	10.883494	0.404563	1.961584	-1.327212	1.630620	1.052003	-13.447016	-70.521025	105.177761			
10328	10.988675	1.042956	2.622844	-1.949960	1.005699	1.318541	-13.288118	-70.594757	105.004452			
10329	10.981581	1.135471	3.248723	-2.013635	0.391245	1.511214	-13.038393	-70.723654	104.802862			
10330	11.179231	1.057493	3.331832	-1.925097	0.348671	1.735768	-12.745283	-70.947126	104.542662			
10331	11.902961	0.153858	2.720988	-1.058709	1.151579	2.297663	-12.332221	-71.219047	104.112643			
10332	12.128105	-0.922959	2.475691	0.042151	1.458914	2.513758	-11.659923	-71.436775	103.440889			
10333	11.125399	-0.706482	4.034259	-0.006268	-0.376634	2.036636	-10.761014	-71.683364	102.682320			
10334	10.414273	-0.309663	5.372662	-0.252770	-1.922662	1.748342	-9.858229	-71.948011	101.927256			
10335	10.565942	-0.598676	5.766634	0.105648	-2.270858	2.022987	-8.945986	-72.121629	101.175244			
10336	10.342493	-0.946382	6.115555	0.542154	-2.662922	1.929433	-8.022446	-72.150665	100.402093			
10337	10.736782	-1.879357	6.256602	1.514911	-2.631560	2.383018	-7.202386	-72.205450	99.623934			
10338	11.729266	-2.615167	5.929237	2.244939	-1.988092	3.247866	-6.337183	-72.259080	98.769447			
10339	11.382361	-1.644493	5.728621	1.345712	-1.940361	2.816774	-5.361145	-72.210306	97.777100			
10340	9.994615	-0.215013	5.658030	0.030152	-2.336601	1.434132	-4.361274	-72.106123	96.714740			
10341	8.730486	1.030231	5.283961	-1.135364	-2.393663	0.096103	-3.433810	-71.986207	95.655142			
10342	7.913675	1.771341	5.031001	-1.822543	-2.409238	-0.760140	-2.539182	-71.905160	94.606940			
10343	7.592976	1.784956	4.965649	-1.797870	-2.426606	-1.073342	-1.702773	-71.847285	93.615451			
10344	7.822135	1.366917	4.761097	-1.361866	-2.130399	-0.906008	-0.999961	-71.793792	92.776020			
10345	8.454952	0.101194	4.283602	-0.097132	-1.428146	-0.442702	-0.549300	-71.753915	92.183394			
10346	8.727412	-1.039036	4.132151	1.051147	-1.158469	-0.227542	-0.257448	-71.702724	91.804922			
10347	8.990484	-1.938680	3.925209	1.951813	-0.849251	-0.042133	-0.131213	-71.664604	91.614842			
10348	9.036549	-2.778920	3.482880	2.783267	-0.387860	-0.137200	-0.124371	-71.618578	91.575877			
10349	8.849967	-2.998611	3.301059	2.997234	-0.262485	-0.370322	-0.230755	-71.580857	91.677286			
10350	8.681995	-2.777309	3.049933	2.763353	-0.080542	-0.606713	-0.446194	-71.596886	91.916059			
10351	8.819401	-2.102388	3.004239	2.072731	-0.017418	-0.489020	-0.765537	-71.669243	92.267532			
10352	8.794714	-1.243613	3.031636	1.198672	-0.087262	-0.504631	-1.121432	-71.769988	92.688896			
10353	8.683835	-0.531429	3.046672	0.472107	-0.173889	-0.608316	-1.467145	-71.891327	93.114598			
10354	8.716601	-0.186820	2.899805	0.107258	-0.057648	-0.625305	-1.824149	-72.053056	93.541912			
10355	8.459120	-0.150018	3.058498	0.065189	-0.314027	-0.822097	-2.129858	-72.197023	93.912870			
10356	8.416787	-0.197749	2.904844	0.098323	-0.201377	-0.909359	-2.369494	-72.329082	94.211693			
10357	8.262789	-0.458229	2.820274	0.351287	-0.175459	-1.078650	-2.547046	-72.410722	94.452142			
10358	8.277860	-0.629857	2.868935	0.517730	-0.222153	-1.047240	-2.687619	-72.473828	94.675507			
10359	8.190103	-1.024857	2.878375	0.909644	-0.249366	-1.122260	-2.816935	-72.504852	94.904461			
10360	8.180196	-1.327246	2.792163	1.204268	-0.160129	-1.152580	-2.938895	-72.519676	95.153075			
10361	8.298197	-1.472443	2.760898	1.340005	-0.087200	-1.046417	-3.054941	-72.517207	95.427786			
10362	8.341663	-1.780293	2.598818	1.634691	0.098366	-1.047715	-3.180778	-72.511919	95.726440			
10363	8.487451	-1.774781	2.625812	1.620068	0.121633	-0.899655	-3.286594	-72.507950	96.037171			
10364	8.498185	-1.567235	2.656596	1.408157	0.091759	-0.882875	-3.400815	-72.491713	96.369859			
10365	8.705772	-1.248651	2.523983	1.070929	0.268237	-0.729668	-3.505847	-72.494113	96.709594			
10366	9.090595	-0.810683	2.617808	0.619059	0.269302	-0.342033	-3.610831	-72.513601	97.052386			
10367	9.314383	-0.409734	2.600301	0.203670	0.326446	-0.141124	-3.708140	-72.519882	97.392863			
10368	9.390907	-0.094430	2.646783	-0.116928	0.283681	-0.060284	-3.789682	-72.510372	97.717691			
10369	9.275165	0.170551	2.575426	-0.387013	0.300233	-0.197560	-3.876269	-72.474853	98.049173			
10370	9.142890	0.251078	2.504960	-0.473317	0.326557	-0.346979	-3.975847	-72.422077	98.380113			
10371	9.068481	0.130917	2.367271	-0.367650	0.452275	-0.457543	-4.065642	-72.353946	98.693180			
10372	8.997518	0.003641	2.178811	-0.258968	0.631171	-0.580293	-4.121754	-72.270870	98.970775			
10373	8.913611	-0.130476	2.137502	-0.131170	0.670477	-0.670935	-4.135747	-72.169776	99.204600			
10374	8.907285	-0.302698	2.100513	0.032766	0.736473	-0.685804	-4.098382	-72.053937	99.386131			
10375	8.997978	-0.447794	1.993936	0.160469	0.898911	-0.630853	-4.008037	-71.927096	99.512899			
10376	9.133787	-0.564170	1.846838	0.254916	1.114663	-0.547287	-3.858244	-71.782646	99.590509			
10377	9.171524	-0.673406	1.793999	0.357580	1.213919	-0.528979	-3.629388	-71.631323	99.604949			
10378	9.163957	-0.615589	1.768029	0.301733	1.257013	-0.549221	-3.351913	-71.487124	99.580938			
10379	9.188700	-0.562966	1.821857	0.259433	1.233650	-0.513276	-3.047860	-71.356703	99.522014			
10380	9.064115	-0.457335	1.884889	0.175706	1.147116	-0.616310	-2.716240	-71.226932	99.432038			
10381	8.925965	-0.512377	1.917210	0.250631	1.103313	-0.739050	-2.366676	-71.099235	99.318310			
10382	8.780863	-0.537133	1.931917	0.295097	1.069607	-0.874390	-2.003573	-70.976416	99.191766			
10383	8.625109	-0.542456	2.052013	0.333602	0.929549	-0.985336	-1.650588	-70.863636	99.072911			
10384	8.653986	-0.593331	2.119304	0.402612	0.902698	-0.938119	-1.287499	-70.767659	98.945856			
10385	8.603425	-0.585022	2.109905	0.407921	0.912301	-0.991455	-0.936587	-70.680035	98.848454			
10386	8.615770	-0.617013	2.245103	0.468354	0.809052	-0.936948	-0.612853	-70.634226	98.780138			
10387	8.800278	-0.681267	2.187803	0.526230	0.941728	-0.783196	-0.320301	-70.614392	98.747558			
10388	8.941544	-0.661628	2.184715	0.508926	0.994926	-0.652281	-0.066854	-70.603942	98.762684			
10389	9.067560	-0.729334	2.117029	0.566944	1.114200	-0.556797	0.137398	-70.610894	98.842657			
10390	9.330746	-0.665632	1.943257	0.469298	1.353748	-0.366564	0.305007	-70.639786	98.978141			
10391	9.624189	-0.478150	1.628884	0.221730	1.709887	-0.193226	0.430520	-70.677399	99.176732			
10392	9.689715	-0.206388	1.311855	-0.103186	1.976413	-0.234730	0.529727	-70.711623	99.421889			
10393	9.773854	0.006341	0.903719	-0.391644	2.339081	-0.287969	0.595712	-70.758246	99.715859			
10394	9.945859	0.019271	0.456106	-0.501826	2.797786	-0.270725	0.628071	-70.812959	100.046950			
10395	10.161542	-0.252823	0.149344	-0.317607	3.192401	-0.166401	0.623482	-70.850176	100.416891			
10396	10.384657	-0.979026	0.598847	0.442591	2.984181	0.190159	0.558342	-70.840120	100.835695			
10397	10.637635	-1.358305	1.061103	0.860140	2.723699	0.578257	0.442300	-70.759126	101.326796			
10398	11.012701	-1.185480	1.943792	0.807809	2.010058	1.222270	0.201053	-70.701294	101.940821			
10399	11.955442	-0.963168	2.793539	0.659383	1.489807	2.394266	-0.228508	-70.700974	102.750347			
10400	12.935694	0.426274	3.916056	-0.584803	0.465459	3.688813	-0.838651	-70.665951	103.770167			
10401	13.394683	1.505123	5.066751	-1.494180	-0.690354	4.492740	-1.742860	-70.541579	104.969208			
10402	12.621805	1.638126	6.836730	-1.259306	-2.588657	4.345232	-2.819711	-70.376614	106.214328			
10403	11.858645	1.956565	8.436952	-1.241245	-4.373491	4.150442	-4.008872	-70.255469	107.475483			
10404	11.598307	2.340555	9.021141	-1.564583	-5.076885	4.085375	-5.286960	-70.038374	108.703613			
10405	11.061988	2.860612	8.911648	-2.151227	-5.251606	3.519970	-6.599462	-69.754582	109.946902			
10406	11.160268	3.374789	8.835297	-2.808906	-5.252452	3.548575	-8.140394	-69.512404	111.334026			
10407	10.530915	2.480830	7.526667	-2.277856	-4.036487	2.525124	-9.887628	-69.218023	112.881452			
10408	8.177442	0.373228	6.025725	-0.343720	-2.927240	-0.084830	-11.616583	-68.910203	114.496998			
10409	6.386861	-1.947914	5.151798	1.903136	-2.167690	-1.887663	-13.207398	-68.704208	116.065361			
10410	5.833088	-4.210328	4.828843	4.046703	-1.522998	-2.304443	-14.589574	-68.564540	117.462493			
10411	6.545589	-5.681691	4.967376	5.315959	-1.069887	-1.422410	-15.644830	-68.447050	118.591765			
10412	8.292306	-5.360886	4.846918	4.627007	-0.468260	0.155532	-16.298761	-68.356741	119.378695			
10413	9.907047	-3.641524	5.086956	2.691660	-0.582227	1.576051	-16.586205	-68.322152	119.809157			
10414	11.400946	-1.796523	5.069390	0.630017	-0.539375	2.765863	-16.522970	-68.335955	119.886614			
10415	11.175062	0.574638	4.963020	-1.616417	-1.094653	2.271709	-16.135883	-68.304708	119.655474			
10416	10.423186	2.442951	4.706290	-3.300907	-1.556086	1.297780	-15.688240	-68.311318	119.289338			
10417	9.489926	3.507236	4.233188	-4.223631	-1.682101	0.167827	-15.243577	-68.349592	118.841906			
10418	8.456620	3.877996	3.914086	-4.436811	-1.807934	-0.929030	-14.846408	-68.421837	118.360041			
10419	8.197756	3.571810	3.547163	-4.150460	-1.473938	-1.260228	-14.557275	-68.542877	117.929107			
10420	7.818375	2.269840	3.206345	-2.880871	-0.965363	-1.607296	-14.388763	-68.698499	117.581475			
10421	7.683644	0.892341	3.138244	-1.527342	-0.623354	-1.629665	-14.334371	-68.891895	117.337977			
10422	7.615276	-0.743142	2.896173	0.030454	-0.053266	-1.631693	-14.352598	-69.093902	117.143673			
10423	7.574913	-1.701866	2.947272	0.987552	0.084457	-1.567714	-14.364935	-69.306929	116.942070			
10424	7.734601	-2.181435	2.917590	1.435107	0.244705	-1.387988	-14.312556	-69.477865	116.698202			
10425	7.544200	-2.166545	3.286347	1.532915	-0.178128	-1.444452	-14.166990	-69.570682	116.381026			
10426	7.352153	-1.703479	3.398969	1.145225	-0.455525	-1.627949	-13.967862	-69.612375	116.017386			
10427	7.578659	-1.550237	3.220004	0.939274	-0.255364	-1.490412	-13.736884	-69.620685	115.599579			
10428	7.754761	-1.047987	3.292771	0.447821	-0.372537	-1.342883	-13.447519	-69.591693	115.134232			
10429	8.076937	-0.518648	3.094751	-0.139702	-0.193452	-1.150907	-13.195898	-69.573438	114.701607			
10430	7.956160	0.065637	3.237805	-0.658644	-0.479838	-1.261424	-13.035201	-69.556547	114.354552			
10431	8.243382	0.137290	3.184568	-0.776519	-0.349767	-1.015622	-13.028250	-69.570918	114.145299			
10432	8.560286	-0.026689	3.085448	-0.679709	-0.124537	-0.739558	-13.105506	-69.597365	114.023106			
10433	8.975461	-0.472523	2.911322	-0.334931	0.252041	-0.374348	-13.252371	-69.654966	113.967717			
10434	9.300175	-0.968923	2.767996	0.079543	0.575017	-0.078373	-13.364965	-69.718330	113.893424			
10435	9.281414	-1.251144	2.743302	0.354904	0.636228	-0.081040	-13.425580	-69.761970	113.783991			
10436	9.412445	-1.394930	2.702051	0.474085	0.734923	0.040036	-13.429419	-69.807036	113.633334			
10437	9.653777	-1.477093	2.726691	0.531107	0.797385	0.281576	-13.366100	-69.837077	113.427334			
10438	9.722564	-1.442265	2.781495	0.505002	0.760711	0.361367	-13.209324	-69.836048	113.145496			
10439	9.632003	-1.482337	2.822026	0.574132	0.706801	0.292135	-12.986884	-69.814500	112.798532			
10440	9.595764	-1.359749	2.813097	0.470944	0.690553	0.244272	-12.718776	-69.775331	112.403622			
10441	9.644850	-1.153887	2.753201	0.267599	0.738026	0.253016	-12.446743	-69.715700	111.992610			
10442	9.688111	-1.040120	2.650239	0.148258	0.844845	0.248591	-12.182472	-69.629467	111.575888			
10443	9.601823	-0.873801	2.572245	-0.004308	0.882093	0.126971	-11.932574	-69.514110	111.163761			
10444	9.470668	-0.759559	2.559681	-0.093111	0.855884	-0.010587	-11.711216	-69.388844	110.768329			
10445	9.409664	-0.675813	2.449010	-0.175828	0.949198	-0.114017	-11.522215	-69.262772	110.389444			
10446	9.283181	-0.606143	2.366769	-0.233423	0.995918	-0.268052	-11.360661	-69.141201	110.013550			
10447	9.201423	-0.443430	2.324840	-0.383443	1.003334	-0.372669	-11.231051	-69.030116	109.646082			
10448	8.973181	-0.263247	2.183941	-0.545988	1.050841	-0.650021	-11.119116	-68.909349	109.266725			
10449	8.666810	0.039670	1.965863	-0.830139	1.125772	-1.036399	-11.039851	-68.785718	108.892515			
10450	8.493025	0.371159	1.691001	-1.164239	1.294158	-1.321611	-11.002975	-68.688151	108.539703			
10451	8.384176	0.698541	1.457695	-1.496140	1.445888	-1.531493	-11.016239	-68.612562	108.218532			
10452	8.431809	0.908714	1.255690	-1.725728	1.640138	-1.576808	-11.041139	-68.537566	107.915383			
10453	8.369328	0.921340	1.265719	-1.725787	1.626742	-1.635163	-11.075034	-68.463560	107.629940			
10454	8.402797	0.668648	1.486863	-1.455241	1.481815	-1.508993	-11.114577	-68.410459	107.381738			
10455	8.618723	0.337379	1.726833	-1.127141	1.386103	-1.199533	-11.162304	-68.384633	107.183074			
10456	8.855023	-0.174804	1.992728	-0.621259	1.289091	-0.848021	-11.206972	-68.362686	107.008257			
10457	9.003577	-0.753932	2.197792	-0.045045	1.221341	-0.594803	-11.222818	-68.338571	106.822511			
10458	9.148127	-1.229178	2.226052	0.415890	1.300683	-0.416429	-11.224879	-68.328787	106.626567			
10459	9.279780	-1.523658	2.253549	0.701442	1.351281	-0.263010	-11.198528	-68.341609	106.399855			
10460	9.468809	-1.545666	2.133273	0.704293	1.527026	-0.129174	-11.125322	-68.373807	106.119048			
10461	9.628789	-1.398530	2.105851	0.553241	1.587542	-0.000568	-11.014098	-68.415682	105.793749			
10462	9.770929	-0.949955	2.645991	0.143556	1.085261	0.295543	-10.868999	-68.468345	105.470293			
10463	10.252877	-0.536989	3.049085	-0.274478	0.835275	0.861287	-10.738382	-68.523538	105.192563			
10464	10.809832	-0.637359	3.129917	-0.211000	0.957118	1.416491	-10.654105	-68.590910	105.007457			
10465	11.310885	-0.318024	4.057826	-0.509300	0.220962	2.195431	-10.583182	-68.743201	104.940124			
10466	12.076003	-1.008865	3.589524	0.092800	0.946441	2.790001	-10.565126	-68.984099	104.895485			
10467	12.837747	-2.150161	3.323590	1.165879	1.508292	3.485534	-10.319164	-69.229592	104.694168			
10468	12.632958	-2.515126	4.125718	1.641922	0.673400	3.595862	-9.746877	-69.486033	104.249076			
10469	12.371639	-2.862315	5.011630	2.139496	-0.261575	3.667668	-8.876653	-69.810684	103.588286			
10470	12.171902	-3.085548	5.989714	2.546928	-1.265505	3.805787	-7.652898	-70.083765	102.687693			
10471	11.731602	-2.716823	6.795693	2.400371	-2.218280	3.622672	-6.162322	-70.251512	101.602655			
10472	11.256856	-1.884969	6.659580	1.729294	-2.322198	3.080540	-4.561009	-70.309167	100.382498			
10473	10.461562	-0.929422	6.314932	0.922346	-2.341606	2.181119	-2.958062	-70.291458	99.060861			
10474	9.515808	0.203407	5.949387	-0.081430	-2.412062	1.149140	-1.471027	-70.227350	97.729986			
10475	8.369510	1.831869	5.785548	-1.579659	-2.800369	0.012744	-0.171870	-70.169886	96.497343			
10476	7.569190	3.844680	5.571544	-3.510483	-3.075268	-0.794080	0.834729	-70.143378	95.474909			
10477	6.951501	5.466836	5.174698	-5.105952	-3.073900	-1.477976	1.540408	-70.115966	94.687789			
10478	6.716507	6.210774	5.148341	-5.823885	-3.186771	-1.681429	1.941540	-70.090709	94.111668			
10479	7.275865	4.802472	5.229625	-4.429380	-2.903798	-1.135163	2.061544	-70.111737	93.687729			
10480	8.531218	2.066019	5.106238	-1.754380	-2.081499	-0.029370	2.113105	-70.150035	93.323120			
10481	9.777439	-0.345833	5.057367	0.613191	-1.393120	1.095020	2.190126	-70.186103	92.973451			
10482	10.777348	-2.655027	4.698807	2.868121	-0.527545	1.882386	2.340393	-70.202417	92.617793			
10483	11.096241	-4.239182	4.201645	4.411762	0.172150	1.988064	2.556546	-70.156755	92.270609			
10484	10.626493	-4.713276	3.823532	4.874327	0.413976	1.404542	2.775903	-70.034555	91.979835			
10485	8.575325	-4.655540	3.122118	4.793234	0.386835	-0.766523	2.856838	-69.865962	91.869394			
10486	7.091410	-3.731331	3.114107	3.888696	-0.171664	-2.147367	2.806878	-69.792654	91.947964			
10487	7.911439	-2.493682	2.857822	2.617778	0.247696	-1.442365	2.565267	-69.948343	92.226671			
10488	8.238072	-1.049398	3.032808	1.173912	0.057933	-1.050067	2.218709	-70.101321	92.684019			
10489	7.866037	0.147024	3.150609	-0.021327	-0.302665	-1.343311	1.770835	-70.275701	93.275013			
10490	8.053463	0.769706	3.102622	-0.671190	-0.280135	-1.178578	1.244579	-70.496835	93.945326			
10491	8.137396	1.155737	3.194348	-1.074512	-0.409390	-1.070007	0.659397	-70.699294	94.671429			
10492	8.043852	0.847167	3.119807	-0.798182	-0.375439	-1.188520	0.030854	-70.876766	95.401691			
10493	8.045553	0.372034	3.210842	-0.343259	-0.443180	-1.160259	-0.532708	-71.012567	96.075198			
10494	7.963449	0.003190	3.127936	-0.002699	-0.376742	-1.265260	-0.986590	-71.115607	96.641835			
10495	8.196836	-0.424151	3.147452	0.399159	-0.294831	-1.036117	-1.316107	-71.219548	97.095272			
10496	8.418832	-0.826076	3.066539	0.771759	-0.119568	-0.848711	-1.508661	-71.281791	97.418259			
10497	8.448623	-1.098343	3.009432	1.030804	-0.032724	-0.836127	-1.555757	-71.301936	97.615311			
10498	8.443830	-1.338259	2.804714	1.250209	0.184215	-0.904339	-1.484110	-71.323778	97.702671			
10499	8.445965	-1.322215	2.892196	1.248631	0.100858	-0.875232	-1.333917	-71.354287	97.721578			
10500	8.472760	-1.219091	2.866120	1.150922	0.121545	-0.860085	-1.152950	-71.391456	97.708599			
10501	8.693764	-0.976880	2.743320	0.897375	0.276498	-0.692386	-0.959018	-71.440368	97.683343			
10502	8.786531	-0.642523	2.621649	0.558142	0.376106	-0.645572	-0.759203	-71.494639	97.657170			
10503	8.906814	-0.334444	2.615208	0.256169	0.375555	-0.534981	-0.585023	-71.561060	97.649095			
10504	9.060719	0.007151	2.580122	-0.084566	0.405359	-0.400874	-0.430835	-71.626565	97.660992			
10505	9.152067	0.125813	2.512507	-0.207357	0.472820	-0.335225	-0.325741	-71.686408	97.715115			
10506	9.179225	0.222753	2.477277	-0.305056	0.493631	-0.320166	-0.275175	-71.726441	97.821623			
10507	9.143052	0.096134	2.414982	-0.184786	0.552041	-0.373520	-0.261341	-71.750154	97.953113			
10508	9.218141	-0.036357	2.334047	-0.067484	0.666838	-0.327225	-0.245925	-71.753871	98.089177			
10509	9.292775	-0.272866	2.121542	0.135147	0.923573	-0.322703	-0.205171	-71.737289	98.203842			
10510	9.371848	-0.445655	1.979035	0.284040	1.111103	-0.292630	-0.110872	-71.707702	98.279704			
10511	9.412943	-0.571892	1.827032	0.388644	1.292465	-0.302321	0.047617	-71.666108	98.308159			
10512	9.309799	-0.614060	1.737405	0.426431	1.361840	-0.430175	0.254352	-71.604334	98.315262			
10513	9.112771	-0.634353	1.491772	0.425016	1.548113	-0.697148	0.497309	-71.526535	98.300673			
10514	8.895452	-0.608848	1.460480	0.409767	1.521889	-0.916133	0.757613	-71.436807	98.283749			
10515	8.752311	-0.738915	1.548433	0.562432	1.430393	-1.027233	0.992584	-71.370013	98.279320			
10516	8.703867	-0.995525	1.661525	0.839759	1.363938	-1.040943	1.209826	-71.314648	98.282045			
10517	8.630043	-1.170784	1.843313	1.049243	1.211763	-1.056154	1.421180	-71.271897	98.289683			
10518	8.570909	-1.226724	2.100186	1.154483	0.974378	-1.032377	1.653873	-71.233149	98.276998			
10519	8.587832	-0.875834	2.198575	0.832016	0.838161	-0.983367	1.903100	-71.207189	98.240066			
10520	8.704041	-0.584097	2.385203	0.580261	0.657823	-0.811507	2.148397	-71.191023	98.177537			
10521	8.986921	-0.285837	2.606157	0.321343	0.493805	-0.469701	2.351127	-71.188426	98.114942			
10522	9.350641	0.036637	2.453585	-0.030171	0.696550	-0.170602	2.528767	-71.182076	98.049098			
10523	9.577044	0.460591	2.193442	-0.496610	0.937461	-0.034259	2.657938	-71.155521	98.017059			
10524	9.737573	0.783086	1.691116	-0.906001	1.400728	-0.039738	2.760768	-71.135627	97.994201			
10525	10.013839	0.879031	1.470693	-1.049712	1.677637	0.152062	2.822648	-71.134387	97.991618			
10526	10.291914	0.517170	1.616342	-0.679956	1.699040	0.456414	2.815066	-71.123932	98.008813			
10527	10.639550	-0.066622	1.547247	-0.137258	1.987308	0.752832	2.755945	-71.079628	98.060489			
10528	10.757668	-0.450693	1.769781	0.268583	1.898746	0.929067	2.642366	-71.017644	98.157165			
10529	11.008464	-1.208400	2.708016	1.159141	1.251748	1.459818	2.404934	-71.020319	98.329292			
10530	11.773659	-1.277768	3.021704	1.227693	1.209027	2.287452	1.992413	-71.078863	98.683692			
10531	12.529384	-0.820359	3.258195	0.744895	1.129802	3.088581	1.259837	-71.121415	99.344507			
10532	12.779219	-0.361172	4.575410	0.446354	-0.124126	3.757796	0.167502	-71.195349	100.354859			
10533	13.624581	-0.188024	5.330990	0.261365	-0.639533	4.802554	-1.343100	-71.361493	101.759710			
10534	15.079409	0.577208	6.286904	-0.566206	-1.284255	6.474549	-3.363864	-71.486015	103.587509			
10535	15.857732	2.656514	7.103624	-2.737124	-2.229433	7.407049	-5.751459	-71.374153	105.755354			
10536	13.997137	4.202825	6.719632	-4.387584	-2.722429	5.421154	-8.205263	-71.124075	107.937633			
10537	10.930431	2.671279	6.335513	-2.849864	-3.021307	2.414134	-10.663904	-70.874336	109.799367			
10538	8.337575	-0.209410	5.341381	-0.037742	-2.387195	-0.200837	-12.556775	-70.537218	111.124414			
10539	6.338926	-1.671210	4.111197	1.380537	-1.603458	-2.369605	-13.603992	-70.188711	111.837828			
10540	5.806874	-3.368815	4.536585	3.117692	-1.891711	-2.577317	-14.154751	-69.966419	112.145117			
10541	6.462061	-4.831749	4.670854	4.459523	-1.579390	-1.779068	-14.371959	-69.819300	112.252630			
10542	6.683245	-5.093094	4.332305	4.636062	-1.137272	-1.652557	-14.320990	-69.658417	112.212475			
10543	6.473579	-4.681257	4.345884	4.257961	-1.251911	-1.874773	-14.063147	-69.469358	112.028207			
10544	6.805855	-2.774097	4.806199	2.395985	-1.829747	-1.564901	-13.705146	-69.272057	111.795102			
10545	8.169098	-0.690066	5.079877	0.204929	-1.926762	-0.364882	-13.486641	-69.118213	111.675954			
10546	10.152629	0.975622	5.154174	-1.688298	-1.573659	1.379561	-13.487787	-68.979421	111.723264			
10547	11.613075	2.375288	5.259466	-3.264442	-1.379733	2.661571	-13.666819	-68.808574	111.914202			
10548	12.170860	3.066070	4.864275	-4.099716	-0.904120	2.976623	-13.984192	-68.612938	112.168716			
10549	10.885894	2.912734	4.310043	-3.877181	-0.760784	1.586943	-14.272435	-68.368184	112.336631			
10550	9.131269	2.377933	3.813981	-3.195976	-0.778818	-0.181481	-14.537429	-68.192839	112.426816			
10551	8.321390	1.201693	3.272632	-2.006967	-0.354446	-1.023709	-14.769494	-68.133742	112.447224			
10552	7.862024	-0.001414	3.007852	-0.796879	-0.081114	-1.433129	-14.864456	-68.138717	112.372472			
10553	7.853521	-1.239385	3.029974	0.425074	0.074169	-1.315134	-14.842053	-68.192716	112.211259			
10554	7.875596	-2.269729	2.897083	1.432232	0.345428	-1.245358	-14.675498	-68.275548	111.951505			
10555	7.720488	-2.510251	3.038643	1.722547	0.185054	-1.319209	-14.368497	-68.377161	111.599811			
10556	7.766633	-2.404370	3.198342	1.652192	0.029328	-1.233626	-13.949926	-68.475205	111.162729			
10557	7.650519	-1.843558	3.415287	1.163921	-0.292815	-1.318407	-13.441322	-68.518648	110.666044			
10558	7.621254	-1.098384	3.480271	0.466217	-0.462393	-1.388257	-12.932483	-68.526000	110.150964			
10559	7.831749	-0.309752	3.490349	-0.312814	-0.501748	-1.253183	-12.466338	-68.530356	109.656341			
10560	8.232954	0.371133	3.612905	-1.000173	-0.562886	-0.887715	-12.082303	-68.521984	109.217166			
10561	8.409791	0.941504	3.651244	-1.565061	-0.605153	-0.750295	-11.815540	-68.495230	108.867251			
10562	8.251620	1.150375	3.591940	-1.750076	-0.621983	-0.932092	-11.671382	-68.462886	108.611554			
10563	8.057551	1.158976	3.383602	-1.754000	-0.488381	-1.187081	-11.633066	-68.452125	108.423856			
10564	7.804324	0.700094	3.292272	-1.280493	-0.428232	-1.421405	-11.664263	-68.478148	108.287328			
10565	7.672304	-0.060303	3.162642	-0.525818	-0.259675	-1.534628	-11.681214	-68.538174	108.134710			
10566	7.592158	-0.573601	3.190937	-0.002723	-0.257489	-1.561285	-11.615543	-68.615271	107.913904			
10567	7.570076	-1.157158	3.067631	0.575585	-0.090088	-1.583715	-11.447650	-68.718092	107.583313			
10568	7.932641	-1.583139	2.985962	0.967022	0.148717	-1.245786	-11.160113	-68.829731	107.139602			
10569	8.392692	-1.665028	3.149017	1.035779	0.152546	-0.755661	-10.781674	-68.921339	106.597969			
10570	8.801261	-1.632397	2.955560	0.972235	0.461295	-0.447638	-10.362876	-68.983360	106.001865			
10571	9.237652	-1.294277	2.865883	0.614146	0.654695	-0.095857	-9.963185	-69.013964	105.415593			
10572	9.376956	-1.031576	2.600552	0.344872	0.924291	-0.077133	-9.622179	-69.011284	104.886434			
10573	9.511642	-0.624497	2.427823	-0.065340	1.096285	-0.037744	-9.409856	-68.987334	104.483135			
10574	9.592671	-0.428013	2.161829	-0.275563	1.361901	-0.068699	-9.330958	-68.938084	104.213675			
10575	9.455579	-0.319248	1.826544	-0.391221	1.626778	-0.323394	-9.384792	-68.875294	104.073910			
10576	9.297306	-0.192808	1.652524	-0.517993	1.732288	-0.542372	-9.557459	-68.807056	104.050706			
10577	9.110544	-0.040748	1.692334	-0.659833	1.625198	-0.713732	-9.826350	-68.742884	104.111380			
10578	8.808319	0.151381	1.854516	-0.828269	1.359322	-0.951828	-10.135394	-68.678934	104.226159			
10579	8.567535	0.371579	2.165594	-1.025076	0.973889	-1.081636	-10.465800	-68.615407	104.381527			
10580	8.426102	0.525617	2.320319	-1.174934	0.773743	-1.170918	-10.787937	-68.566498	104.559987			
10581	8.573972	0.314399	2.315072	-0.995178	0.850018	-1.023007	-11.089349	-68.549862	104.740919			
10582	8.777474	-0.126096	2.220052	-0.594164	1.042319	-0.837772	-11.339098	-68.557495	104.891951			
10583	9.014707	-0.453008	2.432330	-0.291363	0.946511	-0.517226	-11.503672	-68.597045	104.994047			
10584	9.318974	-0.727262	2.631156	-0.041692	0.877955	-0.141979	-11.551753	-68.672095	105.011813			
10585	9.686585	-0.863458	2.751619	0.069763	0.891156	0.254479	-11.455723	-68.763913	104.921008			
10586	9.959885	-0.949114	2.643143	0.139051	1.081789	0.477925	-11.227602	-68.850828	104.704586			
10587	10.367619	-0.834209	2.330924	-0.005647	1.498256	0.740596	-10.927089	-68.916952	104.399521			
10588	10.773536	-0.493690	1.994881	-0.372382	1.925147	0.978394	-10.625215	-68.951125	104.056413			
10589	11.035314	0.086809	1.572310	-0.970180	2.372990	1.035606	-10.391148	-68.939659	103.733015			
10590	11.067115	0.885765	1.446969	-1.758580	2.459060	0.967838	-10.276066	-68.866174	103.478823			
10591	10.837188	1.959428	1.939543	-2.782963	1.867983	0.855561	-10.274432	-68.765615	103.344085			
10592	10.677594	2.726372	2.289543	-3.523814	1.455119	0.777471	-10.406144	-68.709161	103.343476			
10593	10.806500	2.472051	2.683475	-3.274201	1.150862	1.052285	-10.579800	-68.790636	103.404051			
10594	11.042026	1.798375	2.916300	-2.616172	1.035673	1.401064	-10.673038	-68.976231	103.386331			
10595	11.327846	0.381944	2.935399	-1.214226	1.163629	1.774114	-10.519808	-69.224390	103.126471			
10596	11.360945	-0.880578	3.969626	0.110109	0.232451	2.251220	-10.016494	-69.498406	102.568191			
10597	11.134147	-2.477986	4.754626	1.805937	-0.541274	2.400464	-9.158753	-69.787941	101.732719			
10598	11.040923	-4.024977	5.520243	3.468218	-1.248374	2.636709	-7.925793	-70.042040	100.620838			
10599	10.894100	-4.449404	6.397983	4.049040	-2.123286	2.777313	-6.321807	-70.248530	99.260945			
10600	10.690680	-3.833736	7.214634	3.618509	-2.997070	2.795292	-4.514492	-70.349720	97.743227			
10601	10.840728	-3.891838	7.146376	3.808097	-2.858337	2.878451	-2.713167	-70.310253	96.162979			
10602	10.610617	-3.382602	6.584389	3.406649	-2.401621	2.435044	-1.035124	-70.174237	94.615537			
10603	9.566385	-1.567392	6.403417	1.721387	-2.664752	1.363682	0.511604	-70.051377	93.084219			
10604	8.703828	1.261156	6.344980	-1.001885	-3.053445	0.544823	1.890219	-69.950030	91.661071			
10605	7.817007	3.807562	5.926564	-3.497740	-3.089784	-0.381569	2.922401	-69.838609	90.485112			
10606	7.354995	5.480883	5.562094	-5.153412	-2.969178	-0.885255	3.614158	-69.786925	89.557377			
10607	7.874405	5.707455	5.528694	-5.365877	-2.741288	-0.387168	4.014514	-69.836720	88.828844			
10608	8.687553	4.411559	5.470102	-4.069793	-2.327992	0.330028	4.161795	-69.914844	88.293397			
10609	9.385111	2.407255	5.215566	-2.083623	-1.763447	0.846866	4.104221	-69.969611	87.956016			
10610	9.730679	0.097275	4.833322	0.197177	-1.216117	0.982623	3.950809	-70.019557	87.737122			
10611	10.077002	-2.046000	4.427576	2.316403	-0.679554	1.119281	3.843382	-70.083821	87.536647			
10612	9.842974	-3.505644	4.019285	3.754688	-0.368248	0.727475	3.845362	-70.105184	87.284141			
10613	9.261937	-4.308769	3.515330	4.537709	-0.097224	-0.009309	3.912274	-70.092578	86.999286			
10614	8.224830	-4.467141	2.973638	4.670810	0.047563	-1.173998	3.975647	-70.072905	86.758028			
10615	7.778855	-3.635520	3.141233	3.834486	-0.281998	-1.517381	3.961269	-70.098707	86.618625			
10616	7.984790	-2.537650	2.926003	2.734351	-0.033775	-1.369928	3.862343	-70.205856	86.591650			
10617	8.126630	-1.038031	2.964079	1.230857	-0.050733	-1.187855	3.711463	-70.365298	86.665203			
10618	8.128711	-0.035032	3.144586	0.218126	-0.248801	-1.103150	3.457956	-70.545431	86.864821			
10619	8.080999	0.531836	3.209417	-0.365783	-0.354502	-1.116356	3.112675	-70.737901	87.161526			
10620	8.150507	0.803775	3.134707	-0.657896	-0.289575	-1.072755	2.690243	-70.929740	87.537711			
10621	7.963094	0.629268	3.212190	-0.508720	-0.447916	-1.229826	2.224025	-71.072438	87.964828			
10622	7.659238	0.103351	3.211765	-0.008711	-0.562322	-1.525727	1.781383	-71.170932	88.386616			
10623	7.780318	-0.416772	3.238943	0.492753	-0.562238	-1.407996	1.391151	-71.273047	88.784575			
10624	8.090760	-1.020275	3.172916	1.081096	-0.411598	-1.139133	1.067031	-71.355035	89.150407			
10625	8.443419	-1.533709	3.140659	1.581989	-0.276263	-0.816672	0.811839	-71.420311	89.474333			
10626	8.487444	-1.965720	3.053970	2.003358	-0.181413	-0.802630	0.642085	-71.438547	89.756110			
10627	8.467713	-2.180629	2.961148	2.211118	-0.095651	-0.850126	0.543489	-71.449597	89.996365			
10628	8.597958	-2.086582	2.838245	2.112244	0.065108	-0.764564	0.492184	-71.469057	90.219364			
10629	8.693053	-1.787848	2.748323	1.809591	0.179976	-0.701604	0.452879	-71.491288	90.451811			
10630	8.744590	-1.255511	2.674940	1.273143	0.259613	-0.674242	0.405334	-71.514097	90.714859			
10631	8.888061	-0.823599	2.505145	0.832600	0.456865	-0.590446	0.311611	-71.551852	91.017275			
10632	8.911907	-0.281700	2.429135	0.282366	0.520400	-0.590346	0.213092	-71.584969	91.343600			
10633	9.146705	0.160090	2.269078	-0.173260	0.727649	-0.417100	0.087595	-71.636315	91.682642			
10634	9.093132	0.307341	2.207962	-0.330627	0.757459	-0.486834	-0.030851	-71.653684	92.010327			
10635	9.031663	0.323600	2.128930	-0.356678	0.808048	-0.569970	-0.111874	-71.673962	92.289548			
10636	8.947956	0.125201	1.873594	-0.172163	1.027696	-0.729398	-0.134753	-71.688937	92.502176			
10637	8.859832	-0.140273	1.759424	0.087018	1.116071	-0.848387	-0.087704	-71.713860	92.638275			
10638	8.855412	-0.497286	1.609479	0.438360	1.268800	-0.898989	0.047000	-71.754318	92.691864			
10639	8.844204	-0.769484	1.427823	0.706886	1.446411	-0.966280	0.280994	-71.797824	92.662397			
10640	8.822612	-0.899057	1.251233	0.836256	1.610179	-1.042262	0.604048	-71.845652	92.567055			
10641	8.795675	-0.983343	1.235662	0.931139	1.618198	-1.073573	1.002152	-71.891571	92.419716			
10642	8.738323	-1.050429	1.228220	1.012329	1.610019	-1.132064	1.473614	-71.930560	92.233863			
10643	8.837787	-1.135751	1.472749	1.127792	1.414015	-0.964296	1.972421	-71.971673	92.030075			
10644	8.831934	-1.392722	1.900601	1.432241	1.025059	-0.843132	2.483484	-72.002863	91.803174			
10645	8.710663	-1.372333	2.369952	1.469036	0.545414	-0.817131	3.008535	-72.009238	91.563966			
10646	8.675783	-0.995015	2.727857	1.145356	0.172517	-0.737512	3.536261	-72.005033	91.302145			
10647	8.721192	-0.507662	2.941217	0.701514	-0.048599	-0.621761	4.013928	-71.978389	91.057987			
10648	8.885900	0.082750	3.123760	0.151338	-0.214768	-0.397016	4.434177	-71.955552	90.823734			
10649	9.130557	0.685827	3.073766	-0.435995	-0.140945	-0.165124	4.735549	-71.934455	90.646632			
10650	9.345689	1.135629	2.610245	-0.915143	0.326965	-0.091549	4.919136	-71.912885	90.534528			
10651	9.515430	1.448326	1.807485	-1.296296	1.112580	-0.169564	5.007528	-71.904840	90.479810			
10652	9.723489	1.296896	1.117969	-1.208971	1.841907	-0.188561	5.031556	-71.928104	90.452411			
10653	10.122969	0.652187	0.829613	-0.595098	2.293136	0.085570	5.013359	-71.957673	90.452734			
10654	10.514106	-0.583498	0.955480	0.644760	2.405274	0.463439	4.948657	-71.954258	90.484431			
10655	10.950342	-1.822563	1.022325	1.880014	2.590228	0.865943	4.872977	-71.944446	90.557210			
10656	11.686406	-2.593226	1.626732	2.694478	2.316458	1.733610	4.702457	-71.949587	90.720620			
10657	12.704592	-3.007951	2.319726	3.149451	2.015255	2.909545	4.320835	-71.933424	91.109625			
10658	13.057118	-2.531863	2.552016	2.657248	1.867001	3.335110	3.670289	-71.914572	91.798001			
10659	13.296994	-1.462836	2.969156	1.569529	1.442214	3.723263	2.723175	-71.994373	92.821092			
10660	13.952256	-0.161564	4.316908	0.303251	0.217425	4.788237	1.367115	-72.126130	94.232605			
10661	14.759068	1.416633	5.702465	-1.286403	-1.031116	5.987152	-0.512331	-72.152306	96.062976			
10662	14.020299	3.395963	6.428266	-3.336692	-2.141805	5.474567	-2.736015	-72.021220	98.193369			
10663	12.428583	4.817113	6.664784	-4.844134	-2.989952	3.959932	-5.150858	-71.965418	100.417981			
10664	11.108188	3.230862	6.185816	-3.413605	-2.787655	2.543202	-7.623638	-71.869540	102.465408			
10665	8.761044	1.256236	5.111274	-1.523535	-2.281127	0.032770	-9.535992	-71.556389	103.975186			
10666	7.649271	0.142000	4.694389	-0.459790	-2.099217	-1.097753	-10.847416	-71.269036	104.999204			
10667	7.980779	-1.377002	5.893896	1.017923	-2.992479	-0.308192	-11.921960	-71.133700	105.801993			
10668	8.620652	-3.788333	5.884132	3.294799	-2.593808	0.468669	-12.742382	-71.016688	106.457721			
10669	7.952028	-5.124574	5.218902	4.609952	-2.050996	-0.258920	-13.070289	-70.767741	106.820205			
10670	7.313864	-4.701132	5.410338	4.240665	-2.426220	-0.812962	-13.166561	-70.542591	107.025184			
10671	8.202164	-3.723202	5.539499	3.178915	-2.307908	0.005242	-13.287963	-70.391175	107.269998			
10672	9.122059	-2.351670	5.546954	1.713627	-2.100633	0.777955	-13.435221	-70.205139	107.556705			
10673	9.651706	-0.650098	5.546040	-0.045855	-2.037638	1.150086	-13.590804	-69.984405	107.868640			
10674	10.269625	0.780295	5.277529	-1.564958	-1.677324	1.530318	-13.804127	-69.792346	108.217399			
10675	10.354224	1.823649	4.811001	-2.659080	-1.280295	1.366375	-14.032260	-69.609150	108.553104			
10676	9.476705	2.364418	4.463378	-3.140158	-1.271354	0.377659	-14.217899	-69.430477	108.806429			
10677	8.571919	2.278758	4.123796	-2.989209	-1.226670	-0.580348	-14.340564	-69.302786	108.950751			
10678	7.839941	1.904192	3.796764	-2.561647	-1.115993	-1.345187	-14.347031	-69.232732	108.944825			
10679	7.441751	1.099637	3.613005	-1.729075	-0.993183	-1.709197	-14.237989	-69.221990	108.800384			
10680	7.350361	0.193242	3.565437	-0.813885	-0.890691	-1.730501	-13.967263	-69.252534	108.493437			
10681	7.256369	-0.512854	3.396061	-0.095979	-0.697147	-1.815446	-13.560267	-69.306194	108.046687			
10682	7.290141	-0.787966	3.419795	0.197803	-0.684319	-1.753247	-13.072239	-69.380743	107.524020			
10683	7.442893	-1.003349	3.212558	0.410350	-0.423901	-1.665556	-12.545807	-69.484912	106.953016			
10684	7.459821	-0.908592	3.398090	0.354409	-0.605977	-1.595108	-11.996248	-69.564708	106.363793			
10685	7.607844	-0.825963	3.335734	0.281716	-0.508713	-1.484998	-11.493380	-69.636350	105.788387			
10686	7.735139	-0.381543	3.473648	-0.138838	-0.636280	-1.349827	-11.031514	-69.688856	105.246149			
10687	7.871214	0.102292	3.541601	-0.607792	-0.696128	-1.230416	-10.681373	-69.733309	104.774127			
10688	8.182978	0.531768	3.528526	-1.048188	-0.614440	-0.968585	-10.436114	-69.767414	104.387908			
10689	8.436763	0.695475	3.348913	-1.232757	-0.371908	-0.800481	-10.289310	-69.787053	104.070938			
10690	8.536178	0.726472	3.282322	-1.268451	-0.275178	-0.730671	-10.161926	-69.799669	103.772175			
10691	8.633508	0.506280	3.192448	-1.055745	-0.140996	-0.655667	-10.080099	-69.841864	103.497991			
10692	8.693525	0.141303	3.100942	-0.695046	-0.013468	-0.607802	-9.993570	-69.905434	103.216306			
10693	8.733362	-0.346722	3.041370	-0.207143	0.081171	-0.561080	-9.891710	-69.968957	102.904404			
10694	8.784947	-0.659453	2.737509	0.098301	0.396442	-0.596545	-9.743650	-70.021108	102.549581			
10695	8.849749	-0.720370	2.525234	0.158699	0.614247	-0.603383	-9.574717	-70.078125	102.192460			
10696	8.886846	-0.869155	2.418329	0.313896	0.726706	-0.595686	-9.421618	-70.145961	101.851478			
10697	9.135907	-0.938883	2.259248	0.373710	0.953425	-0.410464	-9.290066	-70.203831	101.545759			
10698	9.263289	-0.940187	2.214044	0.375989	1.032367	-0.305463	-9.185842	-70.221880	101.271475			
10699	9.317346	-0.928946	2.274217	0.370422	0.992052	-0.235289	-9.126259	-70.213955	101.043265			
10700	9.404835	-0.885044	2.315713	0.326269	0.982426	-0.141848	-9.116978	-70.186010	100.858530			
10701	9.310977	-0.754023	2.307517	0.201832	0.959161	-0.240501	-9.172216	-70.134800	100.727491			
10702	9.195446	-0.703077	2.196572	0.153125	1.030768	-0.389868	-9.298005	-70.074530	100.650217			
10703	9.039645	-0.498388	2.065400	-0.050502	1.103061	-0.592592	-9.518882	-70.013676	100.646475			
10704	8.906682	-0.278773	2.002056	-0.272876	1.119105	-0.752441	-9.803920	-69.953648	100.689929			
10705	8.776708	-0.003528	2.100477	-0.552918	0.983387	-0.858927	-10.139587	-69.894307	100.775303			
10706	8.726416	0.314593	2.384088	-0.883526	0.701959	-0.831609	-10.476748	-69.824109	100.878957			
10707	8.645279	0.479879	2.612919	-1.062076	0.466954	-0.843162	-10.814477	-69.755091	100.999774			
10708	8.629367	0.331124	2.597997	-0.930916	0.487034	-0.856049	-11.163161	-69.700581	101.140945			
10709	8.720122	-0.037368	2.598103	-0.587362	0.527821	-0.748006	-11.494536	-69.664927	101.274443			
10710	8.867889	-0.515857	2.573623	-0.135329	0.605503	-0.585329	-11.782910	-69.667650	101.385508			
10711	9.024160	-0.883095	2.688608	0.206492	0.545929	-0.373236	-11.993693	-69.713323	101.448373			
10712	9.209829	-1.121837	2.715853	0.425442	0.572479	-0.171807	-12.098714	-69.780657	101.438875			
10713	9.374043	-1.122791	2.625516	0.417287	0.701367	-0.047411	-12.104005	-69.837837	101.345227			
10714	9.629836	-1.167432	2.343501	0.455816	1.045009	0.101385	-12.060735	-69.871525	101.194641			
10715	10.016942	-1.058059	2.039954	0.335257	1.458402	0.354942	-12.003453	-69.873458	101.002746			
10716	10.451273	-0.780315	1.749556	0.044572	1.882486	0.644521	-11.983790	-69.841721	100.809221			
10717	10.706821	-0.302301	1.445673	-0.435436	2.269149	0.745661	-12.051564	-69.762939	100.658761			
10718	10.811274	0.272306	1.502896	-1.018842	2.276469	0.817275	-12.215574	-69.650239	100.577646			
10719	10.782197	1.072054	1.682283	-1.829529	2.133881	0.786108	-12.445020	-69.537653	100.591288			
10720	10.813811	1.535822	1.729521	-2.308913	2.129190	0.790328	-12.753622	-69.471322	100.696351			
10721	10.945974	1.615690	1.850371	-2.416959	2.071092	0.944521	-13.060385	-69.488280	100.812970			
10722	11.016042	1.306585	2.500391	-2.154973	1.467760	1.255919	-13.246190	-69.609842	100.831583			
10723	11.050545	0.044527	2.938290	-0.920392	1.002779	1.540605	-13.269014	-69.830942	100.689472			
10724	11.409507	-1.041219	3.583657	0.120454	0.430806	2.183273	-13.085259	-70.157723	100.346946			
10725	12.015119	-2.649371	3.738528	1.714691	0.362400	2.926492	-12.615936	-70.497702	99.743327			
10726	11.659745	-3.981394	4.739977	3.063350	-0.809261	3.002494	-11.732977	-70.739103	98.848129			
10727	10.899121	-3.876721	5.512828	3.032858	-1.826289	2.503020	-10.579199	-70.988826	97.780115			
10728	10.638932	-2.988261	5.745090	2.238901	-2.130570	2.252539	-9.228330	-71.197200	96.546406			
10729	10.790130	-2.495397	6.289760	1.814048	-2.596981	2.523396	-7.746599	-71.274442	95.150899			
10730	10.877692	-2.266080	6.287850	1.685192	-2.551110	2.582772	-6.234448	-71.208210	93.651560			
10731	10.353984	-1.062565	5.801348	0.611295	-2.190521	1.884190	-4.785817	-71.110690	92.079573			
10732	9.423208	0.587282	5.569175	-0.935774	-2.181257	0.888876	-3.438392	-71.048150	90.504249			
10733	7.897602	3.065724	5.688380	-3.354565	-2.645070	-0.545616	-2.253515	-70.968991	89.040357			
10734	6.802990	4.762964	5.200529	-4.994580	-2.412317	-1.735147	-1.415309	-70.920802	87.822246			
10735	6.457950	5.230961	4.971447	-5.439111	-2.235315	-2.118366	-0.866735	-70.904748	86.818412			
10736	6.842997	4.250076	4.713889	-4.434757	-1.894136	-1.821719	-0.519629	-70.945251	85.952832			
10737	8.066989	2.421783	4.673568	-2.583391	-1.580510	-0.668747	-0.281418	-71.029805	85.223899			
10738	9.406781	0.475084	4.742484	-0.615496	-1.380726	0.623746	-0.107339	-71.077746	84.621417			
10739	10.334251	-1.840074	4.657731	1.724956	-1.231499	1.473809	0.030191	-71.086834	84.144024			
10740	11.019512	-3.796897	4.367127	3.727210	-0.952185	2.024503	0.230323	-71.094087	83.692544			
10741	11.066849	-5.133702	3.888716	5.117927	-0.646202	1.906585	0.487507	-71.068314	83.242378			
10742	10.003678	-5.464090	3.205031	5.490086	-0.389616	0.671072	0.689413	-70.977024	82.895154			
10743	8.233638	-4.875840	2.953770	4.868368	-0.658468	-1.085902	0.740056	-70.911129	82.767173			
10744	7.546094	-3.637577	2.959855	3.606942	-0.750909	-1.727990	0.617128	-70.983197	82.844106			
10745	8.014299	-1.918287	3.056446	1.895944	-0.512408	-1.245691	0.356704	-71.170804	83.102098			
10746	8.272766	-0.298154	3.404339	0.240193	-0.596810	-0.885027	-0.031260	-71.343720	83.514582			
10747	8.331346	0.814379	3.450565	-0.892831	-0.520362	-0.817527	-0.535886	-71.518665	84.047095			
10748	8.236811	1.306516	3.417296	-1.410740	-0.489151	-0.924473	-1.131170	-71.697264	84.662911			
10749	8.039259	1.350575	3.573415	-1.508924	-0.714879	-1.069975	-1.779817	-71.823659	85.308443			
10750	7.701393	0.943726	3.447728	-1.129698	-0.759396	-1.431999	-2.390006	-71.893016	85.914413			
10751	7.728413	0.284411	3.301033	-0.485046	-0.693645	-1.446709	-2.956702	-71.958060	86.462966			
10752	8.048497	-0.614668	3.341005	0.385776	-0.739323	-1.116541	-3.436304	-72.014570	86.941978			
10753	8.500119	-1.141018	3.341251	0.895485	-0.662951	-0.676141	-3.825038	-72.039269	87.357895			
10754	8.597717	-1.696311	3.237791	1.443750	-0.592098	-0.601473	-4.128717	-71.992118	87.707788			
10755	8.606286	-2.020157	3.052581	1.773985	-0.438169	-0.640533	-4.350411	-71.931095	88.006086			
10756	8.649098	-1.990177	2.970576	1.745474	-0.331330	-0.623806	-4.496943	-71.873360	88.258685			
10757	8.694922	-1.749228	2.937915	1.504343	-0.248597	-0.594882	-4.604200	-71.822346	88.491942			
10758	8.726732	-1.363318	2.839011	1.126932	-0.095399	-0.604246	-4.694853	-71.785303	88.721142			
10759	8.829481	-0.954285	2.743888	0.726122	0.074725	-0.546271	-4.784452	-71.762426	88.952449			
10760	8.969640	-0.664979	2.602585	0.448518	0.284513	-0.464534	-4.869648	-71.752252	89.183453			
10761	9.256487	-0.281832	2.496482	0.073373	0.512768	-0.235313	-4.957698	-71.749045	89.417852			
10762	9.463236	-0.047561	2.312320	-0.148218	0.773933	-0.102848	-5.064884	-71.742583	89.666037			
10763	9.460021	0.030664	2.237157	-0.226642	0.852698	-0.131812	-5.162429	-71.723740	89.908521			
10764	9.397646	0.033433	2.058599	-0.220142	1.006063	-0.247434	-5.241758	-71.689592	90.135652			
10765	9.259166	-0.168918	1.851358	-0.006347	1.147471	-0.438708	-5.291770	-71.647369	90.336871			
10766	9.181755	-0.378908	1.827705	0.200668	1.135399	-0.514338	-5.292937	-71.605709	90.493790			
10767	9.006802	-0.697677	1.685885	0.529457	1.197135	-0.716645	-5.204028	-71.561386	90.580284			
10768	8.907293	-0.860330	1.586351	0.703382	1.256031	-0.839161	-5.001044	-71.522092	90.575154			
10769	8.765338	-1.000667	1.515599	0.857346	1.275801	-0.994139	-4.692621	-71.494080	90.488090			
10770	8.592686	-1.046344	1.549453	0.913815	1.191942	-1.148157	-4.280979	-71.486199	90.310063			
10771	8.476405	-1.092209	1.817053	0.958573	0.901530	-1.174841	-3.804211	-71.505566	90.063497			
10772	8.425892	-1.298313	2.246509	1.158083	0.466360	-1.085180	-3.276459	-71.533172	89.743826			
10773	8.270143	-1.264462	2.616574	1.127462	0.068438	-1.119894	-2.682300	-71.553695	89.356060			
10774	8.172684	-0.874457	2.764246	0.759313	-0.080377	-1.174667	-2.023345	-71.564114	88.904727			
10775	8.217896	-0.491204	2.968333	0.398240	-0.240318	-1.073714	-1.351036	-71.581734	88.420028			
10776	8.404418	-0.142228	3.348077	0.065298	-0.528558	-0.780503	-0.715400	-71.621489	87.940018			
10777	8.645917	0.211499	3.377994	-0.256532	-0.471045	-0.543399	-0.177238	-71.656407	87.514311			
10778	8.761731	0.561898	2.954722	-0.560875	-0.023439	-0.566128	0.274557	-71.680844	87.144175			
10779	8.864301	0.725747	2.305157	-0.676547	0.625355	-0.671162	0.590694	-71.723593	86.884750			
10780	9.126765	0.577911	1.647024	-0.485265	1.314151	-0.626720	0.790151	-71.807653	86.715926			
10781	9.617434	0.118507	1.197673	0.007003	1.859386	-0.300269	0.895150	-71.888104	86.637835			
10782	10.109609	-0.531171	0.682046	0.688145	2.462329	0.006423	0.960806	-71.939319	86.625918			
10783	10.502942	-1.327744	0.497878	1.498062	2.718992	0.320696	1.018652	-71.969913	86.657709			
10784	11.106017	-2.449856	0.727696	2.619076	2.638595	0.960112	1.038016	-71.996122	86.735537			
10785	11.649654	-3.181725	0.917973	3.347305	2.599875	1.532650	1.019689	-72.001778	86.898407			
10786	12.169724	-3.350737	1.566551	3.492441	2.145341	2.228245	0.910007	-72.015102	87.174082			
10787	12.647477	-3.037841	2.063986	3.150750	1.838554	2.841941	0.593652	-72.029987	87.665586			
10788	12.879463	-1.818358	2.460452	1.886787	1.577455	3.194707	0.032499	-72.047196	88.435688			
10789	13.335694	-0.309752	3.035552	0.309603	1.210979	3.810400	-0.854988	-72.083531	89.538651			
10790	13.543092	1.267571	3.859174	-1.367520	0.523160	4.250412	-2.071724	-72.062007	90.917916			
10791	13.083220	2.813693	5.079766	-3.041160	-0.742793	4.154774	-3.611481	-71.949569	92.509488			
10792	12.606158	3.515219	5.683239	-3.873725	-1.433821	3.844104	-5.415014	-71.824818	94.235969			
10793	12.342620	3.731143	6.347131	-4.243887	-2.116836	3.753964	-7.398075	-71.665493	96.017732			
10794	11.385468	2.823161	6.366722	-3.457608	-2.406874	2.851592	-9.339026	-71.389118	97.669012			
10795	10.147709	1.653295	5.385533	-2.337182	-1.835942	1.406883	-11.028869	-71.059295	99.076757			
10796	9.631353	0.647868	5.066790	-1.406710	-1.677554	0.867248	-12.543530	-70.806674	100.310932			
10797	9.292056	-0.961215	5.590119	0.092045	-2.300981	0.827421	-13.922341	-70.641170	101.444065			
10798	8.522608	-2.951696	5.066222	2.075420	-2.097010	0.102390	-14.882873	-70.437301	102.329110			
10799	6.927770	-4.364580	4.415768	3.591263	-2.016352	-1.471253	-15.307591	-70.210358	102.901823			
10800	6.268798	-4.822184	4.874720	4.060643	-2.643121	-1.885571	-15.488243	-70.081508	103.326456			
10801	6.770365	-4.878344	5.053959	4.069762	-2.614246	-1.340306	-15.596028	-69.985832	103.706831			
10802	7.044372	-4.139981	4.830045	3.327900	-2.263798	-1.216634	-15.614609	-69.839014	104.027372			
10803	7.451751	-2.699217	4.932980	1.861067	-2.171430	-0.926188	-15.594339	-69.679838	104.307101			
10804	8.199816	-0.941383	5.033761	0.048034	-1.973849	-0.348889	-15.587486	-69.520923	104.583790			
10805	8.874328	0.688844	5.053662	-1.633840	-1.739576	0.140811	-15.616620	-69.353778	104.878044			
10806	9.228713	2.046459	4.951580	-3.018262	-1.512087	0.310502	-15.717645	-69.198732	105.216520			
10807	9.494630	3.032958	4.753142	-4.028866	-1.235505	0.394219	-15.879643	-69.084366	105.572675			
10808	8.910371	3.485974	4.445779	-4.427090	-1.151848	-0.305543	-16.032343	-68.991160	105.870973			
10809	8.472359	3.300930	4.025509	-4.200685	-0.909028	-0.845545	-16.202246	-68.972619	106.128278			
10810	8.018754	2.430215	3.741434	-3.290068	-0.794540	-1.283395	-16.343980	-69.028177	106.317887			
10811	8.001605	0.982922	3.443500	-1.845721	-0.513769	-1.258226	-16.482632	-69.168121	106.488304			
10812	8.290177	-0.459458	3.353368	-0.435576	-0.331033	-0.874911	-16.523852	-69.353709	106.601462			
10813	8.260857	-1.491241	3.345573	0.603140	-0.340781	-0.802779	-16.455966	-69.529667	106.635244			
10814	8.168399	-2.259457	3.304286	1.391436	-0.338864	-0.829635	-16.298278	-69.690146	106.608339			
10815	8.219336	-2.489065	3.284865	1.632396	-0.313811	-0.769456	-16.067924	-69.818586	106.529919			
10816	8.251169	-2.399368	3.296637	1.558641	-0.325225	-0.747842	-15.800863	-69.907209	106.425958			
10817	8.404616	-1.926776	3.456414	1.091138	-0.441437	-0.597952	-15.520230	-69.963839	106.322203			
10818	8.525522	-1.160549	3.552641	0.334645	-0.514758	-0.524217	-15.240439	-69.983801	106.224680			
10819	8.678678	-0.443053	3.657520	-0.378313	-0.582946	-0.410016	-14.989214	-69.969192	106.138620			
10820	8.806091	0.303820	3.557463	-1.121916	-0.466649	-0.388324	-14.785256	-69.927208	106.082294			
10821	8.968617	0.747921	3.469732	-1.571790	-0.340034	-0.302253	-14.642773	-69.880445	106.060085			
10822	8.876592	1.026856	3.468753	-1.835079	-0.374184	-0.411994	-14.526704	-69.834411	106.041183			
10823	9.052665	1.067315	3.356581	-1.889240	-0.207162	-0.286702	-14.451146	-69.812180	106.023438			
10824	8.994344	0.700959	3.105386	-1.517438	0.027655	-0.393048	-14.353101	-69.810659	105.961178			
10825	8.906691	0.468239	2.933545	-1.273643	0.170264	-0.511993	-14.246194	-69.828536	105.873186			
10826	8.813453	0.189316	2.864423	-0.980823	0.214588	-0.598044	-14.124162	-69.856779	105.742875			
10827	8.690390	-0.014381	2.839315	-0.758924	0.204840	-0.704073	-13.988283	-69.875973	105.576491			
10828	8.632699	-0.203897	2.700661	-0.558342	0.325185	-0.788213	-13.842894	-69.880506	105.367533			
10829	8.649879	-0.179564	2.648911	-0.576415	0.382210	-0.790990	-13.684842	-69.869584	105.119603			
10830	8.685693	-0.255215	2.468998	-0.497715	0.572480	-0.811194	-13.537468	-69.845367	104.849152			
10831	8.826339	-0.269974	2.451403	-0.488050	0.644284	-0.683984	-13.409058	-69.808779	104.574039			
10832	8.885894	-0.332798	2.253086	-0.425510	0.861556	-0.690027	-13.334498	-69.771191	104.323271			
10833	8.964273	-0.380704	1.998703	-0.380581	1.135969	-0.698815	-13.313209	-69.742527	104.105553			
10834	8.994438	-0.372433	1.840919	-0.388842	1.299170	-0.724863	-13.376698	-69.723698	103.949627			
10835	9.045773	-0.209490	1.757322	-0.556197	1.394230	-0.718467	-13.521833	-69.709535	103.861653			
10836	9.041467	-0.042884	1.876918	-0.727968	1.279883	-0.696507	-13.740365	-69.686184	103.834688			
10837	9.056483	0.223101	2.213748	-1.008732	0.969097	-0.592403	-14.016984	-69.641803	103.864403			
10838	9.078928	0.311676	2.558778	-1.120194	0.659238	-0.464855	-14.348622	-69.581275	103.949491			
10839	9.094563	0.228437	2.630764	-1.059511	0.606989	-0.421568	-14.713294	-69.514867	104.073969			
10840	9.069339	0.054527	2.735529	-0.907900	0.508637	-0.396957	-15.093773	-69.461441	104.221785			
10841	9.075405	-0.163182	2.808385	-0.714070	0.445282	-0.348628	-15.446699	-69.448701	104.364435			
10842	9.251331	-0.468024	2.767975	-0.440517	0.537836	-0.169840	-15.731775	-69.482772	104.453846			
10843	9.370458	-0.789460	2.691783	-0.137320	0.636498	-0.053056	-15.909612	-69.559565	104.455729			
10844	9.658792	-1.052759	2.429067	0.109804	0.962323	0.155401	-15.959730	-69.662110	104.341445			
10845	9.875322	-1.183614	2.170508	0.241045	1.259319	0.286323	-15.883988	-69.765989	104.093784			
10846	10.101280	-1.145250	1.928067	0.210632	1.548381	0.415851	-15.730990	-69.855347	103.744936			
10847	10.277310	-0.745240	1.875143	-0.179206	1.653449	0.527941	-15.517148	-69.923680	103.331935			
10848	10.435371	-0.140404	1.730677	-0.764568	1.852025	0.574677	-15.301715	-69.954820	102.902245			
10849	10.494686	0.487420	1.559605	-1.363858	2.051918	0.518715	-15.122490	-69.976623	102.496053			
10850	10.529874	1.334260	1.927083	-2.212315	1.743955	0.600592	-15.002151	-70.051178	102.155998			
10851	10.751500	1.614934	2.207786	-2.508186	1.552276	0.882007	-14.932757	-70.212003	101.868886			
10852	10.995528	1.228612	2.409638	-2.135833	1.400860	1.218774	-14.866076	-70.450581	101.574344			
10853	11.394536	0.460773	2.872013	-1.408292	1.015954	1.818325	-14.765373	-70.776772	101.224880			
10854	11.946222	-0.448138	3.147381	-0.529037	0.827906	2.510188	-14.505732	-71.123821	100.755705			
10855	11.964918	-1.328384	3.824746	0.336227	0.084645	2.813947	-13.999089	-71.410041	100.142298			
10856	11.741959	-2.100216	4.575604	1.114047	-0.790280	2.889853	-13.241476	-71.656994	99.391981			
10857	11.927281	-2.885367	5.168050	1.911910	-1.382645	3.291751	-12.256859	-71.897615	98.485230			
10858	12.407124	-3.534827	5.357173	2.611310	-1.487418	3.829114	-11.016746	-72.087286	97.335570			
10859	12.483547	-3.773493	5.093119	2.967444	-1.243881	3.813173	-9.551267	-72.157551	95.934100			
10860	11.573059	-2.741785	4.749999	2.094267	-1.133159	2.770821	-8.050349	-72.122546	94.448568			
10861	10.494654	-0.729171	4.794703	0.199654	-1.379032	1.664092	-6.672282	-72.083389	93.040384			
10862	9.464577	1.270729	5.186720	-1.733049	-1.940516	0.738408	-5.505641	-72.061347	91.796389			
10863	8.687724	2.809134	5.119822	-3.204143	-2.010037	-0.051879	-4.586447	-72.021093	90.764685			
10864	7.712296	3.688877	4.868877	-4.028367	-1.996893	-1.061810	-3.959465	-71.950257	89.969581			
10865	6.523116	3.648640	4.764655	-3.969220	-2.242452	-2.211228	-3.668170	-71.877974	89.419620			
10866	5.857366	2.602517	4.463583	-2.910369	-2.213652	-2.910887	-3.610913	-71.840959	89.040619			
10867	5.805716	1.128942	4.281723	-1.438980	-2.154297	-2.986099	-3.622500	-71.819426	88.717197			
10868	6.231214	-0.230117	4.253275	-0.090271	-2.098108	-2.562784	-3.574200	-71.776363	88.376215			
10869	6.871049	-1.382268	4.270158	1.055782	-2.010090	-1.925921	-3.433331	-71.715543	87.990152			
10870	7.602805	-2.243129	4.248369	1.924396	-1.836643	-1.221625	-3.189024	-71.658349	87.557818			
10871	8.333122	-2.826727	4.225598	2.526675	-1.640574	-0.527678	-2.844313	-71.613190	87.075583			
10872	8.803604	-3.232911	4.100167	2.968213	-1.413494	-0.119482	-2.401694	-71.568775	86.553376			
10873	8.928368	-3.308275	4.052376	3.073475	-1.335059	-0.022207	-1.925198	-71.530654	86.048430			
10874	8.843829	-3.172587	3.664643	2.999525	-0.982007	-0.234238	-1.465188	-71.524866	85.603405			
10875	9.030666	-2.665398	3.621426	2.526294	-0.837079	-0.081855	-1.067846	-71.588626	85.265178			
10876	9.188227	-1.934779	3.480489	1.835403	-0.594265	0.013746	-0.770956	-71.686230	85.076509			
10877	9.476444	-1.170211	3.578986	1.084720	-0.536940	0.312359	-0.620645	-71.782860	85.057000			
10878	9.650780	-0.568657	3.463841	0.505824	-0.331397	0.438820	-0.593782	-71.877859	85.185800			
10879	9.866292	-0.052676	3.558488	-0.013523	-0.321473	0.670909	-0.699743	-71.966582	85.459154			
10880	9.775832	-0.018803	3.480593	-0.051384	-0.286090	0.560223	-0.897744	-72.032788	85.806148			
10881	9.363699	-0.046622	3.519409	-0.047274	-0.459443	0.180007	-1.118374	-72.056869	86.187224			
10882	9.166179	-0.050411	3.397023	-0.047787	-0.407855	-0.045778	-1.326717	-72.078732	86.541677			
10883	9.029258	-0.264897	3.329173	0.159413	-0.404118	-0.195394	-1.518193	-72.076786	86.868679			
10884	8.970474	-0.351402	3.228253	0.244851	-0.330130	-0.281393	-1.669165	-72.051207	87.159186			
10885	9.026312	-0.562849	3.110882	0.459703	-0.211688	-0.262161	-1.777269	-72.016166	87.397161			
10886	9.204428	-0.745028	3.062451	0.644752	-0.116639	-0.105688	-1.802074	-71.975971	87.569333			
10887	9.319994	-0.898853	3.030964	0.802308	-0.053359	-0.003997	-1.781791	-71.935310	87.699098			
10888	9.278878	-1.143658	2.987594	1.051963	-0.032196	-0.054431	-1.706947	-71.888432	87.786468			
10889	9.152206	-1.324677	2.881088	1.241891	0.028551	-0.206689	-1.648538	-71.840691	87.903103			
10890	8.977854	-1.460221	2.737014	1.387177	0.114542	-0.416520	-1.600341	-71.787443	88.044349			
10891	8.813575	-1.469954	2.656981	1.401680	0.151920	-0.597938	-1.572376	-71.734954	88.229531			
10892	8.692640	-1.340285	2.510646	1.279558	0.273828	-0.760095	-1.570674	-71.680349	88.464148			
10893	8.650278	-1.219194	2.383194	1.163584	0.401611	-0.841727	-1.578442	-71.625464	88.728170			
10894	8.656532	-0.880994	2.227824	0.831302	0.580171	-0.888158	-1.568365	-71.573650	89.007886			
10895	8.680322	-0.523849	2.102400	0.477741	0.732818	-0.908912	-1.539569	-71.530034	89.285953			
10896	8.772653	-0.302637	1.933318	0.261245	0.939852	-0.877523	-1.482195	-71.481139	89.555935			
10897	8.760349	-0.087801	1.905313	0.045613	0.977818	-0.900705	-1.389832	-71.433319	89.804412			
10898	8.774345	-0.068856	1.857995	0.027949	1.034909	-0.903468	-1.248397	-71.389423	90.006528			
10899	8.796910	-0.130573	1.839476	0.092250	1.065621	-0.888434	-1.048171	-71.345408	90.161500			
10900	8.769128	-0.220197	1.829245	0.187736	1.072205	-0.918456	-0.760297	-71.309381	90.238819			
10901	8.738035	-0.332491	1.765602	0.310629	1.127846	-0.968898	-0.369380	-71.285609	90.225612			
10902	8.610560	-0.474756	1.770431	0.468301	1.086277	-1.089028	0.137721	-71.286566	90.095984			
10903	8.447291	-0.635410	2.025485	0.651376	0.794066	-1.163516	0.739628	-71.315311	89.853294			
10904	8.264485	-0.752039	2.284121	0.798419	0.489979	-1.256587	1.444610	-71.360426	89.492708			
10905	8.001447	-0.590580	2.491191	0.672977	0.203437	-1.441094	2.232384	-71.416045	89.043496			
10906	7.996198	-0.321127	2.698949	0.445525	-0.008164	-1.378949	3.061593	-71.493042	88.530771			
10907	8.273117	-0.010006	2.880376	0.180612	-0.114023	-1.055099	3.859102	-71.607847	88.027008			
10908	8.754748	0.359661	3.190518	-0.135712	-0.286386	-0.493149	4.547186	-71.721754	87.591008			
10909	9.131335	0.523260	3.115757	-0.265622	-0.121406	-0.154653	5.076053	-71.808559	87.273754			
10910	9.268604	0.727734	2.789247	-0.458048	0.207939	-0.119214	5.484143	-71.883767	87.061982			
10911	9.535516	0.699660	2.350376	-0.429963	0.691296	-0.000601	5.779591	-71.987271	86.948879			
10912	9.947585	0.397796	1.972949	-0.130680	1.169820	0.267968	5.991656	-72.099211	86.905245			
10913	10.349355	-0.312559	1.770952	0.579892	1.502892	0.567493	6.149173	-72.153907	86.927777			
10914	10.668244	-0.868044	1.510904	1.127859	1.875988	0.772980	6.299144	-72.113555	86.999959			
10915	10.937643	-1.500869	1.598252	1.770429	1.925836	1.031470	6.443488	-72.029207	87.105837			
10916	11.215125	-2.114348	2.115826	2.421548	1.578446	1.428789	6.587780	-71.961453	87.255481			
10917	11.563931	-2.078573	2.523169	2.419394	1.318509	1.884295	6.680232	-71.942161	87.480143			
10918	12.060494	-1.282540	2.927701	1.656737	1.046217	2.509345	6.604925	-71.962157	87.860716			
10919	12.513391	-0.128851	3.753917	0.558611	0.323825	3.236316	6.235817	-71.962067	88.488673			
10920	12.567548	0.690142	4.516761	-0.230355	-0.440129	3.550460	5.562087	-71.931345	89.341665			
10921	12.779071	1.208768	5.459563	-0.722968	-1.303357	4.056371	4.604101	-71.903606	90.402063			
10922	13.380880	2.075738	5.640373	-1.650816	-1.353018	4.699857	3.438774	-71.846886	91.648087			
10923	13.894382	3.104092	5.290736	-2.809387	-0.942690	5.083580	2.070107	-71.773808	93.108053			
10924	13.660016	3.239847	5.504905	-3.038582	-1.228358	4.906465	0.500069	-71.725921	94.711210			
10925	12.289371	1.583095	5.233162	-1.495086	-1.249589	3.496070	-1.049830	-71.653929	96.292588			
10926	10.203268	-0.234782	4.712631	0.248187	-1.236120	1.357836	-2.331960	-71.559093	97.695204			
10927	8.916080	-2.166527	4.917991	2.180604	-1.637537	0.234212	-3.307458	-71.488986	98.857825			
10928	8.087515	-3.439455	5.361917	3.493139	-2.169105	-0.374427	-3.907619	-71.422570	99.791116			
10929	7.606198	-3.893450	5.465773	3.969200	-2.337550	-0.775593	-4.261501	-71.345544	100.534481			
10930	7.072932	-3.878446	5.124288	3.953405	-2.142795	-1.380259	-4.399042	-71.221094	101.111380			
10931	6.255457	-2.942928	4.886802	3.062208	-2.244175	-2.245735	-4.341072	-71.068140	101.525391			
10932	5.910834	-1.426824	5.014907	1.616187	-2.631012	-2.560883	-4.192100	-70.920560	101.836630			
10933	6.073596	0.312783	5.168366	-0.075898	-2.932270	-2.390132	-4.028426	-70.727666	102.095766			
10934	6.638211	1.872538	5.177403	-1.636907	-2.958749	-1.878962	-3.909128	-70.481517	102.346072			
10935	7.547141	3.280523	5.218721	-3.074098	-2.889627	-1.028831	-3.851728	-70.223191	102.616994			
10936	8.652393	4.382203	5.251850	-4.231248	-2.706634	0.006690	-3.839026	-69.979508	102.883761			
10937	9.481007	5.116655	5.264019	-5.015939	-2.539187	0.778460	-3.871753	-69.754557	103.134855			
10938	9.683802	5.171839	5.135516	-5.108147	-2.340541	0.926314	-3.914742	-69.564594	103.333067			
10939	9.311216	4.504651	5.053391	-4.436868	-2.260698	0.566657	-3.940098	-69.420950	103.461605			
10940	9.027809	3.316652	4.991660	-3.255121	-2.085716	0.310165	-3.950949	-69.345447	103.527390			
10941	8.670315	1.927757	5.118141	-1.837819	-2.079699	0.055607	-3.898128	-69.299603	103.523969			
10942	8.453649	0.701602	5.151665	-0.603080	-1.967798	-0.103921	-3.796986	-69.263065	103.450864			
10943	8.381404	-0.236421	5.028751	0.314869	-1.707617	-0.190991	-3.605749	-69.197576	103.281211			
10944	8.435528	-0.776154	4.970278	0.843909	-1.526447	-0.147185	-3.326671	-69.110551	103.016153			
10945	8.482568	-1.045789	4.957951	1.118612	-1.431506	-0.100410	-2.967475	-68.997240	102.676313			
10946	8.421201	-0.906469	5.009363	1.010827	-1.496985	-0.139571	-2.587241	-68.836897	102.312817			
10947	8.386114	-0.650265	4.890182	0.757062	-1.409826	-0.215670	-2.258516	-68.638750	101.994630			
10948	8.347756	-0.313510	4.922280	0.442685	-1.473775	-0.239598	-2.021467	-68.425538	101.764564			
10949	8.399087	0.057376	4.832589	0.062898	-1.398905	-0.224108	-1.894119	-68.205238	101.640208			
10950	8.394672	0.458616	4.781756	-0.343149	-1.385948	-0.246742	-1.878404	-67.985098	101.617063			
10951	8.266803	0.719580	4.551170	-0.634650	-1.232822	-0.450623	-1.934748	-67.783270	101.664105			
10952	8.234442	0.971697	4.549562	-0.891552	-1.258951	-0.481617	-2.034887	-67.627542	101.745754			
10953	8.259784	1.162200	4.683687	-1.072294	-1.381967	-0.407797	-2.143882	-67.490455	101.822647			
10954	8.207105	1.226417	4.666603	-1.146031	-1.375331	-0.462132	-2.243270	-67.347423	101.859533			
10955	8.101884	1.386617	4.559409	-1.323761	-1.320340	-0.600970	-2.317599	-67.190734	101.839932			
10956	8.150071	1.576878	4.449657	-1.542650	-1.208522	-0.600234	-2.367742	-67.043817	101.757282			
10957	8.229456	1.818337	4.401582	-1.804383	-1.148414	-0.548266	-2.401040	-66.908225	101.617924			
10958	8.498483	1.835902	4.286260	-1.869020	-0.918221	-0.345356	-2.433881	-66.803662	101.429906			
10959	8.854172	1.680415	4.230349	-1.758626	-0.682582	-0.037347	-2.435549	-66.719813	101.185957			
10960	9.097166	1.600747	4.247590	-1.700904	-0.570693	0.194512	-2.413177	-66.649632	100.888683			
10961	9.264104	1.353857	4.165425	-1.483032	-0.374430	0.319820	-2.386541	-66.593356	100.558887			
10962	9.258058	1.148190	4.095305	-1.288675	-0.265851	0.290289	-2.330935	-66.543748	100.178910			
10963	9.208328	1.034853	4.107211	-1.170869	-0.263606	0.251753	-2.276707	-66.493984	99.775728			
10964	9.121720	0.931477	4.051134	-1.068671	-0.217169	0.152044	-2.234021	-66.451082	99.353987			
10965	9.099224	0.954470	3.942638	-1.101911	-0.115411	0.088007	-2.207642	-66.414662	98.918648			
10966	9.118584	1.001695	3.985589	-1.146266	-0.137297	0.122305	-2.197422	-66.371916	98.466614			
10967	9.164729	1.061732	4.045314	-1.205733	-0.161947	0.187515	-2.218239	-66.313096	98.010330			
10968	9.127267	1.123165	4.011838	-1.273052	-0.132251	0.138451	-2.273496	-66.251187	97.561599			
10969	9.025039	1.211789	3.949482	-1.368694	-0.103857	0.017573	-2.376866	-66.201291	97.127617			
10970	8.946499	1.262209	3.921373	-1.427258	-0.094123	-0.067729	-2.517269	-66.159569	96.697774			
10971	8.803733	1.148539	3.852158	-1.323577	-0.060318	-0.225798	-2.685709	-66.121598	96.269349			
10972	8.714227	1.092676	3.826749	-1.278814	-0.051456	-0.318603	-2.885940	-66.088847	95.840190			
10973	8.637450	0.925649	3.886380	-1.121499	-0.110683	-0.363017	-3.097565	-66.059385	95.397651			
10974	8.631844	0.830029	3.900851	-1.041114	-0.107471	-0.361824	-3.312617	-66.043997	94.939490			
10975	8.647929	0.697012	3.909891	-0.924644	-0.092435	-0.341879	-3.538468	-66.034120	94.464542			
10976	8.512423	0.797324	3.971135	-1.037365	-0.193317	-0.445006	-3.776997	-66.025636	93.971835			
10977	8.391729	0.858882	3.807454	-1.113344	-0.078684	-0.625211	-4.038904	-66.011802	93.459195			
10978	8.289686	1.020028	3.753207	-1.289766	-0.053654	-0.747398	-4.324939	-66.010317	92.934493			
10979	8.357051	1.019201	3.815455	-1.313144	-0.066585	-0.663484	-4.665176	-66.021188	92.420797			
10980	8.373552	1.013702	3.779166	-1.330636	-0.009334	-0.666361	-5.056662	-66.017847	91.931760			
10981	8.487428	0.871701	3.914275	-1.227865	-0.074777	-0.506535	-5.552364	-66.023128	91.500887			
10982	8.716407	0.376328	4.033162	-0.782036	-0.105970	-0.233501	-6.120958	-66.013755	91.107505			
10983	8.993387	-0.434014	4.060552	-0.022299	-0.073958	0.064121	-6.748483	-65.999778	90.753400			
10984	9.263808	-1.075021	4.262860	0.544163	-0.210903	0.424743	-7.404561	-65.988301	90.432207			
10985	9.421854	-1.668350	4.411326	1.061388	-0.357825	0.663937	-8.067799	-65.978446	90.118650			
10986	9.287414	-2.109330	4.543979	1.424933	-0.605794	0.625482	-8.679240	-65.964885	89.789787			
10987	9.065310	-2.173557	4.906766	1.376406	-1.048880	0.578926	-9.234970	-65.925120	89.440914			
10988	8.887989	-2.121841	5.048228	1.245363	-1.248764	0.476753	-9.724142	-65.844795	89.044100			
10989	8.927380	-2.025828	5.169891	1.076950	-1.325425	0.560985	-10.141126	-65.745398	88.592710			
10990	9.074888	-1.842209	5.309603	0.823748	-1.349694	0.743771	-10.477547	-65.635265	88.078916			
10991	9.336518	-1.500009	5.254774	0.464280	-1.113194	0.938051	-10.751475	-65.527485	87.510473			
10992	9.573627	-1.068225	5.128886	0.043580	-0.793931	1.071640	-10.991706	-65.413700	86.925907			
10993	9.594966	-0.420422	4.967943	-0.572356	-0.470623	0.974870	-11.212562	-65.298239	86.336511			
10994	9.691154	0.211345	4.883257	-1.181546	-0.171921	0.975434	-11.462756	-65.200641	85.754946			
10995	9.668563	0.668086	4.734389	-1.603523	0.103560	0.853132	-11.752772	-65.102811	85.198677			
10996	9.362201	0.919777	4.573541	-1.831166	0.226405	0.483401	-12.080610	-65.003434	84.651029			
10997	8.962772	0.963480	4.593637	-1.916484	0.100571	0.120984	-12.452547	-64.912593	84.118002			
10998	8.610977	0.718489	4.582244	-1.721245	-0.064631	-0.184862	-12.852852	-64.829434	83.586953			
10999	8.362312	0.266714	4.478555	-1.300779	-0.180147	-0.414167	-13.250897	-64.746671	83.026862			
11000	8.303054	-0.228030	4.439850	-0.854227	-0.298862	-0.437945	-13.620076	-64.665760	82.423343			
11001	8.378269	-0.777997	4.482514	-0.379168	-0.463315	-0.297695	-13.940777	-64.593470	81.761839			
11002	8.392531	-1.250746	4.526616	0.016407	-0.644027	-0.217163	-14.213680	-64.525342	81.044984			
11003	8.394404	-1.552588	4.500377	0.276357	-0.721742	-0.193301	-14.470891	-64.462379	80.295540			
11004	8.418169	-1.666001	4.472695	0.363928	-0.725731	-0.169715	-14.721361	-64.410932	79.531798			
11005	8.385883	-1.474956	4.381066	0.197198	-0.581142	-0.256768	-14.981697	-64.356910	78.771079			
11006	8.357067	-1.246294	4.274634	0.007161	-0.402421	-0.352019	-15.271117	-64.310711	78.024946			
11007	8.475026	-0.986648	4.237071	-0.223389	-0.196442	-0.290936	-15.597383	-64.268157	77.304191			
11008	8.654469	-0.870692	4.163665	-0.300060	0.005487	-0.174020	-15.947244	-64.234417	76.587484			
11009	8.883073	-0.970716	4.145066	-0.204160	0.086276	0.035341	-16.313988	-64.205338	75.870092			
11010	9.068938	-1.191195	4.215314	-0.051258	0.017899	0.258581	-16.668544	-64.185845	75.127927			
11011	9.087566	-1.464374	4.219799	0.158292	-0.104445	0.311488	-16.990611	-64.172768	74.355496			
11012	9.000189	-1.639544	4.120701	0.323410	-0.153971	0.214443	-17.269503	-64.177155	73.533105			
11013	8.851954	-1.829242	3.985915	0.512515	-0.220366	0.050347	-17.514799	-64.199029	72.676537			
11014	8.616901	-1.752825	3.862360	0.464252	-0.195872	-0.221688	-17.720282	-64.241278	71.786725			
11015	8.358580	-1.619739	3.672999	0.407114	-0.103758	-0.549654	-17.899646	-64.302702	70.873917			
11016	8.215210	-1.296721	3.695736	0.096302	-0.005460	-0.712122	-18.067516	-64.389195	69.942196			
11017	8.157387	-1.138885	3.527503	0.047458	0.171185	-0.854354	-18.208175	-64.474785	68.966812			
11018	8.150897	-0.889755	3.315535	-0.027858	0.455068	-0.980151	-18.290527	-64.557867	67.934098			
11019	8.237666	-0.772787	3.297916	-0.092351	0.564227	-0.924172	-18.327236	-64.649343	66.847738			
11020	8.495148	-0.760883	3.235181	-0.013315	0.702163	-0.717653	-18.321203	-64.752280	65.715850			
11021	8.723759	-0.868016	3.180367	0.150693	0.740175	-0.517444	-18.285732	-64.857865	64.549039			
11022	8.938529	-1.168664	3.130268	0.452508	0.632056	-0.301781	-18.237312	-64.961811	63.371882			
11023	9.092521	-1.416164	3.149752	0.653374	0.482351	-0.120383	-18.200577	-65.064775	62.214504			
11024	9.213941	-1.596299	3.134047	0.816467	0.381091	0.008473	-18.201524	-65.177970	61.103023			
11025	9.308935	-1.882723	3.157745	1.013241	0.165438	0.143122	-18.236734	-65.287390	60.039091			
11026	9.408261	-2.129626	3.163961	1.186712	-0.016091	0.269607	-18.291132	-65.397904	59.018785			
11027	9.487863	-2.423018	3.142558	1.398612	-0.228846	0.373459	-18.355258	-65.511943	58.041446			
11028	9.499645	-2.689427	3.103976	1.582363	-0.443334	0.405449	-18.415109	-65.633230	57.100497			
11029	9.471992	-3.005011	3.248494	1.645993	-0.815521	0.479389	-18.466428	-65.759667	56.198238			
11030	9.393694	-3.413332	3.375764	1.757582	-1.269577	0.511406	-18.498837	-65.887817	55.329826			
11031	9.239288	-3.683123	3.385708	1.844229	-1.581507	0.409359	-18.513307	-66.012552	54.494912			
11032	8.923306	-3.701603	3.469659	1.679249	-1.788067	0.154682	-18.507623	-66.145316	53.693278			
11033	8.632771	-3.666082	3.595902	1.453431	-1.958625	-0.068638	-18.495190	-66.275388	52.934400			
11034	8.340157	-3.528184	3.667362	1.209204	-2.011898	-0.328715	-18.492778	-66.397209	52.223276			
11035	8.214835	-3.273714	3.739355	0.941894	-1.908643	-0.450355	-18.484379	-66.504292	51.552294			
