// General information: 
//  MT Manager version: 2022.0.0 
//  XDA version: 2022.0.0 build 7085 rev 119802 built on 2022-11-08
// Device information: 
//  DeviceId: 00B4938D
//  ProductCode: MTW2-3A7G6
//  Firmware Version: 4.6.0
//  Hardware Version: 2.0.0
// Device settings: 
//  Filter Profile: human(46.1)
//  Option Flags: Orientation Smoother Disabled, Position/Velocity Smoother Disabled, Continuous Zero Rotation Update Disabled, AHS Disabled, ICC Disabled
// Coordinate system: ENU
PacketCounter	Acc_X	Acc_Y	Acc_Z	FreeAcc_E	FreeAcc_N	FreeAcc_U	Roll	Pitch	Yaw	Vel_E	Vel_N	Vel_U
38738	9.791203	-2.068632	2.168786	0.162585	0.136427	0.424768	-44.920672	-71.850414	20.879370			
38739	9.589204	-2.030481	2.041281	0.239240	0.090432	0.196163	-44.762206	-71.800355	20.785733			
38740	9.257052	-2.089543	2.217752	-0.023693	0.069439	-0.067317	-44.588772	-71.742978	20.682591			
38741	8.940946	-1.876625	1.853479	0.294921	0.070872	-0.495735	-44.493301	-71.690417	20.623400			
38742	8.705755	-1.838393	1.728408	0.356959	0.027855	-0.755698	-44.510458	-71.658269	20.652806			
38743	8.887960	-1.767643	1.799009	0.376113	0.145154	-0.582611	-44.615224	-71.658903	20.776018			
38744	9.315054	-1.748621	1.964656	0.358559	0.283518	-0.144242	-44.716274	-71.685134	20.910830			
38745	9.775263	-1.846417	2.010904	0.411430	0.268835	0.324729	-44.771691	-71.705974	21.001999			
38746	10.041613	-2.006661	2.020766	0.418919	0.159053	0.615322	-44.759991	-71.707129	21.020074			
38747	10.071807	-2.202696	1.855899	0.503059	-0.084150	0.650456	-44.703617	-71.689642	20.990858			
38748	10.059804	-2.344044	1.717654	0.574471	-0.271912	0.639134	-44.637602	-71.659588	20.948015			
38749	9.950453	-2.452168	1.787384	0.448664	-0.354319	0.574446	-44.563772	-71.620233	20.900134			
38750	9.799453	-2.409856	1.728477	0.479294	-0.357850	0.408199	-44.519733	-71.582775	20.889783			
38751	9.601343	-2.316913	1.844962	0.358796	-0.246986	0.225640	-44.513010	-71.551413	20.924000			
38752	9.507574	-2.234778	1.861429	0.349981	-0.174142	0.122115	-44.545641	-71.538380	21.010048			
38753	9.530500	-2.230901	1.884151	0.338335	-0.154933	0.148181	-44.631864	-71.538907	21.158892			
38754	9.516249	-2.178626	1.949778	0.292221	-0.076554	0.137980	-44.763417	-71.548004	21.354262			
38755	9.401248	-2.246749	2.124617	0.076757	-0.073025	0.083479	-44.885660	-71.539518	21.553715			
38756	9.228817	-2.224049	2.131448	0.027689	-0.062447	-0.083563	-45.013561	-71.521291	21.762630			
38757	9.088157	-2.254618	2.247141	-0.126252	-0.051688	-0.184140	-45.151336	-71.498268	21.993274			
38758	8.997524	-2.136093	2.243843	-0.107134	0.051439	-0.297487	-45.287794	-71.479971	22.236429			
38759	8.950818	-2.033065	2.203242	-0.047574	0.129380	-0.374162	-45.386485	-71.461450	22.451993			
38760	9.014692	-1.955113	2.113259	0.079969	0.176702	-0.351431	-45.442046	-71.437201	22.621146			
38761	9.146486	-1.893266	2.113067	0.144648	0.251590	-0.240672	-45.415747	-71.403533	22.709735			
38762	9.302511	-1.945375	2.053566	0.230951	0.199587	-0.094397	-45.330886	-71.368569	22.745634			
38763	9.377601	-1.928963	2.080440	0.243539	0.231514	-0.021079	-45.175686	-71.322760	22.713867			
38764	9.355426	-1.941657	2.090944	0.233235	0.215992	-0.036952	-44.980515	-71.280498	22.637420			
38765	9.279125	-2.014811	2.323820	-0.011816	0.224345	-0.039700	-44.772292	-71.244387	22.548866			
38766	9.183259	-2.001475	2.300138	-0.006664	0.207044	-0.138709	-44.576429	-71.225745	22.468685			
38767	9.109980	-1.888668	2.220531	0.086582	0.261841	-0.251647	-44.418871	-71.217691	22.404904			
38768	9.087406	-1.799971	2.046785	0.267303	0.265748	-0.332809	-44.294604	-71.226272	22.368256			
38769	9.203311	-1.697323	1.929186	0.441315	0.321736	-0.273017	-44.182603	-71.248687	22.348339			
38770	9.446411	-1.561404	1.799333	0.673515	0.418796	-0.102834	-44.050360	-71.274299	22.305791			
38771	9.607518	-1.486332	1.846055	0.704595	0.516687	0.044192	-43.866001	-71.287724	22.210972			
38772	9.626403	-1.513734	2.070193	0.503605	0.569092	0.120451	-43.609429	-71.283455	22.040800			
38773	9.695727	-1.614667	2.348981	0.249500	0.577383	0.273756	-43.274271	-71.256691	21.767254			
38774	9.396964	-1.736905	2.403132	0.084131	0.434242	0.031048	-42.891976	-71.210363	21.406557			
38775	9.077638	-2.078290	2.328872	-0.043605	0.038814	-0.213573	-42.515389	-71.163223	21.007644			
38776	8.786536	-2.238472	2.065392	0.063391	-0.257361	-0.517015	-42.182626	-71.130639	20.619536			
38777	8.474445	-2.417047	1.974516	-0.000528	-0.505933	-0.795977	-41.865213	-71.117406	20.242747			
38778	8.159722	-2.559226	2.118271	-0.267552	-0.630997	-1.029293	-41.569829	-71.134638	19.924783			
38779	8.058007	-2.590568	2.562181	-0.703702	-0.518337	-1.012495	-41.204968	-71.179962	19.607741			
38780	8.225194	-2.744249	3.215539	-1.287751	-0.417960	-0.664391	-40.671788	-71.251625	19.219298			
38781	8.601876	-2.865725	3.647910	-1.597713	-0.368109	-0.178193	-39.830127	-71.321166	18.607626			
38782	9.038354	-3.084956	3.932623	-1.780606	-0.481604	0.349563	-38.608382	-71.350214	17.654995			
38783	9.274030	-3.208410	3.856426	-1.654122	-0.682133	0.578240	-37.092105	-71.312875	16.427921			
38784	9.494955	-3.294747	3.476538	-1.235848	-0.968699	0.705361	-35.538784	-71.234170	15.133183			
38785	9.632590	-3.113032	3.122508	-0.777322	-0.998067	0.705242	-34.177189	-71.145854	14.042519			
38786	9.800776	-2.185643	2.943502	-0.239515	-0.251705	0.645582	-33.140356	-71.085880	13.319164			
38787	10.248143	-1.139197	3.332966	-0.106441	0.843021	0.990492	-32.373306	-71.082331	12.934161			
38788	10.995123	-0.102264	4.307574	-0.432804	2.155268	1.790143	-31.679266	-71.108544	12.697119			
38789	11.617929	0.471213	5.191216	-0.867987	2.978961	2.537174	-30.837193	-71.076231	12.327445			
38790	11.592865	0.908418	4.962154	-0.533035	3.253958	2.392639	-29.936350	-70.950252	11.790869			
38791	11.592787	1.412681	4.533779	0.029524	3.541040	2.204108	-29.152035	-70.759607	11.181104			
38792	11.752489	1.723658	4.537368	0.210540	3.805537	2.317974	-28.491914	-70.561506	10.577134			
38793	11.909290	1.779268	4.877991	0.023587	3.941345	2.567000	-27.942476	-70.346594	9.986128			
38794	11.626571	1.643164	4.842808	-0.014294	3.758132	2.320150	-27.495264	-70.106926	9.382925			
38795	11.216243	1.252783	4.257111	0.332025	3.157655	1.824112	-27.119149	-69.854479	8.759906			
38796	10.683616	0.734629	3.883429	0.406302	2.501432	1.293062	-26.782732	-69.578607	8.112950			
38797	10.087740	0.148946	3.423051	0.509991	1.752779	0.683465	-26.489804	-69.273814	7.478517			
38798	9.501334	-0.190965	3.248128	0.425415	1.335820	0.131979	-26.271432	-68.954273	6.911522			
38799	8.680593	-0.203285	3.144425	0.283167	1.247554	-0.666947	-26.148540	-68.631224	6.463774			
38800	7.843968	-0.018509	3.568151	-0.279799	1.532082	-1.337189	-26.068169	-68.322313	6.103105			
38801	7.343083	0.126440	3.700504	-0.484782	1.696717	-1.780468	-26.013425	-68.042245	5.819580			
38802	6.920610	0.425602	3.726653	-0.528004	1.972707	-2.210488	-25.959365	-67.795357	5.561782			
38803	6.715893	0.555973	3.597735	-0.415279	2.042875	-2.463529	-25.905483	-67.594791	5.334326			
38804	6.511401	0.815558	3.714354	-0.482950	2.320545	-2.654358	-25.853111	-67.444248	5.132622			
38805	6.588152	1.078346	3.837261	-0.453094	2.612428	-2.583507	-25.800531	-67.340177	4.931324			
38806	6.724818	1.333613	3.801801	-0.270191	2.841886	-2.511588	-25.770114	-67.284426	4.751761			
38807	7.049313	1.560729	3.722691	0.009420	3.034130	-2.277366	-25.750921	-67.268160	4.582951			
38808	7.696823	1.500259	3.660871	0.299708	2.975071	-1.691544	-25.772494	-67.290375	4.450577			
38809	8.304561	1.272138	3.735159	0.398586	2.809359	-1.067168	-25.821105	-67.315434	4.339865			
38810	8.612502	0.875064	3.987498	0.174706	2.546621	-0.629809	-25.892710	-67.295041	4.229981			
38811	8.586516	0.657535	3.978536	0.116306	2.346204	-0.621871	-25.996856	-67.208381	4.099356			
38812	8.394783	0.479998	3.541180	0.382143	2.021026	-0.923814	-26.203946	-67.088887	4.014189			
38813	8.167073	0.456129	3.367656	0.460178	1.939493	-1.194290	-26.476339	-66.979930	3.980502			
38814	8.126138	0.339722	3.484683	0.324509	1.893739	-1.175504	-26.815190	-66.915599	4.045970			
38815	8.131927	0.331180	3.567903	0.265348	1.938792	-1.144441	-27.190432	-66.894462	4.198902			
38816	8.032881	0.160711	3.555086	0.180503	1.797171	-1.214479	-27.601720	-66.917374	4.444723			
38817	7.915973	0.082642	3.608676	0.056518	1.767530	-1.294203	-28.051475	-66.979258	4.788886			
38818	7.938540	0.056499	3.535665	0.104183	1.741518	-1.299127	-28.545454	-67.089622	5.220532			
38819	8.096164	-0.066632	3.498857	0.130691	1.646803	-1.148672	-29.057456	-67.237350	5.708984			
38820	8.407227	-0.114922	3.517429	0.188220	1.650536	-0.851263	-29.577484	-67.415378	6.239971			
38821	8.558801	0.019476	3.461236	0.309273	1.784951	-0.759967	-30.090768	-67.594184	6.776806			
38822	8.840474	0.067922	3.601130	0.279806	1.927325	-0.467438	-30.619931	-67.767093	7.334160			
38823	9.165803	0.126232	3.816869	0.205325	2.111601	-0.112419	-31.106700	-67.915322	7.862554			
38824	9.503119	0.015254	3.988918	0.113899	2.123775	0.271828	-31.535346	-68.034141	8.349837			
38825	9.879819	0.026163	4.093722	0.142730	2.218772	0.648033	-31.863002	-68.111232	8.758793			
38826	10.155640	0.097094	4.379248	0.006252	2.432817	0.976455	-32.119139	-68.147835	9.106952			
38827	10.376692	0.203212	4.634869	-0.104362	2.659722	1.237834	-32.301672	-68.136502	9.380350			
38828	10.321254	0.288765	4.990053	-0.399862	2.888599	1.278227	-32.427175	-68.078173	9.563411			
38829	10.087242	0.495530	5.044490	-0.449698	3.092903	1.035197	-32.480834	-67.989154	9.630308			
38830	9.898042	0.813886	5.283277	-0.595929	3.472618	0.870590	-32.471606	-67.885024	9.592859			
38831	9.871566	0.719434	5.936152	-1.179576	3.645882	1.073975	-32.412588	-67.796253	9.490327			
38832	10.246688	0.646056	6.212074	-1.284166	3.712369	1.526231	-32.353898	-67.741486	9.356191			
38833	10.788827	0.357101	6.672294	-1.561163	3.665695	2.236016	-32.301097	-67.708544	9.157635			
38834	11.948360	-0.495843	6.585892	-1.341301	2.926775	3.454491	-32.329229	-67.715071	8.962247			
38835	13.828925	-1.200870	5.604426	-0.035855	2.001958	5.022463	-32.373289	-67.686776	8.729391			
38836	14.723394	-1.501914	4.632190	1.051990	1.393202	5.596509	-32.556158	-67.531649	8.566528			
38837	14.227852	-1.057879	3.571077	1.989741	1.354839	4.696214	-32.968818	-67.245519	8.623144			
38838	12.635646	-0.644021	3.517941	1.657427	1.663054	3.107705	-33.569820	-66.871952	8.881837			
38839	10.371651	-0.485334	3.690841	0.767395	1.797261	1.032096	-34.185049	-66.514930	9.243625			
38840	8.530269	-0.747396	4.525505	-0.705353	1.854792	-0.332907	-34.763120	-66.284942	9.652529			
38841	7.875980	-1.497839	6.072447	-2.524828	1.851742	-0.255210	-35.285386	-66.249021	10.123954			
38842	8.354044	-2.589318	6.675342	-3.265607	1.204241	0.624758	-35.800879	-66.362448	10.652798			
38843	9.331202	-3.096157	6.111421	-2.634689	0.604167	1.443428	-36.307256	-66.546346	11.208784			
38844	10.460210	-3.258198	5.704463	-1.963084	0.399975	2.375779	-36.887866	-66.763539	11.884266			
38845	11.070716	-4.110861	5.125310	-1.614866	-0.531775	2.948102	-37.524074	-66.976379	12.683074			
38846	11.357033	-4.696223	4.546323	-1.283763	-1.244201	3.168430	-38.157804	-67.143710	13.584389			
38847	11.227300	-5.133984	3.491099	-0.629100	-2.062757	2.834324	-38.789883	-67.237656	14.521473			
38848	10.712481	-5.356007	2.183975	0.198032	-2.818064	2.029306	-39.559687	-67.286746	15.611057			
38849	9.452479	-4.518694	1.325244	0.759266	-2.497607	0.420071	-40.440906	-67.327945	16.870556			
38850	8.615930	-4.350935	0.671724	1.063183	-2.646040	-0.566944	-41.540085	-67.416394	18.357827			
38851	8.182550	-3.536147	0.773810	1.079454	-1.852811	-1.125993	-42.700881	-67.564860	19.975479			
38852	7.872413	-2.872469	0.836927	1.105124	-1.202726	-1.550841	-43.905146	-67.757945	21.594158			
38853	7.402611	-2.388272	0.937416	0.971915	-0.733484	-2.073292	-45.048322	-67.965213	23.094568			
38854	7.065649	-2.083345	1.486671	0.427529	-0.244543	-2.313952	-46.130516	-68.181734	24.452016			
38855	7.036883	-1.984294	1.821691	0.106620	0.006325	-2.278630	-47.109720	-68.417993	25.635763			
38856	7.348388	-1.948219	2.201003	-0.164737	0.261913	-1.904288	-47.943171	-68.669109	26.588117			
38857	7.883958	-2.102648	2.422561	-0.288540	0.311470	-1.311735	-48.619431	-68.941974	27.293967			
38858	8.679765	-2.276994	2.420715	-0.142916	0.292167	-0.524155	-49.111529	-69.238769	27.746728			
38859	9.168450	-2.225024	2.365567	0.021818	0.396079	-0.094173	-49.420164	-69.541867	27.968211			
38860	9.473067	-2.409417	1.992212	0.335960	0.124541	0.156493	-49.656123	-69.854916	28.089242			
38861	9.571012	-2.538348	1.537507	0.678899	-0.167726	0.183419	-49.811700	-70.145131	28.164126			
38862	9.541638	-2.749714	1.086773	0.960431	-0.552091	0.114926	-49.960221	-70.366691	28.279910			
38863	9.327349	-2.745116	0.786762	1.137258	-0.704738	-0.150181	-50.114073	-70.495922	28.485746			
38864	9.641109	-3.039969	0.638346	1.248436	-0.975509	0.191794	-50.335361	-70.533406	28.764610			
38865	8.690722	-2.892295	0.672271	0.982201	-0.967782	-0.732786	-50.631994	-70.508054	29.106343			
38866	7.816241	-2.917516	0.878368	0.528574	-1.032224	-1.504131	-51.153749	-70.478780	29.686527			
38867	7.641038	-2.900794	0.870132	0.479869	-1.021666	-1.671249	-51.872204	-70.474397	30.473164			
38868	7.440752	-3.026348	1.101790	0.153855	-1.048129	-1.774334	-52.767574	-70.502662	31.440309			
38869	7.590721	-3.195717	1.151261	0.070620	-1.123856	-1.573219	-53.713671	-70.585450	32.530815			
38870	8.564798	-3.105754	1.164985	0.324761	-0.831632	-0.671496	-54.613626	-70.721725	33.636773			
38871	8.796390	-2.513711	1.265750	0.449879	-0.189325	-0.589944	-55.246180	-70.834652	34.505887			
38872	8.502866	-1.901756	1.427997	0.388192	0.389287	-1.000633	-55.670986	-70.913252	35.146044			
38873	8.216209	-1.494158	1.288196	0.547653	0.663214	-1.406842	-55.864814	-70.968525	35.546256			
38874	7.896730	-1.462573	0.912581	0.805209	0.497924	-1.785610	-55.913420	-70.997748	35.751790			
38875	7.389623	-1.046561	1.219934	0.516442	0.891406	-2.320775	-55.788220	-70.994353	35.736505			
38876	7.044927	-1.131074	1.374073	0.262887	0.801416	-2.595554	-55.611484	-70.959561	35.618689			
38877	6.850674	-1.082684	1.664460	-0.030035	0.909552	-2.738356	-55.359484	-70.895107	35.429366			
38878	7.058407	-0.885419	1.402438	0.336180	1.033799	-2.643996	-55.198190	-70.818330	35.316251			
38879	7.604306	-0.488651	1.226637	0.774169	1.438869	-2.269532	-55.105118	-70.735082	35.267160			
38880	7.831167	-0.308887	1.264596	0.866583	1.665207	-2.099199	-55.035910	-70.625046	35.220474			
38881	8.005541	-0.256775	0.900168	1.277310	1.622806	-2.021675	-54.955138	-70.493364	35.179933			
38882	8.324197	-0.241519	0.783577	1.492314	1.667069	-1.753009	-54.925787	-70.333976	35.186000			
38883	8.334084	-0.326166	0.830865	1.446252	1.621771	-1.717514	-54.872151	-70.149170	35.192810			
38884	8.232504	-0.181280	0.955543	1.367275	1.795943	-1.836151	-54.923433	-69.950624	35.307308			
38885	8.325068	-0.034088	0.966051	1.444744	1.973551	-1.796522	-55.057588	-69.752239	35.508273			
38886	8.898595	-0.149414	1.334613	1.252078	2.140692	-1.161783	-55.264949	-69.545095	35.775859			
38887	9.522745	-0.389974	2.051188	0.725539	2.331668	-0.374525	-55.386544	-69.302484	35.941549			
38888	10.641692	-0.959086	2.767800	0.261925	2.328261	0.973254	-55.310591	-69.011184	35.925501			
38889	10.812077	-0.923837	2.896886	0.255952	2.466565	1.141610	-55.058013	-68.689418	35.706385			
38890	11.400941	-1.250557	2.397462	0.855657	2.137261	1.676121	-54.719626	-68.362014	35.371028			
38891	11.330096	-1.106316	2.001859	1.304923	2.126190	1.473522	-54.307512	-68.048240	34.927291			
38892	11.212254	-0.806451	2.030816	1.393822	2.393501	1.269609	-53.966647	-67.767104	34.522790			
38893	11.164481	-0.619185	1.981957	1.527995	2.544985	1.148395	-53.832848	-67.571263	34.298251			
38894	11.272203	-0.643327	1.936439	1.623973	2.543406	1.238104	-53.974351	-67.475810	34.313806			
38895	11.095389	-1.243598	2.242385	1.119729	2.090281	1.325506	-54.399818	-67.483850	34.585421			
38896	11.728258	-2.073596	2.900506	0.453453	1.743050	2.312520	-55.077038	-67.597242	35.135065			
38897	12.995342	-2.873291	2.936180	0.528371	1.338590	3.740338	-55.720886	-67.748294	35.717833			
38898	14.260117	-3.805153	2.957129	0.570177	0.800323	5.207596	-56.054684	-67.887698	36.059510			
38899	14.842422	-4.409609	2.446237	0.995793	0.184053	5.830223	-55.977244	-68.027894	36.034255			
38900	14.417879	-4.448295	1.804674	1.419601	-0.220817	5.315270	-55.556263	-68.190194	35.676689			
38901	13.385752	-3.835804	1.307333	1.724919	-0.137667	4.065572	-54.974207	-68.427355	35.145764			
38902	12.379560	-3.400623	0.950833	1.844344	-0.160812	2.926768	-54.491094	-68.775056	34.651950			
38903	11.162648	-3.456688	1.044066	1.327129	-0.506368	1.833125	-54.150745	-69.250014	34.259357			
38904	9.832391	-3.981282	1.128987	0.630324	-1.291821	0.757746	-53.955743	-69.811668	33.910476			
38905	8.513932	-4.183368	1.426778	-0.158632	-1.691348	-0.371469	-53.621124	-70.390877	33.335399			
38906	7.964809	-4.809540	1.161009	-0.340530	-2.529373	-0.790317	-53.088030	-70.959839	32.450488			
38907	7.542390	-5.292115	1.096151	-0.623278	-3.140240	-1.103775	-52.233501	-71.502126	31.250199			
38908	7.593124	-5.631213	1.194112	-0.875711	-3.481398	-0.986364	-51.247230	-72.051179	30.026567			
38909	10.180479	-6.292284	1.263076	-0.535703	-3.759999	1.606769	-50.064243	-72.644019	28.791529			
38910	12.184736	-6.830768	1.596531	-0.546896	-3.982010	3.660172	-48.141324	-73.097891	26.939522			
38911	12.183714	-7.179624	2.736877	-1.701091	-4.052903	3.904363	-45.602791	-73.358326	24.578982			
38912	12.633211	-7.075018	2.864379	-1.628034	-4.037174	4.290727	-43.242094	-73.527607	22.615555			
38913	12.116910	-6.077454	2.931479	-1.446930	-3.305875	3.578510	-41.300922	-73.636021	21.267129			
38914	11.244229	-4.474962	3.737868	-1.870796	-1.736642	2.593484	-40.216313	-73.799636	20.806786			
38915	10.969153	-3.202492	3.832342	-1.648564	-0.612324	2.110909	-39.962663	-74.020616	21.077334			
38916	10.436378	-2.131554	3.462451	-1.161865	0.187156	1.325757	-40.175857	-74.232728	21.638191			
38917	9.870229	-1.967329	2.657748	-0.557058	0.014843	0.581770	-40.558615	-74.432702	22.253479			
38918	9.656327	-1.829579	2.032345	-0.031554	-0.077675	0.223013	-40.936049	-74.625081	22.830946			
38919	9.431972	-2.062487	1.752326	0.073525	-0.410503	-0.008983	-41.097222	-74.784516	23.202201			
38920	9.171747	-1.907058	1.665867	0.114712	-0.325871	-0.304083	-40.982229	-74.904321	23.350719			
38921	8.581818	-1.526214	1.907726	-0.149430	0.030486	-0.891194	-40.430027	-74.943124	23.055800			
38922	7.877006	-1.225554	2.274350	-0.566039	0.329222	-1.548730	-39.531148	-74.916364	22.348792			
38923	7.686716	-1.062433	2.821210	-1.054116	0.597042	-1.645326	-38.324811	-74.825648	21.247201			
38924	7.300182	-0.777893	3.361796	-1.538170	0.955680	-1.943771	-36.870439	-74.638666	19.821829			
38925	7.010050	-0.517706	3.533504	-1.648503	1.190837	-2.212792	-35.323979	-74.340291	18.197562			
38926	6.187020	-0.422371	3.332279	-1.585160	1.121853	-3.045858	-33.871650	-73.926692	16.552039			
38927	5.705219	-0.187615	2.959495	-1.240213	1.171240	-3.613249	-32.604504	-73.492604	15.046567			
38928	5.297757	-0.232306	2.720016	-1.086369	1.008725	-4.040280	-31.532740	-73.069067	13.725736			
38929	5.130999	-0.295960	2.504050	-0.903456	0.854241	-4.232468	-30.553585	-72.684614	12.560310			
38930	4.712902	-0.424504	2.258177	-0.794386	0.612374	-4.666349	-29.612016	-72.317041	11.482292			
38931	4.406669	-0.288607	2.383372	-0.923647	0.745969	-4.936954	-28.672290	-71.986130	10.475924			
38932	4.367797	-0.525297	1.849868	-0.490267	0.333319	-5.077282	-27.900307	-71.726665	9.669772			
38933	4.567211	-0.386685	1.769291	-0.293117	0.434262	-4.927528	-27.257001	-71.528230	9.035361			
38934	4.450252	-0.552518	1.745907	-0.341455	0.251592	-5.019118	-26.789343	-71.422069	8.618173			
38935	4.665190	-0.463702	1.739121	-0.238024	0.334306	-4.829201	-26.552299	-71.455684	8.533577			
38936	5.016228	-0.033520	1.907958	-0.167581	0.807918	-4.509563	-26.625203	-71.613166	8.825610			
38937	5.238677	0.329259	2.139728	-0.231492	1.237644	-4.285923	-26.996522	-71.884965	9.452673			
38938	5.514963	0.596708	2.482130	-0.425145	1.620370	-3.971002	-27.656044	-72.253719	10.389699			
38939	6.096402	0.692346	2.888407	-0.652610	1.880858	-3.330062	-28.542279	-72.690877	11.548963			
38940	6.927903	0.861254	3.700388	-1.181320	2.351256	-2.362454	-29.470295	-73.154871	12.749640			
38941	8.089127	0.845801	4.589910	-1.761860	2.684637	-1.043168	-30.228686	-73.615238	13.791904			
38942	9.098534	1.120822	4.806115	-1.705296	3.080312	-0.079178	-30.764769	-74.047486	14.607750			
38943	10.107755	1.091660	4.672744	-1.408173	3.079092	0.851676	-31.088253	-74.415001	15.130147			
38944	11.005951	0.903068	4.498624	-1.127490	2.907391	1.696428	-31.268859	-74.651006	15.343227			
38945	11.657593	0.641194	3.933228	-0.535309	2.540575	2.230558	-31.367929	-74.761726	15.306984			
38946	12.093543	0.401750	3.053818	0.321670	2.094120	2.485775	-31.525686	-74.821078	15.171212			
38947	13.473827	0.103477	2.840198	0.784927	1.843831	3.811028	-31.677594	-74.886269	15.009688			
38948	14.655333	0.114582	3.322469	0.643325	2.078523	5.056628	-31.736019	-74.848715	14.745329			
38949	15.117657	0.372616	2.400030	1.720869	2.081932	5.258693	-31.820800	-74.702283	14.496487			
38950	14.058332	0.738352	2.132361	1.854013	2.286243	4.118007	-31.961364	-74.495044	14.297621			
38951	12.595131	0.637205	3.700399	0.057180	2.588157	3.072739	-31.854178	-74.301281	13.915974			
38952	12.556942	-0.164758	5.834715	-2.094684	2.492422	3.646424	-31.258514	-74.151153	13.112304			
38953	13.970800	-0.624701	7.396670	-3.224012	2.604062	5.455190	-30.106636	-73.987866	11.703392			
38954	16.709155	-0.663011	6.501661	-1.610071	2.364898	7.899487	-28.971065	-73.907135	10.261550			
38955	17.131234	-0.514199	4.414935	0.497587	1.774430	7.789549	-28.319054	-73.892675	9.266486			
38956	16.054393	-2.921655	4.710528	-0.780903	-0.468617	7.147242	-28.269936	-73.782794	8.839426			
38957	15.832428	-7.258128	4.724114	-2.157046	-4.521376	7.524175	-28.508720	-73.375262	8.678669			
38958	15.928436	-8.833690	2.178261	-0.205927	-6.817288	7.215925	-28.787809	-72.709689	8.697186			
38959	13.994493	-8.119145	0.589762	1.063213	-6.737731	4.870071	-29.074971	-71.883537	8.854464			
38960	10.469814	-7.648826	1.210002	-0.259715	-6.187749	1.642786	-29.759240	-71.106913	9.415597			
38961	8.122646	-7.127479	2.404426	-1.794141	-5.338989	-0.281962	-30.655969	-70.610042	10.423599			
38962	7.589076	-6.953801	2.667189	-2.076094	-5.067711	-0.698358	-31.484741	-70.390968	11.530496			
38963	6.987497	-6.251403	2.805372	-2.133835	-4.378941	-1.324651	-31.976672	-70.323801	12.375679			
38964	6.234592	-5.287392	2.947485	-2.193979	-3.474782	-2.155882	-32.352817	-70.387025	13.043247			
38965	6.482552	-3.815629	2.824802	-1.568866	-2.116192	-2.221748	-32.827158	-70.625705	13.823253			
38966	7.435657	-2.729249	2.109351	-0.331923	-1.251663	-1.718855	-33.522937	-70.964831	14.864130			
38967	8.182202	-1.796431	1.662914	0.529618	-0.438207	-1.299869	-34.306105	-71.272876	16.039357			
38968	8.816497	-1.430396	1.343080	1.073806	-0.109705	-0.845236	-35.065757	-71.478970	17.174767			
38969	9.011856	-0.926033	1.466027	1.127669	0.457333	-0.716568	-35.712558	-71.575454	18.138427			
38970	8.806745	-0.703705	1.559513	1.020320	0.709664	-0.927798	-36.364055	-71.591192	18.936952			
38971	8.113113	-0.905721	1.259612	1.019314	0.387401	-1.624870	-37.176621	-71.594613	19.713495			
38972	7.894596	-1.261683	1.183569	0.910283	0.041663	-1.782320	-38.221375	-71.638718	20.599607			
38973	8.320154	-1.955510	1.613099	0.424808	-0.387422	-1.133963	-39.350590	-71.741323	21.525022			
38974	8.573849	-2.254429	1.418508	0.549553	-0.661581	-0.875940	-40.476046	-71.965533	22.453200			
38975	8.106447	-2.020560	1.281052	0.553441	-0.513286	-1.394362	-41.385099	-72.231226	23.161092			
38976	7.189368	-2.225677	1.401210	0.080146	-0.761178	-2.195728	-41.979660	-72.477398	23.567305			
38977	6.591992	-2.411161	1.511319	-0.275558	-0.966440	-2.703389	-42.282538	-72.700624	23.752555			
38978	6.255099	-2.821910	1.086665	-0.125365	-1.534038	-3.037642	-42.442082	-72.901889	23.850149			
38979	5.891352	-3.178183	1.013765	-0.281641	-1.938947	-3.332122	-42.559106	-73.055264	23.951712			
38980	5.218442	-3.445624	0.946379	-0.492553	-2.292603	-3.938894	-42.810318	-73.193958	24.271784			
38981	5.519259	-3.247157	0.687492	-0.131113	-2.154067	-3.744601	-43.289084	-73.366430	24.937815			
38982	7.280632	-2.602369	0.652842	0.523990	-1.339059	-2.187833	-43.914761	-73.549791	25.829777			
38983	8.512637	-1.713342	0.780483	0.951233	-0.296308	-1.151453	-44.398491	-73.632692	26.561656			
38984	8.977997	-1.282825	1.236070	0.758206	0.330041	-0.697091	-44.696186	-73.579907	27.020493			
38985	9.083237	-0.959147	1.152623	0.960051	0.642388	-0.679272	-44.963368	-73.422088	27.412515			
38986	9.089453	-0.919548	0.767903	1.347539	0.587509	-0.763254	-45.317141	-73.210285	27.833869			
38987	9.023546	-0.902453	0.475580	1.631390	0.535266	-0.895464	-45.618384	-72.951035	28.215700			
38988	8.575515	-0.692906	0.879258	1.227171	0.830050	-1.292266	-45.884444	-72.667914	28.590537			
38989	8.302390	-0.388046	1.264070	0.908920	1.228721	-1.545759	-46.107707	-72.397987	28.955010			
38990	8.280203	0.041457	1.694225	0.641621	1.789948	-1.577507	-46.296496	-72.166246	29.274476			
38991	8.573499	0.410627	1.719844	0.809962	2.211007	-1.381393	-46.466416	-72.000316	29.554276			
38992	8.887204	0.775444	1.914406	0.821642	2.678909	-1.129545	-46.549378	-71.864469	29.695525			
38993	8.880942	1.123939	2.395929	0.479926	3.165370	-1.116430	-46.551516	-71.721229	29.681145			
38994	9.207914	1.373150	2.527172	0.533751	3.501776	-0.839927	-46.586788	-71.580620	29.616380			
38995	9.231779	1.404904	2.127489	0.947059	3.423729	-0.918490	-46.676290	-71.415536	29.492076			
38996	8.951537	0.944440	1.521708	1.343093	2.773213	-1.219503	-46.880105	-71.218701	29.355544			
38997	8.739121	0.478134	0.973909	1.697872	2.146307	-1.442513	-47.290221	-71.018364	29.341555			
38998	8.584435	0.027790	0.585098	1.916451	1.597004	-1.577864	-47.886446	-70.809003	29.446683			
38999	8.779197	-0.765825	0.559938	1.795911	0.909921	-1.214958	-48.516101	-70.584125	29.597319			
39000	8.883622	-1.272933	1.031783	1.270777	0.652989	-0.892919	-49.094852	-70.346910	29.766268			
39001	9.210855	-1.823176	1.684210	0.636032	0.464616	-0.305858	-49.466865	-70.093354	29.866738			
39002	9.332377	-1.794663	1.926152	0.493329	0.629746	-0.149148	-49.607528	-69.823448	29.817350			
39003	9.202558	-1.641288	1.890548	0.572241	0.757813	-0.323053	-49.543477	-69.557823	29.604238			
39004	9.288000	-1.219143	2.016301	0.652729	1.217163	-0.330545	-49.345879	-69.327894	29.274252			
39005	9.157758	-0.669221	2.457643	0.418552	1.862264	-0.500916	-49.116436	-69.155512	28.896271			
39006	9.632509	-0.671024	2.366133	0.677849	1.910490	-0.080032	-49.081389	-69.068732	28.598312			
39007	9.836643	-0.603877	2.899277	0.296529	2.206237	0.216002	-49.182790	-69.089656	28.431333			
39008	10.377583	-1.136967	2.271870	0.852787	1.580654	0.719290	-49.544066	-69.231010	28.468996			
39009	11.048443	-1.770105	2.000220	1.065835	1.015919	1.458245	-49.991980	-69.480811	28.602966			
39010	12.122908	-2.244569	2.194013	1.009013	0.829587	2.641626	-50.267207	-69.809414	28.637678			
39011	13.032268	-2.635073	2.014479	1.246427	0.520292	3.567029	-50.212233	-70.185269	28.328736			
39012	13.108291	-3.800871	1.650058	1.130020	-0.728770	3.868963	-49.927209	-70.603292	27.706164			
39013	12.898226	-4.572744	1.866107	0.524383	-1.458042	3.911535	-49.432114	-71.090038	26.854356			
39014	12.716246	-5.016450	1.516113	0.524961	-2.123667	3.765926	-48.812350	-71.641614	25.786607			
39015	12.325472	-5.638380	1.240613	0.315152	-2.957880	3.468762	-48.089545	-72.233771	24.542465			
39016	11.869200	-6.054945	0.998379	0.113742	-3.597380	3.055114	-47.324026	-72.848359	23.218147			
39017	11.479214	-6.185301	0.906467	-0.098095	-3.901855	2.661905	-46.385589	-73.421810	21.715042			
39018	11.045898	-6.916250	0.679079	-0.425087	-4.799706	2.315276	-45.288503	-73.943708	20.159356			
39019	11.297076	-7.262394	0.590747	-0.525161	-5.225195	2.562088	-43.911499	-74.375658	18.537149			
39020	11.620913	-7.654374	1.035173	-1.056623	-5.464746	2.982829	-42.205720	-74.690268	16.828758			
39021	12.216770	-7.782326	1.869017	-1.708073	-5.300139	3.689030	-40.088636	-74.877054	14.927667			
39022	11.990654	-8.211079	2.718927	-2.658848	-5.485630	3.656756	-37.648035	-74.945902	12.854265			
39023	11.338718	-7.375754	3.396869	-3.036627	-4.644718	2.982224	-35.181756	-74.992780	10.924755			
39024	11.262942	-6.107994	4.053554	-3.098985	-3.381065	2.818838	-33.149299	-75.114599	9.519689			
39025	11.571789	-4.469203	4.411727	-2.709248	-1.858468	2.936756	-31.758794	-75.362071	8.782258			
39026	12.060240	-3.093470	4.056223	-1.796641	-0.807029	3.133046	-31.085014	-75.687112	8.666371			
39027	12.044877	-2.340850	3.403121	-0.997565	-0.411568	2.874905	-30.897686	-75.974916	8.870389			
39028	12.122067	-1.968907	2.735961	-0.299096	-0.333209	2.761328	-30.988462	-76.219365	9.234057			
39029	11.686199	-2.031870	2.547479	-0.293105	-0.484535	2.306085	-30.989725	-76.359226	9.468600			
39030	10.941574	-2.340827	2.675593	-0.706734	-0.761689	1.644915	-30.814149	-76.399828	9.546549			
39031	9.986705	-2.680094	2.638175	-1.003079	-1.145316	0.749469	-30.352533	-76.324153	9.338082			
39032	8.950558	-2.783178	2.534725	-1.157336	-1.342813	-0.265926	-29.679032	-76.165040	8.928989			
39033	8.262228	-2.206175	2.483755	-1.036263	-0.877723	-1.011769	-28.774636	-75.918550	8.271693			
39034	7.992132	-1.841428	2.995952	-1.391855	-0.400864	-1.202092	-27.575413	-75.556822	7.271835			
39035	7.553437	-1.555115	3.482612	-1.779214	-0.020763	-1.540164	-26.128654	-75.065147	6.001657			
39036	6.966612	-1.049747	3.205167	-1.433121	0.294203	-2.212185	-24.696366	-74.495414	4.716629			
39037	6.290362	-0.631004	2.715648	-0.956148	0.462944	-3.014713	-23.438278	-73.895336	3.569245			
39038	5.323428	-0.095504	2.452922	-0.745764	0.828631	-4.057544	-22.431883	-73.308365	2.611864			
39039	4.907721	0.247856	2.576604	-0.810848	1.165061	-4.448831	-21.623459	-72.784616	1.865731			
39040	5.059587	0.254989	1.896215	-0.107359	0.923894	-4.484009	-20.993321	-72.363322	1.287422			
39041	4.517234	-0.067960	2.041433	-0.470223	0.650576	-4.920549	-20.476829	-72.001849	0.800569			
39042	4.067628	-0.892871	1.898604	-0.719354	-0.190997	-5.296770	-19.874885	-71.759097	0.419146			
39043	4.575228	-0.100970	2.867659	-1.159250	0.866449	-4.609636	-19.506439	-71.569165	0.031112			
39044	5.106290	-0.982133	2.168666	-0.630768	-0.210737	-4.218085	-19.008944	-71.470533	-0.255686			
39045	5.411271	-1.134132	2.069047	-0.483763	-0.402801	-3.943039	-18.658651	-71.417941	-0.408862			
39046	5.706480	-0.758596	2.175232	-0.368695	-0.025658	-3.669853	-18.394378	-71.484073	-0.366542			
39047	6.018463	-0.354104	2.069935	-0.064816	0.315565	-3.446518	-18.296800	-71.643475	-0.132700			
39048	6.379252	0.172699	2.383904	-0.102858	0.913868	-3.062736	-18.386006	-71.888591	0.303366			
39049	6.722401	0.653723	2.774942	-0.248571	1.497629	-2.670316	-18.607939	-72.191688	0.874585			
39050	6.835434	1.115143	3.202962	-0.520703	2.074949	-2.488150	-18.884477	-72.534682	1.479161			
39051	7.234021	1.294727	3.495409	-0.675819	2.343069	-2.048782	-19.148488	-72.899729	2.044809			
39052	7.681920	1.354488	3.908920	-0.967809	2.530834	-1.519070	-19.347573	-73.244030	2.503121			
39053	8.451687	1.164897	4.468670	-1.369754	2.521753	-0.619142	-19.446788	-73.521607	2.816690			
39054	8.932480	0.918881	4.701817	-1.558530	2.355038	-0.077940	-19.407212	-73.675588	2.939968			
39055	8.858175	1.093394	3.764608	-0.698005	2.246242	-0.415763	-19.305588	-73.806828	2.947998			
39056	8.911131	1.150823	3.465955	-0.419602	2.210253	-0.448706	-19.177231	-73.972522	2.876356			
39057	9.278529	1.311589	3.943248	-0.751640	2.494755	0.014400	-18.999317	-74.207868	2.778029			
39058	9.866231	1.780257	4.206146	-0.762103	3.013525	0.605615	-18.791092	-74.517060	2.685384			
39059	10.539771	1.957453	4.231217	-0.623095	3.185125	1.245700	-18.611034	-74.841464	2.613567			
39060	10.894742	1.757426	3.893629	-0.330548	2.894177	1.521267	-18.539708	-75.103019	2.581120			
39061	11.237647	1.378708	3.301816	0.165012	2.370626	1.738951	-18.703492	-75.274837	2.669689			
39062	11.832177	0.700403	3.244530	0.166685	1.725341	2.353385	-19.158259	-75.350780	2.946280			
39063	12.169679	0.053665	3.046188	0.255528	1.085466	2.682894	-19.933402	-75.367412	3.492035			
39064	12.234679	-0.111306	2.931210	0.332686	0.946335	2.728653	-21.030361	-75.363574	4.342772			
39065	11.449635	0.076108	3.944625	-0.751426	1.467294	2.184897	-22.261394	-75.342317	5.337924			
39066	11.068626	-0.309280	5.589120	-2.472574	1.644996	2.230082	-23.472765	-75.299896	6.282687			
39067	11.246537	-1.323780	5.842302	-2.935515	0.831659	2.559059	-24.473435	-75.212521	6.925763			
39068	13.279610	-2.276201	4.875193	-1.786317	-0.237610	4.401703	-25.275493	-75.126446	7.310204			
39069	15.058924	-2.866353	4.205918	-0.874595	-0.887768	6.034191	-25.950660	-75.017254	7.581255			
39070	15.374431	-4.116264	3.443563	-0.453694	-2.242305	6.309990	-26.773005	-74.910543	8.151886			
39071	14.965136	-6.255885	3.188927	-0.950387	-4.288625	6.123571	-27.809126	-74.716952	9.092904			
39072	14.112425	-8.803838	2.243413	-1.008996	-6.955912	5.428590	-28.716153	-74.289275	10.029885			
39073	12.520965	-8.960093	0.985460	-0.192142	-7.522581	3.655803	-29.121784	-73.667664	10.618742			
39074	10.479913	-7.868276	1.389148	-0.638019	-6.429411	1.673021	-29.123180	-73.011698	10.884804			
39075	8.143604	-6.542796	2.907117	-2.171499	-4.805592	-0.338111	-29.178646	-72.514001	11.292706			
39076	7.932697	-5.448373	3.029371	-1.950436	-3.734440	-0.645409	-29.666905	-72.339795	12.271942			
39077	8.269560	-4.211441	2.296043	-0.802577	-2.744990	-0.690490	-30.452936	-72.375185	13.639869			
39078	8.427347	-3.442947	2.478424	-0.716484	-1.918919	-0.602858	-31.379047	-72.502462	15.145001			
39079	8.359744	-2.661412	2.872740	-0.916365	-1.033494	-0.685086	-32.375382	-72.636672	16.618812			
39080	8.523613	-1.727681	2.659211	-0.472426	-0.152006	-0.731844	-33.510403	-72.803163	18.123793			
39081	9.111971	-1.106704	2.143015	0.277473	0.397853	-0.399419	-34.789530	-72.986771	19.605435			
39082	9.081182	-1.211573	1.384253	0.903527	0.137530	-0.592260	-36.106096	-73.130886	20.976166			
39083	9.248968	-1.478998	0.650335	1.531947	-0.251144	-0.552906	-37.335010	-73.212887	22.173783			
39084	9.226829	-1.874958	0.543473	1.504472	-0.616010	-0.522794	-38.338941	-73.227411	23.079294			
39085	9.206246	-2.159213	0.986299	1.000165	-0.730706	-0.386363	-39.108301	-73.215207	23.704222			
39086	9.259150	-2.319217	1.512066	0.470760	-0.700715	-0.185419	-39.734716	-73.210136	24.158160			
39087	9.692012	-2.728098	1.904565	0.101507	-0.903251	0.394111	-40.305102	-73.254624	24.548945			
39088	10.032915	-2.895680	1.735828	0.278586	-1.050058	0.717132	-40.853525	-73.376162	24.949528			
39089	9.491199	-2.827926	1.183585	0.632572	-1.195598	0.069172	-41.434347	-73.545007	25.388060			
39090	8.588821	-2.834137	0.688532	0.819693	-1.442811	-0.895262	-42.094263	-73.750478	25.932571			
39091	7.994674	-2.916372	0.675974	0.617663	-1.586042	-1.447296	-42.820834	-73.980201	26.622562			
39092	8.078866	-3.030462	0.897692	0.356152	-1.607807	-1.295321	-43.620040	-74.254092	27.494199			
39093	7.657555	-2.880195	0.914534	0.231396	-1.504642	-1.722422	-44.347208	-74.543898	28.397569			
39094	7.015744	-2.929689	0.907808	0.033291	-1.629772	-2.331347	-45.094037	-74.838091	29.369585			
39095	6.810109	-3.017312	0.805385	0.023798	-1.764943	-2.531568	-45.866084	-75.141873	30.456720			
39096	6.907231	-2.750462	0.811307	0.069273	-1.493296	-2.484777	-46.686666	-75.438961	31.655859			
39097	7.392227	-2.411170	1.133681	-0.088715	-1.013470	-2.021098	-47.614022	-75.707765	32.993320			
39098	8.347866	-1.973645	1.036643	0.261716	-0.482984	-1.189762	-48.568257	-75.929093	34.393633			
39099	8.799526	-0.931063	1.414761	0.189999	0.686833	-0.880043	-49.258320	-76.028648	35.482765			
39100	9.147516	-0.348281	1.267591	0.506083	1.271378	-0.673071	-49.542341	-76.000213	36.050499			
39101	8.800900	0.050308	1.121042	0.663240	1.582969	-1.108125	-49.641836	-75.887640	36.313349			
39102	8.812631	-0.192699	0.997923	0.741689	1.337818	-1.074521	-49.765208	-75.748680	36.499041			
39103	8.714282	-0.560999	0.639932	1.001246	0.900553	-1.161132	-49.860645	-75.604296	36.636033			
39104	8.491968	-0.921087	0.619206	0.914911	0.533261	-1.314224	-49.962875	-75.474016	36.785901			
39105	8.302797	-1.366527	0.780453	0.640780	0.131235	-1.387422	-50.104250	-75.368734	37.003896			
39106	8.679395	-1.741032	0.698082	0.724769	-0.175470	-0.964280	-50.327108	-75.293287	37.321937			
39107	9.250095	-2.008443	0.777188	0.713592	-0.308706	-0.347088	-50.597535	-75.215516	37.676392			
39108	9.734005	-1.932611	1.347043	0.286889	-0.005773	0.198205	-50.858683	-75.100982	38.004556			
39109	10.177554	-1.507902	1.716225	0.121603	0.582409	0.601137	-51.056337	-74.937777	38.269249			
39110	10.154569	-0.902056	1.853107	0.129196	1.217030	0.476385	-51.087983	-74.725985	38.362829			
39111	9.931523	-0.482709	1.675875	0.367380	1.563298	0.142096	-50.928537	-74.492184	38.280524			
39112	9.387219	-0.118443	1.301550	0.720596	1.752420	-0.526270	-50.604001	-74.235633	38.004808			
39113	9.014404	0.073375	1.223251	0.793963	1.869039	-0.944916	-50.221717	-73.976490	37.653769			
39114	8.828095	0.178755	1.366742	0.676351	1.983976	-1.126984	-49.890144	-73.726311	37.326151			
39115	8.850138	0.153777	1.369605	0.712234	1.976210	-1.105702	-49.606780	-73.486664	37.007629			
39116	8.659989	0.179963	1.349738	0.729592	1.976539	-1.303254	-49.430967	-73.258528	36.734434			
39117	8.486080	0.228930	1.150205	0.924114	1.959470	-1.524424	-49.326638	-73.030941	36.474869			
39118	8.458045	0.149572	1.356015	0.740294	1.942794	-1.501426	-49.293229	-72.803669	36.242923			
39119	8.557993	0.009826	1.400353	0.728718	1.854323	-1.372862	-49.289673	-72.569399	36.033483			
39120	8.619698	-0.236033	1.542038	0.595494	1.684506	-1.237114	-49.262740	-72.314965	35.821782			
39121	8.855773	-0.605683	1.783890	0.387788	1.454718	-0.884805	-49.174799	-72.049910	35.586487			
39122	9.051160	-1.031948	1.929310	0.253606	1.140821	-0.574470	-49.009329	-71.769756	35.313499			
39123	9.115081	-1.480388	2.101957	0.060510	0.787869	-0.375004	-48.737656	-71.481670	34.984669			
39124	9.322146	-1.552241	2.043192	0.201653	0.755675	-0.175540	-48.429039	-71.225040	34.649214			
39125	9.558156	-1.429068	1.975284	0.395021	0.906930	0.001773	-48.156186	-71.023239	34.359561			
39126	9.924020	-1.135927	1.867134	0.682206	1.231876	0.251096	-48.115588	-70.917604	34.314968			
39127	10.437621	-0.944868	1.422026	1.283264	1.403879	0.591216	-48.387129	-70.906344	34.592681			
39128	10.881727	-1.204049	0.959205	1.766387	1.140948	0.974331	-48.967346	-70.960585	35.197908			
39129	11.240786	-1.454714	0.815286	1.906662	0.964164	1.348445	-49.805551	-71.065030	36.130010			
39130	11.435636	-1.836691	1.274671	1.394906	0.794881	1.728285	-50.676601	-71.169549	37.168755			
39131	11.651199	-1.977679	1.864604	0.815597	0.885794	2.090604	-51.305108	-71.251883	38.071923			
39132	12.039245	-1.894995	2.112437	0.662341	1.119865	2.487881	-51.489162	-71.302130	38.517956			
39133	11.823066	-2.195030	2.291988	0.371894	0.827337	2.395237	-51.143306	-71.346541	38.342056			
39134	11.149626	-2.300067	2.605915	-0.110806	0.635621	1.848308	-50.554726	-71.469265	37.831815			
39135	11.079510	-2.407146	2.987571	-0.517491	0.557600	1.887587	-49.939863	-71.723463	37.202409			
39136	11.497442	-3.227176	2.971517	-0.582824	-0.215948	2.477505	-49.400286	-72.090714	36.508294			
39137	11.501215	-3.695976	1.785870	0.404114	-1.028407	2.348962	-48.828967	-72.515281	35.688777			
39138	10.865622	-4.086501	0.636037	1.203007	-1.878511	1.597344	-48.262463	-72.940388	34.746058			
39139	10.157374	-4.841606	0.157241	1.263942	-2.918009	0.981982	-47.720151	-73.339773	33.752342			
39140	9.658496	-5.748160	-0.217669	1.231605	-4.031420	0.608693	-47.193346	-73.702306	32.735580			
39141	9.200314	-6.517547	-0.081571	0.751755	-4.863233	0.331966	-46.558305	-74.011007	31.719844			
39142	9.369568	-7.055950	0.408498	0.145599	-5.276596	0.669579	-45.966528	-74.315966	30.935214			
39143	9.668669	-7.533308	1.302030	-0.778595	-5.506368	1.187420	-45.144141	-74.612396	30.187669			
39144	10.548002	-7.629276	2.600914	-1.836438	-5.209265	2.258813	-43.958738	-74.900072	29.293947			
39145	10.684055	-7.525423	3.139480	-2.273426	-5.054394	2.431523	-42.370796	-75.122354	28.115636			
39146	10.657565	-7.138995	3.540990	-2.532686	-4.701577	2.376106	-40.675777	-75.311104	26.973592			
39147	10.787596	-6.001391	3.601799	-2.269128	-3.696196	2.293087	-39.092876	-75.494417	26.020643			
39148	10.958840	-4.533218	4.145378	-2.418882	-2.239531	2.310144	-37.895718	-75.716085	25.424324			
39149	11.567648	-3.381573	3.931829	-1.859962	-1.196879	2.669791	-37.169867	-75.986348	25.219731			
39150	11.781703	-2.457223	3.398957	-1.161903	-0.456192	2.630820	-36.839988	-76.263030	25.314878			
39151	12.101056	-1.989091	2.565040	-0.251659	-0.183605	2.712255	-36.711216	-76.513253	25.554272			
39152	11.854766	-1.804587	2.128120	0.113258	-0.144693	2.364629	-36.509720	-76.679529	25.691233			
39153	11.064637	-1.721708	2.216010	-0.133745	-0.149937	1.600496	-36.022841	-76.731375	25.529383			
39154	10.250014	-1.761113	2.251069	-0.332482	-0.287875	0.819251	-35.318384	-76.697118	25.090538			
39155	9.414517	-1.449238	2.595355	-0.758225	-0.027377	0.030759	-34.319188	-76.555761	24.307061			
39156	8.832468	-1.019048	3.143359	-1.294712	0.408558	-0.480586	-33.052033	-76.316892	23.172550			
39157	8.128568	-0.412874	3.651484	-1.783474	0.996282	-1.129162	-31.560781	-76.015296	21.757206			
39158	8.404325	0.190641	3.566804	-1.475483	1.564373	-0.937657	-29.997442	-75.632813	20.149622			
39159	8.357084	0.784484	3.442072	-1.186895	2.089955	-1.064736	-28.461018	-75.163923	18.450231			
39160	8.126891	0.855619	2.904647	-0.619136	2.016997	-1.400619	-27.074793	-74.636201	16.782838			
39161	7.348748	1.092196	2.747863	-0.531652	2.138844	-2.204160	-25.892384	-74.111776	15.285636			
39162	6.793693	0.805765	2.616595	-0.516133	1.776291	-2.725520	-24.859386	-73.630719	13.883581			
39163	6.407710	0.011119	2.369197	-0.455477	0.907398	-3.056890	-23.885051	-73.218679	12.538462			
39164	6.076785	-0.892277	2.236503	-0.532594	-0.041070	-3.298099	-22.937944	-72.860741	11.246940			
39165	6.218902	-1.583612	2.397603	-0.728590	-0.693690	-3.036342	-22.006895	-72.544921	10.041682			
39166	6.275208	-1.813129	2.143034	-0.481289	-0.990735	-3.027045	-21.174518	-72.264795	8.993360			
39167	6.357405	-2.049872	2.027338	-0.364703	-1.262508	-2.956912	-20.539223	-72.034087	8.177732			
39168	6.447125	-1.914230	2.120123	-0.374950	-1.121384	-2.860962	-20.090723	-71.882156	7.628069			
39169	6.431456	-1.525997	2.230583	-0.392574	-0.729637	-2.885834	-19.856844	-71.823391	7.326939			
39170	6.534115	-1.085682	2.761889	-0.764648	-0.182317	-2.679422	-19.823257	-71.848093	7.237556			
39171	6.662771	-0.828716	3.344951	-1.222376	0.205125	-2.414600	-19.937403	-71.934861	7.290714			
39172	6.622015	-0.578892	3.671693	-1.502987	0.526148	-2.387615	-20.152006	-72.069216	7.446540			
39173	6.761776	-0.318141	3.599412	-1.362362	0.777979	-2.308206	-20.463285	-72.268154	7.697147			
39174	7.018162	-0.291782	3.390732	-1.116815	0.777388	-2.132514	-20.842306	-72.527829	8.019092			
39175	7.407794	-0.228302	3.205799	-0.855586	0.823768	-1.825580	-21.217524	-72.836242	8.347720			
39176	7.849393	-0.220721	3.050411	-0.627620	0.822692	-1.452319	-21.542761	-73.174814	8.646664			
39177	8.197091	-0.043498	2.962989	-0.460721	0.994370	-1.165593	-21.771074	-73.511873	8.868622			
39178	8.553383	0.143615	2.724442	-0.149299	1.137133	-0.908306	-21.896434	-73.830747	8.992569			
39179	8.780942	0.225105	2.550033	0.045872	1.182056	-0.743027	-21.921959	-74.125902	9.030120			
39180	8.625286	0.388589	2.372675	0.159948	1.286363	-0.952908	-21.868997	-74.402177	9.014759			
39181	8.832776	0.635173	2.610941	-0.000872	1.578758	-0.716219	-21.741273	-74.675450	8.962029			
39182	9.362567	0.577979	3.619518	-0.867919	1.758197	0.048749	-21.510044	-74.912832	8.822467			
39183	9.177759	-0.112334	3.883252	-1.344128	1.116397	-0.000941	-21.092671	-75.113416	8.485928			
39184	9.514889	-0.328961	4.033449	-1.478380	0.924793	0.378928	-20.596903	-75.319906	8.054339			
39185	10.041399	-0.424987	4.178662	-1.536872	0.855180	0.928731	-20.176886	-75.513667	7.656810			
39186	10.764738	-0.233281	4.272755	-1.441937	1.068380	1.631512	-20.016077	-75.701969	7.482255			
39187	11.567337	-0.120277	3.891370	-0.898520	1.119644	2.307519	-20.317005	-75.890514	7.689372			
39188	11.980151	-0.126711	3.372512	-0.348009	1.036504	2.585628	-21.136412	-76.055334	8.355353			
39189	11.797589	-0.244765	3.116555	-0.206257	0.906224	2.356610	-22.359304	-76.147219	9.382727			
39190	10.977190	-0.345594	2.875269	-0.213428	0.783805	1.510961	-23.790955	-76.173914	10.585420			
39191	10.075619	-0.398413	2.586062	-0.175805	0.689226	0.572797	-25.231966	-76.185766	11.820522			
39192	9.405835	-0.181122	2.920190	-0.614901	1.003131	-0.032839	-26.537341	-76.217832	12.997572			
39193	8.956067	-0.232297	3.818347	-1.594955	1.191654	-0.279546	-27.599943	-76.243692	13.953687			
39194	9.034293	-0.444697	4.371710	-2.159809	1.162514	-0.070422	-28.414143	-76.266954	14.658118			
39195	10.363993	-1.216197	4.616235	-2.264835	0.591085	1.355219	-29.041264	-76.246010	15.056023			
39196	12.213658	-2.036975	4.149339	-1.579269	-0.167870	3.149463	-29.450326	-76.149442	15.178088			
39197	13.552469	-2.575284	3.270870	-0.549670	-0.791529	4.331970	-29.886549	-76.038173	15.354331			
39198	14.310044	-3.787602	2.037740	0.508008	-2.185384	4.960310	-30.737592	-75.982361	16.048021			
39199	14.647117	-5.838721	2.279848	-0.123486	-4.007988	5.606345	-31.794729	-75.797411	16.982916			
39200	14.213520	-7.631512	1.736741	-0.089343	-5.825310	5.331185	-32.585099	-75.387533	17.757093			
39201	13.419715	-8.016102	0.589367	0.822733	-6.487959	4.397220	-32.843504	-74.815419	18.110331			
39202	11.810107	-7.500964	0.549590	0.722970	-6.082057	2.778149	-32.853447	-74.221162	18.296050			
39203	10.471887	-6.901079	1.286035	-0.051150	-5.387102	1.585325	-33.042845	-73.794988	18.753625			
39204	8.778441	-4.949305	1.447600	-0.130431	-3.587380	-0.285591	-33.439725	-73.586044	19.561946			
39205	8.192878	-3.686463	1.370183	0.097531	-2.419906	-1.053400	-33.964686	-73.556382	20.537336			
39206	7.548429	-2.480200	2.187911	-0.585244	-1.102952	-1.666640	-34.514932	-73.637020	21.528482			
39207	7.324396	-1.445364	2.915501	-1.139813	0.056205	-1.879618	-35.185192	-73.794135	22.536523			
39208	7.720472	-0.711876	2.910741	-0.925537	0.817839	-1.623719	-35.993407	-74.009169	23.554043			
39209	8.531986	-0.321234	2.412775	-0.217231	1.188340	-1.022925	-36.852991	-74.213660	24.473269			
39210	9.052700	-0.218077	1.899891	0.377568	1.251803	-0.653059	-37.696915	-74.363735	25.253115			
39211	9.687611	-0.544662	1.385944	0.925243	0.915678	-0.098129	-38.513363	-74.452433	25.893198			
39212	10.019771	-0.971541	1.235090	1.043933	0.531046	0.261701	-39.169016	-74.461948	26.282060			
39213	10.029638	-1.547866	1.076242	1.074952	-0.041189	0.335740	-39.593791	-74.395477	26.368796			
39214	10.045799	-2.094705	1.100553	0.946117	-0.545962	0.450054	-39.813156	-74.302659	26.215042			
39215	9.976371	-2.491280	1.032347	0.916170	-0.945137	0.437559	-39.873666	-74.211252	25.893921			
39216	9.431731	-2.673533	0.755267	1.009263	-1.253121	-0.112851	-39.909593	-74.133103	25.543007			
39217	8.800458	-2.803340	0.517325	1.046063	-1.512428	-0.746668	-40.081969	-74.100888	25.362914			
39218	8.465180	-2.993000	0.350092	1.063144	-1.774071	-1.068418	-40.397943	-74.139726	25.422181			
39219	8.032800	-2.981385	0.543698	0.755785	-1.755654	-1.442708	-40.802040	-74.236061	25.653785			
39220	7.558781	-3.107514	0.800122	0.340887	-1.855932	-1.820739	-41.263154	-74.402834	26.028041			
39221	7.224903	-3.117727	0.861652	0.165838	-1.883914	-2.126002	-41.818064	-74.646865	26.580244			
39222	7.301009	-3.234047	0.892832	0.085134	-1.975100	-2.024716	-42.454213	-74.958984	27.289024			
39223	7.607207	-2.924661	1.044304	0.039174	-1.600696	-1.753542	-43.219085	-75.313748	28.205131			
39224	8.229901	-2.512570	1.149239	0.121138	-1.099954	-1.202221	-44.200691	-75.671714	29.360881			
39225	8.603778	-1.930365	1.425336	0.019195	-0.414873	-0.890237	-45.239148	-75.962449	30.572105			
39226	9.176455	-1.422775	1.669067	-0.028245	0.219472	-0.380392	-46.255220	-76.179394	31.726849			
39227	9.830718	-0.960058	1.513422	0.317375	0.718833	0.149121	-46.952962	-76.299317	32.529351			
39228	9.973808	-0.698782	1.306174	0.581640	0.944673	0.209314	-47.232229	-76.315909	32.843937			
39229	9.562761	-0.641245	0.959484	0.841696	0.864709	-0.256431	-47.296834	-76.267554	32.888088			
39230	9.518730	-0.700326	0.513360	1.250823	0.693259	-0.362024	-47.365510	-76.203777	32.898661			
39231	9.569913	-1.069444	0.212893	1.471223	0.275525	-0.297866	-47.415259	-76.118315	32.865672			
39232	9.121973	-1.265078	0.035538	1.515224	-0.007274	-0.728851	-47.518922	-76.017225	32.922908			
39233	8.885760	-1.322135	0.273938	1.237411	-0.016243	-0.910534	-47.779784	-75.908784	33.153368			
39234	9.052509	-1.412251	0.808670	0.750091	0.079960	-0.646050	-48.141987	-75.793583	33.466255			
39235	9.332666	-1.468959	1.470236	0.174199	0.262857	-0.256611	-48.560708	-75.657766	33.802487			
39236	9.680402	-1.448253	2.000558	-0.240563	0.499670	0.162393	-48.924382	-75.495179	34.046950			
39237	9.779069	-1.276827	2.061537	-0.217332	0.722736	0.234238	-49.183393	-75.296440	34.155645			
39238	9.839696	-1.263757	1.968541	-0.085032	0.747145	0.273256	-49.308061	-75.066425	34.108559			
39239	9.627032	-1.310666	1.586616	0.254672	0.593267	0.010649	-49.346908	-74.813659	33.967993			
39240	9.377795	-1.294499	1.223368	0.583899	0.495287	-0.298015	-49.386975	-74.559142	33.840215			
39241	9.117872	-1.218336	1.249074	0.555640	0.559515	-0.562921	-49.441165	-74.306859	33.755286			
39242	9.096175	-1.088645	1.095782	0.758024	0.659756	-0.641194	-49.613022	-74.076610	33.800833			
39243	9.212858	-1.002608	1.079525	0.849834	0.779849	-0.554349	-49.784749	-73.840026	33.850569			
39244	9.226845	-0.794954	1.132756	0.885353	1.019829	-0.580911	-49.920723	-73.585324	33.892402			
39245	9.063511	-0.472064	1.321791	0.783153	1.380483	-0.779527	-50.049041	-73.321535	33.928782			
39246	8.841032	-0.402442	1.332822	0.768700	1.441122	-1.013008	-50.250337	-73.067150	34.033117			
39247	8.783264	-0.445401	1.362023	0.744371	1.429520	-1.060461	-50.556126	-72.820809	34.231872			
39248	8.850288	-0.642118	1.360541	0.735775	1.288029	-0.958849	-50.962658	-72.589868	34.525392			
39249	8.894441	-1.065500	1.171151	0.836098	0.876733	-0.860028	-51.428045	-72.364228	34.864005			
39250	8.809212	-1.373661	1.023519	0.891433	0.565900	-0.900802	-51.924416	-72.136999	35.251426			
39251	8.777655	-1.667919	0.939898	0.902517	0.298389	-0.879107	-52.423323	-71.903824	35.662996			
39252	8.816993	-1.882216	0.929185	0.883272	0.141787	-0.793538	-52.907770	-71.671933	36.079864			
39253	8.688579	-2.065861	0.882804	0.863424	-0.028802	-0.880047	-53.318756	-71.437030	36.449133			
39254	8.608801	-2.002527	1.097267	0.676501	0.117383	-0.932710	-53.668303	-71.217958	36.798339			
39255	8.835374	-1.689283	1.266972	0.672719	0.538267	-0.769439	-53.983476	-71.023490	37.125335			
39256	9.098435	-1.465693	1.513997	0.581399	0.905559	-0.535630	-54.292903	-70.844886	37.440067			
39257	9.329954	-1.129481	1.508633	0.744056	1.292205	-0.411823	-54.583223	-70.686744	37.718582			
39258	9.470877	-0.977542	1.461272	0.871810	1.475361	-0.333679	-54.931132	-70.556709	38.030265			
39259	9.720020	-1.085584	1.517574	0.860049	1.472230	-0.063170	-55.346160	-70.453554	38.401656			
39260	10.034222	-1.147349	1.334345	1.092927	1.452711	0.211162	-55.839600	-70.384021	38.858050			
39261	10.221478	-1.290988	1.383214	1.049614	1.404244	0.433525	-56.353611	-70.332070	39.337508			
39262	10.351186	-1.234097	1.424428	1.043732	1.526641	0.544867	-56.896755	-70.311630	39.888080			
39263	10.676160	-1.340117	1.315129	1.182425	1.490790	0.859014	-57.383506	-70.314026	40.387470			
39264	10.916951	-1.539909	1.486476	1.015016	1.431379	1.172830	-57.698750	-70.327246	40.712789			
39265	11.170996	-1.805279	1.647446	0.847279	1.300789	1.516669	-57.860863	-70.369996	40.885145			
39266	11.176211	-2.102706	1.601664	0.799259	1.009124	1.599464	-57.922007	-70.474041	40.958625			
39267	11.361780	-2.638906	1.848657	0.454901	0.615262	1.972295	-57.969374	-70.649396	41.007246			
39268	11.928880	-3.319747	1.573130	0.645489	-0.003848	2.652334	-57.986530	-70.885613	41.050944			
39269	12.554665	-3.641771	1.014569	1.197359	-0.379942	3.238485	-57.917937	-71.168070	41.009564			
39270	12.380205	-3.685693	0.504783	1.575750	-0.667119	3.000593	-57.709080	-71.487596	40.814546			
39271	11.497443	-3.672518	0.522895	1.305487	-0.893040	2.164361	-57.434836	-71.840721	40.502633			
39272	10.751675	-4.059477	0.845039	0.677800	-1.366605	1.609413	-57.216296	-72.233507	40.214544			
39273	10.151645	-4.706291	1.008896	0.159102	-2.096179	1.223757	-57.066231	-72.648024	39.963741			
39274	9.745930	-5.560581	0.939056	-0.153936	-3.049584	1.025245	-56.848298	-73.058363	39.610342			
39275	9.280083	-6.126940	0.841504	-0.374748	-3.754813	0.681493	-56.387083	-73.443902	38.977073			
39276	8.705358	-6.198205	0.998098	-0.715218	-3.936451	0.146706	-55.735997	-73.794523	38.139510			
39277	8.558880	-6.145321	1.287747	-1.041066	-3.882244	0.011852	-54.941359	-74.131850	37.235464			
39278	8.745682	-6.055489	1.386841	-1.094578	-3.803338	0.158030	-53.953404	-74.470194	36.261726			
39279	8.899203	-5.788239	1.923095	-1.500980	-3.437575	0.303007	-52.638352	-74.785681	35.070650			
39280	9.184184	-5.335999	2.394725	-1.754073	-2.911910	0.531395	-51.108796	-75.073992	33.772186			
39281	9.537893	-4.510709	2.657766	-1.689770	-2.099849	0.728475	-49.536896	-75.351116	32.521704			
39282	9.933509	-3.766215	2.630074	-1.373737	-1.447780	0.947996	-48.111793	-75.632290	31.480028			
39283	10.349987	-3.177687	2.655701	-1.159489	-0.916607	1.236635	-46.970438	-75.912098	30.735633			
39284	10.595434	-2.978236	2.546450	-0.972078	-0.801256	1.413629	-46.247226	-76.195374	30.403261			
39285	10.859434	-2.952795	2.189282	-0.604695	-0.900845	1.600541	-45.948042	-76.484976	30.491193			
39286	11.227997	-2.992479	2.244980	-0.629419	-0.920891	1.969433	-45.795125	-76.741397	30.705892			
39287	11.326595	-3.277184	2.404228	-0.852113	-1.176841	2.133057	-45.330371	-76.885833	30.611766			
39288	10.645308	-3.099104	1.754398	-0.316545	-1.292209	1.333380	-44.546043	-76.892829	30.156245			
39289	10.090121	-2.594325	0.868177	0.564300	-1.128684	0.565284	-43.609576	-76.832387	29.450233			
39290	10.205324	-2.245299	1.547736	0.057266	-0.635681	0.731405	-42.514835	-76.712264	28.522906			
39291	9.827889	-1.754589	2.170492	-0.451561	-0.078680	0.393515	-41.233447	-76.509592	27.365659			
39292	9.279754	-1.131767	2.092444	-0.292728	0.412583	-0.246248	-39.869771	-76.259363	26.090032			
39293	8.824978	-0.793985	2.066372	-0.226374	0.655904	-0.740826	-38.483617	-75.954215	24.750022			
39294	8.450825	-0.583156	2.158712	-0.284669	0.817276	-1.114000	-37.132325	-75.635961	23.430959			
39295	8.088442	-0.594899	2.448530	-0.582071	0.816237	-1.400393	-35.871843	-75.325533	22.187783			
39296	7.629119	-0.347836	2.770462	-0.884439	1.065876	-1.807607	-34.723907	-75.044711	21.042116			
39297	7.217109	-0.205312	2.885891	-1.014341	1.172416	-2.193400	-33.745638	-74.813685	20.014060			
39298	7.009650	-0.240013	3.058135	-1.199016	1.144455	-2.342918	-32.927813	-74.653748	19.127294			
39299	7.222534	-0.526803	3.092614	-1.214632	0.877748	-2.082167	-32.227947	-74.556389	18.321443			
39300	6.993858	-0.857229	2.980024	-1.218974	0.494271	-2.276165	-31.508812	-74.473275	17.506206			
39301	7.239804	-1.011950	2.512945	-0.736000	0.228842	-2.121160	-30.861841	-74.440592	16.751287			
39302	7.541841	-1.076803	2.238785	-0.405665	0.100191	-1.883224	-30.232833	-74.431449	15.990253			
39303	7.713586	-1.403877	1.740440	0.038429	-0.350061	-1.789262	-29.670280	-74.430319	15.305841			
39304	7.907278	-1.324310	1.694278	0.154266	-0.290029	-1.624801	-29.234817	-74.432764	14.736169			
39305	8.071119	-1.160449	1.708630	0.224034	-0.131212	-1.485527	-28.953576	-74.437934	14.315420			
39306	7.975627	-0.983853	2.017539	-0.048581	0.104763	-1.528020	-28.835242	-74.460383	14.046170			
39307	7.842597	-0.805417	2.304147	-0.313100	0.340005	-1.612048	-28.827240	-74.516080	13.898084			
39308	7.636773	-0.714483	2.442423	-0.482674	0.450767	-1.790216	-28.902465	-74.596714	13.837032			
39309	7.578497	-0.439981	2.393281	-0.397522	0.699640	-1.893884	-29.047186	-74.706608	13.853476			
39310	7.523109	-0.190180	2.188441	-0.175252	0.884212	-2.027442	-29.284380	-74.841258	13.971127			
39311	7.615093	-0.183133	2.153194	-0.136963	0.892109	-1.948543	-29.586514	-74.996343	14.153219			
39312	7.774323	-0.208647	2.198134	-0.168761	0.895541	-1.782439	-29.910477	-75.167916	14.393240			
39313	7.952830	-0.133004	2.272570	-0.200399	1.004748	-1.604153	-30.193856	-75.340445	14.617435			
39314	8.188585	-0.073913	2.708947	-0.561985	1.199816	-1.289698	-30.422205	-75.508996	14.807334			
39315	8.474305	-0.098075	3.253697	-1.032953	1.346293	-0.894701	-30.545331	-75.653048	14.884545			
39316	8.884098	-0.044305	3.508574	-1.180877	1.492799	-0.452330	-30.578278	-75.787975	14.847142			
39317	9.245196	-0.122215	3.536501	-1.158529	1.445329	-0.088273	-30.542048	-75.901072	14.678114			
39318	9.594721	-0.053021	3.685754	-1.211435	1.573055	0.272161	-30.545512	-76.001030	14.485806			
39319	9.943282	-0.096454	3.649637	-1.116498	1.545840	0.606612	-30.662857	-76.075055	14.320079			
39320	10.211732	-0.326232	3.585009	-1.060822	1.333953	0.879992	-30.900892	-76.129260	14.236547			
39321	10.485859	-0.496789	3.198993	-0.687046	1.090120	1.085623	-31.249865	-76.157709	14.250748			
39322	10.643293	-0.789248	2.596882	-0.171178	0.659370	1.150081	-31.633204	-76.145725	14.291322			
39323	10.657968	-1.004608	1.809539	0.506532	0.232706	1.030062	-32.000243	-76.112119	14.323157			
39324	10.687735	-0.967101	1.609415	0.715448	0.223137	1.012815	-32.370963	-76.055022	14.384406			
39325	10.536461	-0.723941	1.932902	0.459393	0.563471	0.899391	-32.800426	-75.999695	14.521756			
39326	10.565391	-0.529762	2.435217	0.062616	0.929822	1.002575	-33.286833	-75.993822	14.769587			
39327	11.037738	-0.619134	3.197342	-0.563302	1.140869	1.624928	-33.670969	-76.034842	14.986736			
39328	11.982633	-1.081625	3.697751	-0.954174	0.938351	2.702736	-33.767076	-76.069740	14.952571			
39329	13.676014	-1.480494	3.578285	-0.571008	0.626606	4.375712	-33.568081	-76.053083	14.576167			
39330	15.132603	-1.552180	3.032488	0.275955	0.451294	5.689599	-33.107295	-75.922573	13.861056			
39331	14.888561	-1.407058	1.895141	1.360168	0.173231	5.199316	-32.784310	-75.723140	13.239730			
39332	14.719410	-2.173191	1.219969	1.748720	-0.790363	4.992353	-32.786076	-75.505356	12.982159			
39333	14.802801	-3.655189	2.299077	0.378367	-1.793386	5.497731	-32.654850	-75.121535	12.658043			
39334	14.061743	-4.707819	3.578135	-1.188921	-2.366095	5.210135	-32.149209	-74.504655	11.974873			
39335	11.862674	-4.730134	2.876476	-0.977465	-2.754046	2.947764	-31.504236	-73.780680	11.115832			
39336	9.865425	-4.014077	2.430883	-0.754702	-2.352360	0.828948	-31.039731	-73.154096	10.473894			
39337	8.773205	-4.039414	3.631539	-2.061625	-2.000140	0.098050	-30.842812	-72.702705	10.206906			
39338	8.516933	-3.778343	4.370772	-2.652391	-1.498819	0.017664	-30.828671	-72.429141	10.249309			
39339	8.329601	-3.298701	3.588949	-1.812144	-1.336373	-0.427890	-30.920553	-72.268192	10.418119			
39340	7.944118	-2.350440	3.659911	-1.662741	-0.439719	-0.920531	-31.110116	-72.183486	10.627732			
39341	7.402387	-1.626521	3.820018	-1.731726	0.276823	-1.508598	-31.586591	-72.212044	11.092830			
39342	7.290245	-1.328295	3.370041	-1.283429	0.414756	-1.784622	-32.544040	-72.364364	12.002656			
39343	7.450716	-1.189410	2.404204	-0.360284	0.251683	-1.906075	-34.022834	-72.594187	13.433911			
39344	8.002821	-1.432393	1.160347	0.791406	-0.322757	-1.644936	-35.913928	-72.825319	15.303697			
39345	8.782837	-1.738129	0.056016	1.862585	-0.867985	-1.098385	-37.935279	-72.941871	17.307270			
39346	9.558479	-2.283752	-0.887564	2.725836	-1.564414	-0.459100	-39.709915	-72.856832	18.984149			
39347	9.913840	-3.080207	-0.998722	2.670495	-2.233906	0.018236	-40.854404	-72.536954	19.892113			
39348	9.859591	-3.627490	-0.523131	2.086000	-2.516473	0.185286	-41.331796	-72.073673	20.048997			
39349	9.140264	-3.904007	0.489928	0.933972	-2.433637	-0.209017	-41.403391	-71.584940	19.750191			
39350	8.566254	-4.006219	1.231129	0.119730	-2.284105	-0.554475	-41.346951	-71.190881	19.319331			
39351	7.959263	-3.878772	1.782322	-0.475483	-2.003003	-1.018756	-41.264081	-70.927711	18.854262			
39352	7.486196	-3.787122	1.983989	-0.752106	-1.880976	-1.433076	-41.170206	-70.814122	18.454655			
39353	7.182126	-3.436005	1.957669	-0.700890	-1.601623	-1.802377	-41.107954	-70.845531	18.214646			
39354	6.985999	-3.087907	1.804144	-0.518041	-1.370308	-2.102426	-41.125211	-70.997607	18.174375			
39355	6.971461	-2.819757	1.620572	-0.291900	-1.205114	-2.220523	-41.342741	-71.241996	18.440133			
39356	7.181462	-2.571250	1.312800	0.096106	-1.079424	-2.148900	-41.778069	-71.533099	18.993265			
39357	7.465879	-2.408091	1.470784	0.056484	-0.828757	-1.874725	-42.437627	-71.827852	19.796623			
39358	7.930844	-2.332641	1.417650	0.218596	-0.713719	-1.458539	-43.308110	-72.118666	20.836653			
39359	8.362015	-2.175409	1.304502	0.447101	-0.541167	-1.102672	-44.309805	-72.379546	21.990993			
39360	8.968042	-2.066275	1.044229	0.837955	-0.442783	-0.599264	-45.304795	-72.587155	23.109968			
39361	9.242109	-2.130742	0.881325	0.995028	-0.499886	-0.352603	-46.163313	-72.720929	24.053822			
39362	9.389114	-2.104417	0.748114	1.133265	-0.479584	-0.240368	-46.865489	-72.793160	24.825224			
39363	9.527506	-2.112358	0.618877	1.264239	-0.492895	-0.128829	-47.416354	-72.819193	25.441133			
39364	9.217832	-2.206749	0.410428	1.326102	-0.676981	-0.443069	-47.798873	-72.815450	25.910662			
39365	8.777199	-2.093450	0.590998	1.082252	-0.544312	-0.851467	-48.017168	-72.791412	26.257237			
39366	8.606928	-1.971913	0.930625	0.772522	-0.314714	-0.973125	-48.125394	-72.778306	26.529359			
39367	8.723178	-1.746134	1.188387	0.646545	0.011343	-0.860764	-48.172596	-72.780816	26.760951			
39368	8.973957	-1.536198	1.490586	0.507243	0.355021	-0.607781	-48.234378	-72.791084	26.993231			
39369	9.334578	-1.408655	1.622153	0.520437	0.575111	-0.265519	-48.381343	-72.802552	27.289565			
39370	9.826531	-1.130262	1.733356	0.633797	0.947995	0.164402	-48.599229	-72.801667	27.633170			
39371	10.083439	-0.910680	1.726173	0.775984	1.195729	0.358488	-48.829694	-72.757144	27.927908			
39372	10.049998	-0.840028	1.673598	0.842149	1.253033	0.298183	-49.037480	-72.664461	28.161533			
39373	9.941769	-0.613491	1.728352	0.850124	1.484218	0.151081	-49.200661	-72.533921	28.322645			
39374	9.802059	-0.529869	1.611691	0.965134	1.515479	-0.028493	-49.297953	-72.374651	28.403286			
39375	9.583559	-0.410699	1.600467	0.981080	1.605375	-0.271464	-49.319406	-72.185532	28.381186			
39376	9.389577	-0.511557	1.489098	1.026536	1.457652	-0.460434	-49.302971	-71.984970	28.302480			
39377	9.015393	-0.464532	1.496730	0.964986	1.461138	-0.831202	-49.233782	-71.774654	28.145908			
39378	8.590331	-0.335817	1.531585	0.890654	1.539330	-1.263452	-49.143564	-71.568626	27.954183			
39379	8.429120	-0.156324	1.654743	0.823399	1.734626	-1.438579	-49.078754	-71.386419	27.778888			
39380	8.417758	-0.110041	1.922477	0.622316	1.884544	-1.408651	-49.013346	-71.214130	27.582379			
39381	8.637802	-0.197695	2.220476	0.415942	1.959756	-1.119731	-49.004689	-71.053082	27.411065			
39382	9.067800	-0.398071	2.176773	0.539846	1.834922	-0.676859	-49.032841	-70.899662	27.253113			
39383	9.446057	-0.612519	1.986553	0.776225	1.633749	-0.311223	-49.072429	-70.743534	27.088247			
39384	9.476092	-0.781669	1.889813	0.842234	1.459014	-0.265931	-49.163130	-70.581807	26.949346			
39385	9.313650	-0.967593	1.739055	0.889685	1.221517	-0.409448	-49.360612	-70.439769	26.903658			
39386	9.233624	-1.142442	1.441279	1.087145	0.949820	-0.509022	-49.653749	-70.334129	26.976443			
39387	9.388565	-1.408642	1.226536	1.239966	0.664968	-0.344103	-49.992382	-70.265380	27.123376			
39388	9.666856	-1.593221	1.260925	1.229464	0.572383	-0.028150	-50.309999	-70.233408	27.272652			
39389	9.660844	-1.779897	1.308603	1.115528	0.437363	0.024826	-50.610827	-70.231219	27.422000			
39390	9.779664	-2.025487	1.570807	0.822195	0.356183	0.257514	-50.936349	-70.261984	27.631310			
39391	10.072653	-2.078607	1.438876	0.989497	0.313688	0.520354	-51.336707	-70.340186	27.964067			
39392	10.399096	-2.271574	1.331225	1.085958	0.161540	0.858204	-51.761934	-70.450322	28.359175			
39393	10.785828	-2.465131	1.413205	1.026512	0.095124	1.293402	-52.117196	-70.575741	28.752676			
39394	11.179941	-2.478865	1.287403	1.217619	0.098493	1.645973	-52.290084	-70.706397	29.022093			
39395	11.420154	-2.696268	1.396516	1.088021	-0.020513	1.954035	-52.224735	-70.833531	29.069239			
39396	11.642292	-3.232526	1.638276	0.727547	-0.390720	2.352593	-51.929898	-70.983006	28.924705			
39397	11.765326	-3.365695	1.728786	0.618651	-0.493765	2.520713	-51.431236	-71.162308	28.613315			
39398	11.700086	-3.640915	1.667956	0.543289	-0.830700	2.513902	-50.745496	-71.363281	28.110837			
39399	11.570499	-3.766160	1.022357	1.025421	-1.287265	2.286761	-49.925134	-71.599586	27.452001			
39400	11.210109	-3.622269	0.229333	1.666154	-1.595941	1.742242	-49.022476	-71.869350	26.680082			
39401	10.615781	-3.729051	0.026791	1.623393	-1.928399	1.153020	-48.102249	-72.155184	25.841568			
39402	10.009651	-4.069527	0.252272	1.109803	-2.300028	0.689482	-47.239844	-72.454907	25.024464			
39403	9.434582	-4.366220	0.634076	0.477542	-2.557571	0.272334	-46.440860	-72.742304	24.217073			
39404	9.176039	-4.654228	0.959132	-0.015788	-2.781064	0.139526	-45.732358	-73.024357	23.498285			
39405	8.991939	-4.831829	1.525503	-0.667354	-2.794100	0.100740	-45.078531	-73.294881	22.851643			
39406	9.319645	-4.806654	1.845783	-0.885796	-2.664131	0.457854	-44.198056	-73.552827	22.090731			
39407	9.703221	-4.627538	2.513750	-1.333901	-2.272314	0.908424	-42.801876	-73.730291	20.858884			
39408	9.385416	-4.848615	3.147244	-2.052362	-2.356421	0.757762	-40.899023	-73.818626	19.160177			
39409	9.428888	-4.574079	3.634043	-2.356985	-2.024269	0.835228	-38.747508	-73.876801	17.286401			
39410	9.774932	-4.045934	4.193795	-2.559571	-1.419749	1.184508	-36.547226	-73.937852	15.405795			
39411	9.733260	-3.262951	4.477781	-2.543254	-0.713012	1.071066	-34.588988	-74.039054	13.769356			
39412	10.063836	-2.624761	4.384880	-2.160641	-0.236130	1.263073	-33.115773	-74.224286	12.598327			
39413	11.181797	-2.215210	4.051720	-1.456184	0.012332	2.197101	-32.200551	-74.485182	11.947088			
39414	12.165790	-2.024545	3.296298	-0.499622	-0.075278	2.943297	-31.769351	-74.767418	11.738131			
39415	12.950122	-2.199836	2.524472	0.294099	-0.495143	3.550919	-31.641678	-75.007589	11.807667			
39416	11.918353	-2.291438	1.791454	0.635707	-0.902499	2.405679	-31.521933	-75.131786	11.908670			
39417	10.570155	-2.302996	1.935028	0.148360	-0.944447	1.135477	-31.392049	-75.198041	12.046500			
39418	10.591418	-2.095856	1.761158	0.373595	-0.817131	1.089842	-31.149840	-75.244721	12.102405			
39419	10.316933	-1.685886	1.960807	0.253750	-0.395232	0.813010	-30.665484	-75.214325	11.830158			
39420	8.917988	-1.264862	2.841279	-0.756958	0.192277	-0.400293	-29.865296	-75.094478	11.189401			
39421	8.270737	-1.090849	3.142892	-1.118087	0.391394	-0.977001	-28.980278	-74.955778	10.384183			
39422	7.763606	-0.871499	3.349069	-1.340754	0.610124	-1.441349	-28.012198	-74.776264	9.434645			
39423	7.087416	-0.693969	3.453179	-1.524705	0.753154	-2.083175	-27.061839	-74.569625	8.450709			
39424	6.767972	-0.585312	3.431779	-1.521533	0.812038	-2.399826	-26.238694	-74.332112	7.556994			
39425	6.685068	-0.580753	3.404232	-1.480694	0.786999	-2.477550	-25.632587	-74.074297	6.854643			
39426	6.624051	-0.596173	2.894248	-1.000670	0.594180	-2.653382	-25.284957	-73.812395	6.404081			
39427	6.678889	-0.436110	2.513224	-0.556362	0.619469	-2.711935	-25.177590	-73.573034	6.202599			
39428	6.762595	-0.448664	2.475433	-0.471706	0.598971	-2.637703	-25.130414	-73.336301	6.087627			
39429	6.457486	-0.484512	2.542436	-0.599898	0.580322	-2.906087	-25.095543	-73.083424	6.010151			
39430	6.260492	-0.435395	2.130308	-0.238709	0.487360	-3.207616	-25.119187	-72.838288	5.986559			
39431	6.156864	-0.339205	1.808569	0.078228	0.473112	-3.404649	-25.228488	-72.618923	6.015188			
39432	6.203322	-0.573962	1.736598	0.106640	0.235528	-3.350527	-25.358040	-72.439368	6.052352			
39433	6.112637	-0.747778	1.984902	-0.182433	0.159175	-3.347032	-25.537550	-72.327377	6.160416			
39434	6.281067	-0.774909	2.087712	-0.225614	0.182797	-3.154872	-25.827874	-72.300084	6.413062			
39435	6.456249	-0.647290	2.453384	-0.464957	0.444393	-2.905623	-26.229937	-72.348138	6.805907			
39436	6.616188	-0.456320	2.747124	-0.634564	0.744189	-2.701265	-26.741987	-72.467557	7.337327			
39437	6.829458	-0.287593	2.896022	-0.675468	0.979412	-2.484963	-27.354462	-72.656403	7.986564			
39438	7.257756	-0.184681	3.068900	-0.706840	1.172606	-2.050440	-28.047569	-72.903642	8.737054			
39439	7.695823	-0.005622	3.316819	-0.791155	1.466094	-1.599805	-28.778816	-73.179382	9.540777			
39440	8.128045	0.176267	3.281900	-0.630259	1.670206	-1.228986	-29.598120	-73.483362	10.432454			
39441	8.800388	0.371301	3.275504	-0.433743	1.914746	-0.622538	-30.538602	-73.799859	11.423439			
39442	9.406517	0.411180	3.272300	-0.313971	2.017992	-0.056239	-31.537688	-74.092704	12.464561			
39443	9.757403	0.497206	2.738328	0.232732	1.978991	0.136260	-32.634030	-74.372080	13.588892			
39444	10.203549	0.201569	2.576106	0.346768	1.714394	0.566597	-33.698519	-74.628398	14.679379			
39445	10.617642	-0.193201	2.681672	0.179002	1.441977	1.043249	-34.591775	-74.844310	15.609564			
39446	11.035671	-0.443320	2.664773	0.175072	1.257118	1.477680	-35.199800	-75.020278	16.258572			
39447	11.494119	-0.492186	2.756835	0.151824	1.288485	1.946302	-35.477724	-75.154626	16.579302			
39448	11.862323	-0.598978	3.073361	-0.104996	1.320275	2.384233	-35.452959	-75.225667	16.590899			
39449	12.152156	-0.456025	2.930475	0.133049	1.421048	2.614438	-35.294127	-75.242356	16.438765			
39450	12.152671	-0.080026	2.666943	0.495017	1.677416	2.505901	-35.057210	-75.214856	16.172789			
39451	11.705092	0.475910	2.882599	0.371408	2.228343	2.038116	-34.753498	-75.154047	15.815025			
39452	11.554491	1.007052	3.517089	-0.067604	2.914148	1.951387	-34.395897	-75.108565	15.374567			
39453	11.465080	1.344773	4.237925	-0.625885	3.447912	1.974448	-33.914950	-75.060570	14.755791			
39454	11.649747	1.413389	5.097107	-1.315980	3.792487	2.335558	-33.366417	-75.011327	13.939780			
39455	12.725525	1.131342	5.007112	-1.012884	3.542871	3.405180	-32.811090	-74.977839	12.969857			
39456	14.066559	0.922553	4.460368	-0.195548	3.208716	4.619209	-32.231103	-74.927603	11.856530			
39457	14.217547	0.503495	4.083931	0.100375	2.660634	4.746889	-31.712540	-74.844995	10.744201			
39458	13.966360	-0.563522	4.086609	-0.276119	1.632568	4.655740	-31.318753	-74.729633	9.757181			
39459	13.303158	-2.965613	3.641300	-0.831950	-0.800510	4.247707	-30.946389	-74.467193	8.758972			
39460	13.033049	-5.354094	2.805191	-0.949071	-3.339235	4.128050	-30.536384	-74.050868	7.758543			
39461	12.927594	-6.538057	1.603996	-0.269073	-4.906697	3.909303	-30.157093	-73.533361	6.891000			
39462	11.788259	-7.175941	1.539042	-0.687292	-5.552604	2.896420	-30.082478	-72.995321	6.467602			
39463	9.263516	-6.950830	1.611971	-1.324799	-5.376594	0.485946	-30.487901	-72.533787	6.694635			
39464	7.644240	-6.649774	1.812573	-1.812380	-5.040227	-1.023472	-31.212522	-72.211655	7.418313			
39465	6.373333	-5.717770	2.346767	-2.270475	-3.990696	-2.214090	-31.935895	-72.027702	8.306375			
39466	5.564564	-4.650031	2.912591	-2.590613	-2.803743	-2.993738	-32.584499	-72.024101	9.166564			
39467	5.725827	-3.281619	3.120169	-2.221127	-1.452897	-3.012304	-33.204838	-72.237854	10.081592			
39468	6.468859	-2.427359	3.305822	-1.881504	-0.550577	-2.408413	-33.882194	-72.588427	11.023100			
39469	7.394512	-2.217845	2.841407	-1.174838	-0.478408	-1.684845	-34.636290	-72.974980	12.048909			
39470	8.784377	-1.781185	1.804317	0.243019	-0.379894	-0.680888	-35.397073	-73.316778	13.093053			
39471	9.781606	-1.674791	0.931366	1.291737	-0.528263	0.056677	-36.062058	-73.489097	13.964569			
39472	10.242304	-1.942835	0.420293	1.764270	-0.909701	0.430152	-36.567502	-73.461689	14.579351			
39473	10.739794	-2.028530	0.680438	1.653562	-0.824564	0.981144	-36.904903	-73.276421	14.938369			
39474	11.317440	-2.596021	1.155924	1.230527	-1.097208	1.739005	-37.086415	-72.990423	14.998589			
39475	10.935229	-2.503140	1.306913	1.070229	-0.964907	1.388934	-37.124965	-72.710395	14.837610			
39476	10.022874	-2.175789	1.377208	0.898157	-0.694692	0.473196	-37.259052	-72.535881	14.715474			
39477	8.959511	-2.117651	1.433149	0.569242	-0.687607	-0.538295	-37.626439	-72.540861	14.833746			
39478	8.863598	-2.154483	1.463658	0.476688	-0.700352	-0.613254	-38.219935	-72.743348	15.250294			
39479	8.717555	-2.106433	1.499742	0.372273	-0.638164	-0.749800	-38.807088	-73.056419	15.752729			
39480	8.608054	-2.134272	1.481519	0.290740	-0.670610	-0.850875	-39.271278	-73.403465	16.204733			
39481	8.404081	-2.275107	1.330112	0.262626	-0.872655	-1.052370	-39.648948	-73.736168	16.621491			
39482	7.881343	-2.525997	1.092006	0.194738	-1.236762	-1.559139	-40.029032	-74.026779	17.066266			
39483	7.712439	-2.647805	0.876932	0.256164	-1.442041	-1.743217	-40.552484	-74.306371	17.701674			
39484	7.992294	-2.644107	0.708147	0.441431	-1.471717	-1.505546	-41.198753	-74.560079	18.509003			
39485	8.395014	-2.269031	1.057695	0.330271	-0.940181	-1.109220	-41.910311	-74.748840	19.393586			
39486	8.805657	-1.797964	1.148445	0.490296	-0.416745	-0.775153	-42.615582	-74.874511	20.262032			
39487	9.004928	-1.169888	1.324129	0.585565	0.267799	-0.658670	-43.191632	-74.903292	20.968537			
39488	8.960020	-0.883069	1.334982	0.660451	0.553553	-0.751711	-43.686468	-74.845796	21.507109			
39489	8.881212	-0.857107	1.127746	0.842268	0.514138	-0.873529	-44.203607	-74.732521	21.978198			
39490	8.585370	-0.927178	0.670104	1.169425	0.268639	-1.234955	-44.708596	-74.580243	22.355823			
39491	8.218781	-1.170986	0.546615	1.117347	-0.013966	-1.568318	-45.285066	-74.415039	22.756607			
39492	8.191254	-1.511149	0.327956	1.197334	-0.386848	-1.572273	-45.873443	-74.257307	23.181313			
39493	8.106100	-1.846113	0.322101	1.070171	-0.676148	-1.589658	-46.482656	-74.112438	23.664290			
39494	8.296769	-2.011930	0.551701	0.859178	-0.685904	-1.328591	-47.093281	-73.985621	24.199313			
39495	8.697160	-2.040282	1.052169	0.507648	-0.437151	-0.842653	-47.625911	-73.865340	24.695178			
39496	9.114524	-1.925455	1.536768	0.230609	-0.063537	-0.374134	-47.989553	-73.727151	25.031911			
39497	9.535844	-1.560285	2.115674	-0.030282	0.573007	0.062208	-48.166705	-73.555493	25.173657			
39498	9.550540	-1.019931	2.241075	0.085327	1.132636	-0.015482	-48.150361	-73.354688	25.091542			
39499	9.287381	-0.470622	2.175727	0.309950	1.584661	-0.399750	-48.072760	-73.144038	24.876927			
39500	8.945666	-0.064591	1.862778	0.683420	1.791295	-0.878307	-47.948131	-72.957354	24.568119			
39501	8.879355	0.174872	1.684090	0.944700	1.928891	-1.032223	-47.810687	-72.820242	24.226521			
39502	8.963903	0.086791	2.079480	0.607745	2.021082	-0.855613	-47.694333	-72.748128	23.898128			
39503	9.162541	-0.331518	2.487272	0.157626	1.834640	-0.492932	-47.642938	-72.748788	23.640891			
39504	9.089737	-0.612573	2.123393	0.356961	1.417847	-0.573117	-47.690218	-72.796741	23.459229			
39505	8.933267	-0.726501	1.732859	0.611606	1.132471	-0.775138	-47.908650	-72.854088	23.426871			
39506	9.199049	-0.680387	1.353907	1.027810	1.050301	-0.606225	-48.308045	-72.889863	23.558055			
39507	9.401193	-0.636546	1.014030	1.394958	0.980550	-0.490216	-48.777032	-72.856528	23.746892			
39508	9.727287	-0.701637	1.221424	1.280890	1.070621	-0.126753	-49.248563	-72.755486	23.914863			
39509	10.327665	-0.828256	1.192134	1.437209	1.040308	0.464469	-49.635952	-72.584767	23.992634			
39510	10.648575	-1.066180	0.733544	1.864374	0.687620	0.728568	-49.908626	-72.318213	23.913630			
39511	10.695615	-1.349086	0.455495	2.054883	0.341021	0.774311	-50.103179	-71.967285	23.737657			
39512	10.464472	-1.680316	0.504207	1.872478	0.067020	0.631056	-50.244009	-71.561240	23.513367			
39513	9.861786	-1.812890	0.517989	1.693391	-0.093323	0.083426	-50.404203	-71.157959	23.332451			
39514	9.078984	-1.836004	0.941070	1.139835	0.012817	-0.572296	-50.715332	-70.820640	23.324072			
39515	8.630259	-1.942730	1.129983	0.829729	-0.014302	-0.933295	-51.315799	-70.592945	23.651101			
39516	8.523726	-2.244455	1.202658	0.617035	-0.212896	-0.940730	-52.173698	-70.468458	24.308428			
39517	8.704400	-2.377369	1.033460	0.751255	-0.336204	-0.767863	-53.167059	-70.423415	25.201346			
39518	9.129728	-2.631277	1.007853	0.774888	-0.457373	-0.300515	-54.131557	-70.415000	26.152210			
39519	9.801953	-2.622597	1.395932	0.629304	-0.118411	0.409579	-54.837495	-70.421805	26.980836			
39520	10.780746	-2.420530	1.543128	0.863179	0.305733	1.306039	-55.187831	-70.454945	27.561100			
39521	11.521321	-2.195633	1.820914	0.925437	0.756253	1.996166	-55.126107	-70.505339	27.782257			
39522	11.543327	-2.372351	2.223573	0.504788	0.780451	2.143764	-54.712385	-70.578927	27.652975			
39523	11.647790	-2.613064	1.946768	0.667968	0.421036	2.256506	-54.193319	-70.708511	27.383446			
39524	11.799123	-2.829723	1.851790	0.694746	0.162884	2.440733	-53.558840	-70.877348	26.977463			
39525	11.760222	-2.943659	1.456523	0.963068	-0.181814	2.358120	-52.888452	-71.091541	26.496323			
39526	11.502898	-2.645606	0.624035	1.706910	-0.399219	1.876283	-52.235600	-71.356202	25.978583			
39527	11.175993	-2.624851	0.330493	1.843281	-0.618902	1.506358	-51.675462	-71.648569	25.437554			
39528	10.813062	-3.187272	0.529920	1.296227	-1.126307	1.341354	-51.265857	-71.965866	24.924172			
39529	10.657194	-4.310948	0.797492	0.506462	-2.062328	1.513648	-50.963999	-72.304994	24.435934			
39530	10.223160	-5.177775	0.927891	-0.146869	-2.863388	1.321147	-50.675506	-72.638776	23.935968			
39531	10.071661	-5.843732	1.015060	-0.606318	-3.465471	1.333627	-50.419154	-72.959921	23.459908			
39532	10.091134	-6.570478	0.848670	-0.822892	-4.215474	1.468920	-50.053904	-73.229704	22.945390			
39533	10.149799	-7.062464	0.874909	-1.077294	-4.673070	1.618140	-49.344848	-73.424892	22.234298			
39534	10.364497	-6.989589	1.370766	-1.424009	-4.419644	1.874678	-48.124338	-73.545564	21.174541			
39535	10.135640	-6.473790	2.016649	-1.799194	-3.777248	1.641671	-46.435825	-73.577136	19.733538			
39536	7.423339	-7.804810	4.037931	-4.787928	-4.386053	-0.317269	-44.604373	-73.561268	18.277020			
39537	7.672551	-5.492227	4.292385	-3.942415	-2.309949	-0.507992	-43.244387	-73.749238	17.735087			
39538	8.951390	-2.280462	3.517645	-1.631328	0.225574	-0.066466	-42.065205	-74.049717	17.316034			
39539	8.490248	-3.058518	5.115923	-3.529220	0.067922	-0.058220	-41.299398	-74.662341	17.403821			
39540	11.106569	1.617141	3.722723	0.011698	3.855937	1.365754	-41.220204	-75.541134	17.940906			
39541	13.363741	1.262571	-1.475749	4.919673	1.543311	2.668291	-40.916896	-76.104982	17.273427			
39542	12.560828	-1.035047	2.521301	0.217936	0.937693	3.004304	-39.473359	-76.305212	15.803043			
39543	11.036373	-1.052845	4.311336	-1.752074	1.476390	1.859834	-38.273324	-76.406952	14.782347			
39544	10.514258	-1.342318	3.167045	-0.955306	0.663970	1.188585	-37.327549	-76.402235	13.978400			
39545	10.030921	-1.062610	2.669809	-0.492469	0.655869	0.589406	-36.468204	-76.268875	13.156203			
39546	9.066917	-1.396907	2.560308	-0.705349	0.227154	-0.317100	-35.612397	-76.037930	12.236678			
39547	8.166393	-1.455057	3.032758	-1.317555	0.297783	-1.084573	-34.835818	-75.784882	11.317360			
39548	7.684211	-1.620156	3.029389	-1.452708	0.107701	-1.522506	-34.117810	-75.558155	10.369493			
39549	7.688368	-1.295647	3.033540	-1.294743	0.390711	-1.556603	-33.304587	-75.371658	9.263072			
39550	7.808214	-1.220334	3.011665	-1.181047	0.432872	-1.449368	-32.228384	-75.180486	7.829412			
39551	7.586866	-1.405920	2.610309	-0.924057	0.058557	-1.719889	-31.034912	-75.023228	6.305216			
39552	7.318394	-1.533283	2.634241	-1.037524	-0.087430	-1.953627	-29.889214	-74.846774	4.829140			
39553	7.236444	-1.419896	2.350351	-0.736420	-0.137431	-2.109114	-28.902854	-74.650466	3.504242			
39554	7.406952	-1.175727	1.850529	-0.128757	-0.156888	-2.090743	-28.112069	-74.472236	2.356492			
39555	7.506488	-1.545007	1.794421	-0.183253	-0.536727	-1.962044	-27.456288	-74.276882	1.357812			
39556	7.190380	-1.715416	2.007355	-0.500648	-0.616900	-2.194131	-26.932541	-74.067038	0.536592			
39557	6.941985	-1.840827	1.987692	-0.581659	-0.752815	-2.421773	-26.505970	-73.867396	-0.103603			
39558	6.783504	-1.834517	1.833150	-0.467708	-0.829161	-2.612999	-26.111067	-73.672266	-0.627618			
39559	6.568798	-1.692267	1.722930	-0.349236	-0.763363	-2.864549	-25.758667	-73.469884	-1.032874			
39560	6.331596	-1.326177	1.852256	-0.346514	-0.386692	-3.103808	-25.554296	-73.285255	-1.243370			
39561	6.137279	-0.838831	2.103599	-0.387980	0.159090	-3.284356	-25.560339	-73.149992	-1.199693			
39562	6.280398	-0.331567	2.355487	-0.331435	0.728558	-3.144779	-25.830918	-73.079429	-0.850159			
39563	6.547191	-0.174943	2.794528	-0.558055	1.077191	-2.796000	-26.346598	-73.064631	-0.242280			
39564	6.834520	-0.092097	2.998797	-0.618364	1.262861	-2.482294	-27.037513	-73.108432	0.582697			
39565	6.860659	-0.036195	3.172785	-0.749279	1.417194	-2.425769	-27.883963	-73.206364	1.555750			
39566	6.801602	-0.051424	3.229532	-0.844518	1.458559	-2.474190	-28.827714	-73.386442	2.631674			
39567	6.983029	-0.070889	3.212817	-0.822583	1.468169	-2.312187	-29.837650	-73.667038	3.785654			
39568	7.531244	0.022269	3.101460	-0.586375	1.544953	-1.837221	-30.824151	-74.050549	4.952577			
39569	8.345048	0.122677	2.773819	-0.107981	1.542568	-1.154906	-31.787505	-74.505760	6.113752			
39570	9.045275	-0.151156	2.808124	-0.149606	1.361083	-0.439869	-32.666688	-74.996792	7.208909			
39571	9.904868	-0.263400	2.867136	-0.118543	1.337198	0.414401	-33.365207	-75.470373	8.136062			
39572	10.195511	-0.443153	2.606697	0.021246	1.086202	0.663899	-33.747595	-75.884900	8.703934			
39573	10.882615	-0.598401	1.843442	0.715735	0.644675	1.199091	-33.812053	-76.295848	8.900219			
39574	11.748920	-0.806141	2.186878	0.456432	0.616897	2.140558	-33.450321	-76.636617	8.645711			
39575	12.274046	-1.043306	2.759342	-0.090867	0.627833	2.794921	-32.802379	-76.928903	8.150306			
39576	12.816153	-0.146603	2.451319	0.611712	1.287791	3.158485	-32.096313	-77.143567	7.621969			
39577	12.439328	0.489869	2.344417	0.842302	1.774312	2.701917	-31.447252	-77.256690	7.184642			
39578	11.824437	1.087234	2.393127	0.879907	2.292730	2.048827	-30.831721	-77.310726	6.839453			
39579	11.124318	1.757073	2.987582	0.441771	3.101716	1.409945	-30.135588	-77.351408	6.441068			
39580	11.105808	1.888166	3.974881	-0.414523	3.586434	1.574556	-29.295558	-77.397007	5.858766			
39581	11.481681	1.841894	5.121789	-1.394519	3.968027	2.177482	-28.334733	-77.433235	5.030023			
39582	12.706828	1.489536	5.260091	-1.397269	3.677780	3.448993	-27.454381	-77.494882	4.106045			
39583	14.188947	1.472681	4.684273	-0.561789	3.416919	4.797116	-26.777276	-77.491403	3.214974			
39584	15.009743	1.185385	3.989885	0.154591	2.859674	5.497927	-26.492182	-77.408957	2.576614			
39585	15.043397	0.252969	3.035526	0.691033	1.614532	5.435190	-26.626039	-77.261899	2.329140			
39586	14.494541	-1.832381	2.262771	0.481612	-0.598300	4.951429	-26.904618	-76.976734	2.241476			
39587	13.878922	-3.935980	1.558915	0.201335	-2.793465	4.424647	-27.103361	-76.479412	2.105728			
39588	13.292246	-4.617375	1.216530	0.205704	-3.546864	3.856983	-27.253750	-75.854839	1.965214			
39589	12.464973	-5.142630	2.154753	-0.904510	-3.608649	3.325924	-27.497466	-75.193788	1.914892			
39590	10.909595	-5.702200	3.469465	-2.552986	-3.530214	2.211866	-27.839842	-74.545967	2.080560			
39591	9.451945	-5.323768	3.175920	-2.417254	-3.302644	0.723761	-28.281367	-74.006763	2.476023			
39592	8.465837	-5.225676	2.830778	-2.266598	-3.354174	-0.294127	-28.668368	-73.615495	2.914666			
39593	7.559839	-4.742324	3.332691	-2.701088	-2.701945	-1.086228	-28.899771	-73.393577	3.293855			
39594	6.765923	-3.960926	3.206812	-2.470967	-2.064788	-1.978068	-29.080663	-73.367785	3.686169			
39595	6.549043	-2.872770	2.918957	-1.842086	-1.212426	-2.409999	-29.388144	-73.548233	4.287800			
39596	6.943675	-2.510958	2.717939	-1.438596	-0.959161	-2.136945	-29.953543	-73.888191	5.226680			
39597	7.698287	-1.796293	1.882764	-0.261941	-0.627690	-1.715022	-30.818040	-74.285621	6.547943			
39598	8.595250	-1.173488	0.756406	1.167485	-0.465500	-1.195987	-31.876604	-74.536568	7.928439			
39599	9.074508	-1.943872	0.135976	1.520118	-1.357628	-0.757871	-32.945820	-74.573230	9.139293			
39600	9.183490	-2.288641	-0.045693	1.580507	-1.694239	-0.636207	-33.878490	-74.462087	10.184044			
39601	9.585093	-2.227818	0.210742	1.504178	-1.471463	-0.197406	-34.625197	-74.265919	10.982371			
39602	9.440925	-1.790193	0.658470	1.266317	-0.861979	-0.303602	-35.129860	-74.033116	11.469922			
39603	9.441372	-1.642361	1.168944	0.899170	-0.491477	-0.213045	-35.583854	-73.861728	11.834460			
39604	9.096494	-1.632399	1.312767	0.695080	-0.418925	-0.513461	-36.106592	-73.805583	12.201817			
39605	8.884615	-1.618724	1.465813	0.499319	-0.333018	-0.683341	-36.719766	-73.886136	12.630569			
39606	8.523845	-1.832790	1.397607	0.352833	-0.557921	-1.007435	-37.296829	-74.065697	13.058458			
39607	8.327769	-2.166278	1.316585	0.206758	-0.892772	-1.156015	-37.742164	-74.288283	13.416057			
39608	7.982724	-2.459900	1.096766	0.160858	-1.266070	-1.485083	-38.001926	-74.487251	13.640391			
39609	7.398725	-2.647714	0.803511	0.168934	-1.593869	-2.077821	-38.167105	-74.636814	13.820385			
39610	7.326011	-2.782313	0.741043	0.133609	-1.744084	-2.137980	-38.410006	-74.775728	14.125929			
39611	7.625823	-2.844898	0.650380	0.247623	-1.812502	-1.855106	-38.811401	-74.915538	14.641097			
39612	8.146231	-2.636801	0.960546	0.165757	-1.448004	-1.320797	-39.338929	-75.044450	15.327176			
39613	8.840889	-2.501609	1.037212	0.304026	-1.227793	-0.653255	-39.965587	-75.145391	16.128442			
39614	9.236660	-2.466543	1.176647	0.276703	-1.087085	-0.245773	-40.601214	-75.178642	16.910476			
39615	9.412173	-2.719601	1.198932	0.198209	-1.267699	-0.026153	-41.254037	-75.148269	17.678438			
39616	9.454522	-2.590673	0.702459	0.702480	-1.316986	-0.098524	-41.991591	-75.074770	18.501305			
39617	8.763591	-2.424547	0.494302	0.788513	-1.270244	-0.830043	-42.791031	-74.962183	19.351446			
39618	8.477995	-2.346367	0.309822	0.918222	-1.259953	-1.149716	-43.702552	-74.871638	20.329358			
39619	8.317557	-2.136324	0.355115	0.917646	-1.025408	-1.328698	-44.637305	-74.807571	21.360280			
39620	8.488728	-1.901599	0.640522	0.786939	-0.642140	-1.149367	-45.522609	-74.779036	22.414824			
39621	8.827563	-1.548769	1.018071	0.653587	-0.101135	-0.816937	-46.237989	-74.755355	23.344229			
39622	9.409643	-1.099973	1.445664	0.569112	0.565764	-0.262963	-46.651628	-74.703641	23.986921			
39623	9.759492	-0.687478	2.052381	0.262258	1.237010	0.103642	-46.729267	-74.583179	24.241689			
39624	9.896529	-0.347084	2.218567	0.289081	1.637247	0.198285	-46.556035	-74.403954	24.170612			
39625	9.844029	0.094014	1.923441	0.733720	1.924328	0.004229	-46.305106	-74.185994	23.917733			
39626	9.414225	0.397395	1.706679	0.969340	2.072654	-0.514158	-46.062434	-73.969379	23.591978			
39627	9.207358	0.488243	1.652182	1.037067	2.114100	-0.746350	-45.900731	-73.773741	23.269368			
39628	9.221216	0.365312	1.758190	0.936685	2.048490	-0.692286	-45.821970	-73.610528	22.971106			
39629	9.276056	0.085491	1.511498	1.102237	1.705286	-0.635861	-45.826045	-73.460617	22.715022			
39630	9.425248	-0.236193	1.385727	1.164629	1.384580	-0.456522	-45.919546	-73.316498	22.519674			
39631	9.471485	-0.412536	1.334941	1.183572	1.218824	-0.390647	-46.105322	-73.161991	22.415271			
39632	9.770829	-0.698417	1.284747	1.226935	0.988612	-0.059501	-46.430280	-72.996591	22.455711			
39633	9.889291	-0.776758	1.239834	1.294659	0.934408	0.055912	-46.790242	-72.810394	22.573738			
39634	9.600186	-0.789266	1.082040	1.378469	0.848902	-0.255681	-47.151974	-72.590094	22.736020			
39635	9.453351	-0.922471	1.177610	1.234501	0.779141	-0.353705	-47.444393	-72.344465	22.864812			
39636	9.346141	-1.119840	1.687185	0.716245	0.833159	-0.313022	-47.646416	-72.082001	22.920191			
39637	9.134416	-1.338275	1.827886	0.488121	0.695642	-0.439996	-47.737763	-71.808929	22.865407			
39638	8.956929	-1.560299	1.809106	0.409125	0.486225	-0.564444	-47.753649	-71.535702	22.713627			
39639	8.803030	-1.907734	1.930882	0.164614	0.226683	-0.604949	-47.725563	-71.263926	22.483752			
39640	8.726999	-2.068083	2.112986	-0.039091	0.169544	-0.600099	-47.704852	-71.011409	22.241208			
39641	8.690744	-2.004076	1.935065	0.164123	0.157410	-0.689200	-47.756312	-70.804216	22.065330			
39642	8.587751	-1.911309	1.637767	0.451386	0.108817	-0.875730	-47.940863	-70.654155	22.015060			
39643	8.600550	-1.811775	1.440992	0.676333	0.126239	-0.932650	-48.262671	-70.585110	22.162515			
39644	8.806536	-1.768207	1.160054	0.996174	0.081461	-0.811114	-48.708960	-70.600285	22.527489			
39645	9.095527	-1.765510	1.046405	1.166859	0.088372	-0.562219	-49.186609	-70.689402	23.043527			
39646	9.205879	-1.450077	1.092503	1.261978	0.419823	-0.524223	-49.610880	-70.803658	23.616448			
39647	9.723510	-1.397694	1.253867	1.270146	0.621206	-0.010997	-49.905820	-70.941639	24.119918			
39648	10.413064	-1.417197	1.442904	1.272845	0.784735	0.689041	-49.966059	-71.098657	24.430511			
39649	10.864222	-1.453651	1.466518	1.345853	0.811656	1.133769	-49.677380	-71.230118	24.409366			
39650	11.313333	-1.530120	1.800706	1.142299	0.922426	1.651146	-49.143940	-71.335453	24.089039			
39651	11.721607	-1.481486	1.777323	1.296677	0.966375	2.025146	-48.415121	-71.427493	23.528980			
39652	12.445916	-1.509921	2.075783	1.239604	1.107810	2.785939	-47.548051	-71.503880	22.755472			
39653	12.746518	-1.467543	2.363466	1.098425	1.242360	3.128062	-46.658115	-71.598766	21.849525			
39654	12.701411	-1.524572	1.442744	1.862269	0.722095	2.905089	-45.994898	-71.783349	21.063610			
39655	12.646566	-1.469485	0.605170	2.569273	0.340343	2.667049	-45.571878	-72.047587	20.384443			
39656	12.224414	-1.616223	0.108959	2.771683	-0.109270	2.202537	-45.383883	-72.371243	19.829474			
39657	12.484170	-3.614888	0.022580	2.040300	-1.952041	2.873843	-45.395638	-72.770524	19.287954			
39658	12.332131	-4.576239	0.031631	1.495345	-2.868822	2.937103	-45.112566	-73.168943	18.599034			
39659	12.059391	-4.986418	0.254690	0.965014	-3.216398	2.800035	-44.531942	-73.493585	17.571201			
39660	10.391855	-5.107865	0.343143	0.316119	-3.489559	1.229102	-43.615115	-73.711227	16.203783			
39661	9.336043	-5.260495	1.160209	-0.785269	-3.381345	0.391726	-42.529485	-73.865873	14.672151			
39662	8.210443	-5.404338	1.568405	-1.531466	-3.446000	-0.600874	-41.126953	-73.941408	12.933823			
39663	7.684794	-5.308865	2.940833	-2.813356	-2.788773	-0.857457	-39.588838	-73.957744	11.126690			
39664	8.324454	-5.274884	3.610291	-3.195742	-2.460009	-0.122985	-37.929399	-73.991370	9.337847			
39665	8.906969	-4.393700	4.065484	-3.020323	-1.516623	0.372783	-36.135339	-74.019296	7.466782			
39666	8.890572	-3.266797	4.333367	-2.732872	-0.481872	0.226784	-34.358820	-74.051655	5.624403			
39667	9.236629	-2.071446	4.318485	-2.079405	0.493156	0.370044	-32.898333	-74.138634	4.058392			
39668	9.623288	-1.302946	4.100492	-1.448816	1.010038	0.579613	-31.862152	-74.281869	2.861919			
39669	10.254454	-0.638544	3.796547	-0.737262	1.413694	1.023969	-31.291278	-74.475167	2.077004			
39670	11.215455	-0.541931	3.302841	-0.052029	1.247772	1.824714	-31.159241	-74.685571	1.646866			
39671	11.864714	-0.576149	2.764496	0.524401	0.954178	2.334754	-31.269510	-74.836576	1.377232			
39672	12.224225	-0.965968	2.275465	0.823310	0.377186	2.626058	-31.454348	-74.890132	1.084835			
39673	11.924184	-1.355590	2.152071	0.661883	-0.022476	2.361736	-31.509757	-74.810980	0.588852			
39674	11.527577	-1.704125	2.209841	0.365265	-0.298933	2.038454	-31.411923	-74.606172	-0.134635			
39675	10.476830	-1.750317	2.236549	0.088873	-0.336067	1.036672	-31.136453	-74.284858	-1.114975			
39676	9.291274	-1.521115	2.387929	-0.178125	-0.070683	-0.101524	-30.796562	-73.908832	-2.269966			
39677	8.122081	-1.364874	2.555071	-0.494077	0.152904	-1.205035	-30.491753	-73.533021	-3.501030			
39678	7.364411	-1.116702	2.658193	-0.601143	0.424568	-1.938318	-30.251404	-73.196276	-4.734306			
39679	6.980864	-0.980778	2.815142	-0.708690	0.635672	-2.281891	-30.111741	-72.907619	-5.892404			
39680	6.741599	-0.763780	2.742705	-0.553354	0.780556	-2.557392	-30.051355	-72.661040	-6.970728			
39681	6.685301	-0.685802	2.580775	-0.360841	0.753016	-2.662400	-30.105843	-72.467366	-7.917437			
39682	6.862205	-0.606493	2.438029	-0.119669	0.726847	-2.542270	-30.283628	-72.319724	-8.717796			
39683	6.947225	-0.579291	2.222705	0.110370	0.616452	-2.522442	-30.570931	-72.200884	-9.397495			
39684	7.100346	-0.585958	2.114724	0.256380	0.542641	-2.405254	-30.953251	-72.101997	-9.991022			
39685	7.268792	-0.665947	1.962722	0.388416	0.383130	-2.273895	-31.397810	-72.010655	-10.549354			
39686	7.498323	-0.833598	1.862941	0.441536	0.188047	-2.056405	-31.888360	-71.909038	-11.104383			
39687	7.677120	-0.914155	1.787771	0.516730	0.077551	-1.894550	-32.442797	-71.787009	-11.636446			
39688	7.794497	-1.034892	1.782005	0.499826	-0.009604	-1.765903	-33.058363	-71.641124	-12.151403			
39689	7.907687	-1.080575	1.940837	0.426694	0.076804	-1.610375	-33.755574	-71.474895	-12.620019			
39690	7.969543	-1.066316	2.151834	0.354061	0.252849	-1.500553	-34.529011	-71.295259	-13.032381			
39691	7.819418	-0.871105	2.609097	0.199063	0.754991	-1.560438	-35.365772	-71.129886	-13.380744			
39692	8.038904	-0.828637	2.265158	0.553217	0.540853	-1.455487	-36.337041	-71.016706	-13.601441			
39693	8.004801	-0.533796	2.498038	0.660925	0.941860	-1.489360	-37.389511	-70.906091	-13.773757			
39694	8.473587	-0.469267	2.640094	0.823907	1.088544	-1.030438	-38.533614	-70.807809	-13.896508			
39695	8.981702	-0.240959	2.959738	1.036851	1.471074	-0.525626	-39.604214	-70.673110	-14.115722			
39696	9.096202	-0.220405	2.818639	1.234349	1.385532	-0.469751	-40.610665	-70.523671	-14.445804			
39697	9.159795	-0.369512	2.598195	1.322427	1.132051	-0.444750	-41.605703	-70.358033	-14.866270			
39698	9.003310	-0.738070	2.017403	1.338088	0.474161	-0.666179	-42.700715	-70.148908	-15.365563			
39699	8.993886	-1.151049	1.123967	1.482096	-0.483908	-0.810059	-43.890293	-69.954511	-15.873965			
39700	9.367931	-1.489543	0.798572	1.500635	-0.957589	-0.461448	-45.073772	-69.806998	-16.372850			
39701	9.980961	-1.577745	1.313801	1.422876	-0.595903	0.259809	-46.190714	-69.702135	-16.864623			
39702	10.664219	-1.519445	2.136766	1.390450	0.108511	1.080188	-47.212525	-69.609284	-17.376379			
39703	11.042558	-1.226925	2.241524	1.768087	0.311648	1.378578	-48.196623	-69.529691	-17.869314			
39704	11.298710	-0.998048	2.256784	2.091105	0.406043	1.554469	-49.182198	-69.453096	-18.370131			
39705	11.353520	-0.939962	2.196942	2.226283	0.372288	1.567883	-50.103927	-69.373818	-18.971556			
39706	11.076331	-1.020735	2.448830	2.029734	0.602749	1.378399	-50.934981	-69.291497	-19.713735			
39707	10.722783	-1.052002	2.618394	1.884485	0.786846	1.085484	-51.734794	-69.233721	-20.529587			
39708	10.408724	-1.208645	2.533597	1.707861	0.693745	0.809141	-52.553552	-69.209097	-21.375815			
39709	9.940057	-1.339697	2.439968	1.496204	0.630015	0.381296	-53.377838	-69.205318	-22.241049			
39710	9.611310	-1.221958	2.465908	1.529783	0.734897	0.039760	-54.215280	-69.215361	-23.120573			
39711	9.434476	-1.094477	2.669489	1.596503	0.988431	-0.127267	-55.099013	-69.231907	-24.009800			
39712	9.322421	-1.099084	2.497410	1.630985	0.840336	-0.274025	-56.107382	-69.247842	-24.857199			
39713	9.289119	-1.236949	1.726229	1.626083	0.079288	-0.424018	-57.343938	-69.265515	-25.572812			
39714	9.645607	-1.584911	0.962861	1.503536	-0.749518	-0.135173	-58.875967	-69.277647	-26.068754			
39715	10.384409	-1.954200	-0.099791	1.451332	-1.904399	0.479612	-60.742558	-69.268385	-26.277184			
39716	11.411357	-2.479852	-1.045655	1.285286	-2.966353	1.457194	-62.911257	-69.194354	-26.199411			
39717	12.388737	-2.957868	-1.416504	1.128376	-3.408652	2.489471	-65.256338	-69.021851	-25.912433			
39718	13.541461	-3.672664	-1.317391	0.846821	-3.380724	3.841885	-67.561391	-68.737442	-25.604509			
39719	14.140836	-4.530120	-1.363366	0.280666	-3.379361	4.707773	-69.507866	-68.350727	-25.600524			
39720	13.059364	-5.188527	-1.444440	-0.647436	-3.150835	3.942546	-70.867262	-67.884874	-26.144429			
39721	11.031607	-5.315363	-1.462265	-1.410150	-2.748512	2.126507	-71.743299	-67.410559	-27.158845			
39722	9.113061	-4.970186	-0.984754	-1.635119	-1.928876	0.302939	-72.360813	-66.992509	-28.406808			
39723	7.510592	-4.249850	-0.073692	-1.310249	-0.805431	-1.320930	-72.867857	-66.683058	-29.707097			
39724	6.350429	-3.120929	0.548537	-0.505808	-0.144168	-2.735097	-73.439532	-66.501749	-30.881319			
39725	5.968799	-2.119560	0.385541	0.242021	-0.406420	-3.484658	-74.175060	-66.437372	-31.889108			
39726	5.773262	-1.362203	0.086142	0.766042	-0.813133	-3.986406	-75.114693	-66.456610	-32.741272			
39727	5.932392	-0.760702	-0.341553	1.198453	-1.399533	-4.112374	-76.289868	-66.522732	-33.400210			
39728	6.788857	-0.607097	-0.667272	1.475382	-1.926432	-3.408438	-77.688089	-66.604851	-33.863807			
39729	7.903947	-0.781108	-1.471868	1.344432	-2.837630	-2.370311	-79.195920	-66.668657	-34.230052			
39730	8.904856	-1.365782	-2.530148	0.681490	-3.776623	-1.278316	-80.688600	-66.675728	-34.629739			
39731	10.300283	-2.428840	-3.065473	-0.053997	-4.102606	0.412630	-82.019551	-66.604805	-35.168514			
39732	11.623650	-3.598662	-3.319801	-0.762168	-4.079198	2.097782	-82.988967	-66.458712	-36.002861			
39733	11.940775	-4.471184	-3.841144	-1.678594	-4.162302	2.724655	-83.472514	-66.245329	-37.285800			
39734	11.245716	-4.897983	-4.043100	-2.411263	-3.916154	2.255948	-83.588711	-65.988655	-38.937851			
39735	9.723098	-4.931840	-3.940540	-2.934040	-3.368209	0.884760	-83.612380	-65.748147	-40.698100			
39736	8.622286	-4.795950	-2.801146	-2.572643	-2.141200	-0.117965	-83.860364	-65.571997	-42.192704			
39737	8.366172	-4.462007	-1.713089	-1.770676	-1.303816	-0.431782	-84.438682	-65.501665	-43.229540			
39738	8.251647	-3.847811	-0.845480	-0.817036	-0.860975	-0.746211	-85.281120	-65.531929	-43.883161			
39739	8.364287	-3.328919	-0.540484	-0.206844	-0.887437	-0.840264	-86.362734	-65.660665	-44.210521			
39740	8.519474	-3.053747	-0.578766	0.016910	-1.050745	-0.805082	-87.550065	-65.852748	-44.382032			
39741	9.038059	-3.005314	-0.529058	0.240635	-1.114421	-0.341786	-88.708317	-66.095193	-44.519545			
39742	9.504448	-2.873617	-0.361635	0.576242	-1.133883	0.041491	-89.698454	-66.356835	-44.778268			
39743	9.963252	-2.512638	-0.452255	0.865484	-1.495822	0.326218	-90.560813	-66.623327	-45.157444			
39744	10.398166	-1.965496	-0.639809	1.174958	-2.057444	0.520777	-91.322543	-66.870109	-45.669325			
39745	10.500469	-1.446609	-0.828009	1.347095	-2.525915	0.426595	-91.996417	-67.096522	-46.324462			
39746	10.423896	-0.967904	-1.079114	1.376010	-2.973967	0.188345	-92.653405	-67.302397	-47.046075			
39747	10.008863	-0.644726	-1.243601	1.268950	-3.169617	-0.300463	-93.282095	-67.489552	-47.855902			
39748	9.570497	-0.596848	-1.341479	1.039361	-3.122399	-0.706639	-93.900322	-67.662858	-48.730515			
39749	9.346999	-0.891927	-1.516536	0.612354	-2.923841	-0.782873	-94.509660	-67.831718	-49.666430			
39750	9.342536	-1.382232	-1.450463	0.339321	-2.483907	-0.592487	-95.047857	-67.992676	-50.679959			
39751	9.400734	-2.092469	-1.714941	-0.284245	-2.064399	-0.254950	-95.531032	-68.151111	-51.749152			
39752	9.480526	-2.748389	-2.209799	-1.049912	-1.787363	0.087805	-95.952658	-68.302593	-52.844524			
39753	9.511907	-3.080782	-2.637195	-1.605526	-1.684670	0.262330	-96.297590	-68.459715	-53.951646			
39754	9.582501	-3.288886	-2.611137	-1.701114	-1.448725	0.408172	-96.571992	-68.619834	-55.074882			
39755	9.685471	-3.532166	-2.305666	-1.553998	-1.060392	0.582543	-96.721254	-68.796225	-56.267803			
39756	9.662226	-3.722018	-1.919370	-1.330251	-0.653912	0.613168	-96.693061	-68.989946	-57.578273			
39757	9.595509	-3.729236	-1.590850	-1.089211	-0.427720	0.538261	-96.512437	-69.209628	-58.997470			
39758	9.643885	-3.753827	-1.359490	-0.922108	-0.274288	0.580487	-96.223146	-69.452652	-60.502839			
39759	9.524971	-3.745162	-1.228264	-0.863609	-0.143683	0.458297	-95.883688	-69.713657	-62.034010			
39760	9.438607	-3.549884	-1.219197	-0.845096	-0.234509	0.306891	-95.572424	-69.979312	-63.511600			
39761	9.363198	-3.368831	-1.195071	-0.815754	-0.310089	0.171537	-95.334187	-70.248895	-64.907925			
39762	9.382973	-3.098377	-1.281139	-0.847556	-0.532004	0.100924	-95.182958	-70.515870	-66.193413			
39763	9.362458	-2.921336	-1.269730	-0.823936	-0.624906	0.022571	-95.074197	-70.780117	-67.426576			
39764	9.140371	-2.665791	-1.460036	-0.995959	-0.790045	-0.264491	-95.038777	-71.028665	-68.576313			
39765	9.184061	-2.531776	-1.552712	-1.075689	-0.893669	-0.262207	-95.070402	-71.265503	-69.657963			
39766	9.386823	-2.617259	-1.694440	-1.238217	-0.855583	-0.036795	-95.133392	-71.483868	-70.693040			
39767	9.517578	-2.901337	-2.057714	-1.665047	-0.660794	0.188653	-95.160195	-71.687577	-71.743740			
39768	9.505538	-3.132581	-2.202017	-1.876590	-0.411688	0.253382	-95.107981	-71.873740	-72.838236			
39769	9.622722	-3.373281	-1.988220	-1.721586	-0.114357	0.431900	-95.029905	-72.052650	-73.932706			
39770	9.751781	-3.502582	-1.728974	-1.494318	0.075381	0.585185	-94.887383	-72.220761	-75.063432			
39771	9.748240	-3.679739	-1.632895	-1.442753	0.312006	0.630296	-94.678067	-72.383771	-76.238039			
39772	9.656361	-3.768715	-1.474293	-1.318272	0.495642	0.562204	-94.424377	-72.530872	-77.421908			
39773	9.559193	-3.857579	-1.209924	-1.085179	0.687934	0.486439	-94.137666	-72.666455	-78.602751			
39774	9.537567	-3.857870	-1.170126	-1.057176	0.735064	0.461527	-93.790563	-72.785813	-79.798312			
39775	9.350667	-3.877011	-1.286194	-1.196682	0.827663	0.286981	-93.350106	-72.895020	-81.049473			
39776	9.118013	-3.782527	-1.385471	-1.312728	0.825852	0.034131	-92.828596	-72.980140	-82.345141			
39777	9.003896	-3.530223	-1.206818	-1.137758	0.660387	-0.155652	-92.273625	-73.051988	-83.622027			
39778	8.944059	-3.383286	-0.875354	-0.820838	0.581633	-0.262980	-91.670161	-73.110153	-84.895368			
39779	8.849864	-3.271282	-0.705487	-0.671809	0.528591	-0.389934	-91.021485	-73.172801	-86.160374			
39780	8.824554	-3.180414	-0.527661	-0.517481	0.472562	-0.443854	-90.327977	-73.238365	-87.434611			
39781	8.901093	-3.175276	-0.219421	-0.237842	0.472257	-0.374452	-89.582206	-73.316794	-88.749325			
39782	9.160607	-2.988181	-0.052180	-0.096770	0.237656	-0.180310	-88.803286	-73.400336	-90.085977			
39783	9.529990	-2.889418	-0.079217	-0.158724	0.053421	0.144598	-88.016832	-73.489514	-91.446506			
39784	9.760078	-2.758020	0.140447	0.021039	-0.119677	0.329827	-87.212716	-73.571630	-92.821348			
39785	9.818451	-2.681618	0.124425	-0.036612	-0.193770	0.364222	-86.423859	-73.640241	-94.189658			
39786	9.779259	-2.699618	-0.006031	-0.206674	-0.149515	0.329140	-85.627429	-73.688223	-95.565902			
39787	9.675468	-2.721642	-0.078835	-0.316739	-0.083529	0.233246	-84.803021	-73.721057	-96.985751			
39788	9.628987	-2.811309	-0.051531	-0.325924	0.026320	0.213102	-83.965429	-73.729172	-98.417337			
39789	9.683461	-2.887271	0.011636	-0.303185	0.091517	0.287087	-83.097904	-73.726023	-99.871344			
39790	9.751038	-2.969260	0.166065	-0.190985	0.150848	0.378850	-82.195019	-73.707542	-101.345185			
39791	9.729020	-3.074289	0.373408	-0.021224	0.250527	0.394229	-81.251705	-73.683849	-102.843907			
39792	9.723298	-3.195553	0.537160	0.105266	0.360443	0.429454	-80.294465	-73.648302	-104.330632			
39793	9.575296	-3.321641	0.665659	0.208038	0.514535	0.329033	-79.318445	-73.607146	-105.818206			
39794	9.235868	-3.342808	0.896037	0.421399	0.607021	0.022571	-78.332734	-73.556953	-107.281519			
39795	8.952147	-3.262102	1.202472	0.700945	0.575569	-0.252068	-77.379503	-73.511977	-108.674070			
39796	8.531991	-2.997641	1.529715	1.000362	0.398388	-0.704384	-76.487818	-73.471517	-109.963643			
39797	8.223807	-2.511267	1.874592	1.288266	-0.025753	-1.106875	-75.680204	-73.448175	-111.117433			
39798	7.970334	-1.989397	2.346788	1.694530	-0.517218	-1.454918	-74.958222	-73.438769	-112.125560			
39799	7.986227	-1.542341	2.691020	1.954898	-0.991660	-1.530470	-74.290552	-73.443728	-112.984017			
39800	8.166197	-1.347682	2.962180	2.149657	-1.257483	-1.382080	-73.533129	-73.465374	-113.956310			
39801	8.398462	-1.248776	3.462693	2.568418	-1.473276	-1.134187	-72.565839	-73.489639	-115.090287			
39802	8.876554	-1.343162	3.984932	2.987614	-1.570249	-0.588526	-71.365304	-73.519098	-116.534134			
39803	9.378472	-1.525719	4.252048	3.148908	-1.545907	-0.011790	-69.971718	-73.546472	-118.163326			
39804	9.904554	-1.717322	4.127652	2.908360	-1.457181	0.555746	-68.475223	-73.561805	-120.012047			
39805	10.326944	-1.955078	3.967964	2.645179	-1.288129	1.029637	-66.994589	-73.545970	-121.853731			
39806	10.737718	-2.246678	3.784377	2.365407	-1.063541	1.498408	-65.697292	-73.504270	-123.619606			
39807	10.910098	-2.512902	3.366286	1.896914	-0.768300	1.697650	-64.642130	-73.423365	-125.127377			
39808	10.855918	-2.781554	3.117720	1.642543	-0.454571	1.693977	-63.821342	-73.314345	-126.453050			
39809	10.613015	-2.864052	3.137123	1.662885	-0.331543	1.492404	-63.119689	-73.185704	-127.635439			
39810	10.416316	-2.920013	3.285675	1.802152	-0.275646	1.345172	-62.467528	-73.049063	-128.739686			
39811	10.246037	-2.929330	3.438527	1.935211	-0.271248	1.213051	-61.788982	-72.921307	-129.826547			
39812	9.913284	-2.810568	4.018948	2.489979	-0.443778	0.954266	-61.048337	-72.805699	-130.926620			
39813	9.502639	-2.661472	4.172002	2.643852	-0.530130	0.556402	-60.267607	-72.730555	-132.016303			
39814	9.094463	-2.426544	3.610597	2.101748	-0.527966	0.033001	-59.500215	-72.701149	-133.065417			
39815	8.748784	-2.206862	3.749001	2.230435	-0.679836	-0.324307	-58.733799	-72.714846	-134.109424			
39816	8.453815	-1.871741	3.690132	2.144339	-0.902321	-0.692653	-58.014662	-72.779905	-135.069046			
39817	8.218154	-1.403304	3.524108	1.923790	-1.232797	-1.054501	-57.349988	-72.894521	-135.943996			
39818	8.322038	-1.157124	3.777316	2.083581	-1.523996	-0.969643	-56.776264	-73.046003	-136.729099			
39819	8.570234	-0.889780	3.914561	2.098948	-1.833087	-0.768433	-56.167836	-73.208604	-137.545980			
39820	8.908739	-0.484136	3.811060	1.826125	-2.230045	-0.548982	-55.407059	-73.307283	-138.625909			
39821	8.544191	-0.281892	2.830438	0.897128	-2.075063	-1.095854	-54.654082	-73.354839	-139.851044			
39822	8.662035	-0.365370	2.114097	0.175868	-1.802937	-1.074720	-53.887804	-73.390107	-141.122983			
39823	8.832122	-0.629447	2.570282	0.594592	-1.681413	-0.766802	-52.993841	-73.399529	-142.501456			
39824	8.857750	-0.453704	2.058230	0.027776	-1.678409	-0.863727	-52.184487	-73.422496	-143.735891			
39825	8.944581	-0.156669	2.549617	0.361939	-2.084945	-0.754406	-51.354614	-73.436714	-144.992267			
39826	8.768446	-0.057454	2.976018	0.739952	-2.251025	-0.861106	-50.580757	-73.430867	-146.226760			
39827	8.395724	-0.164412	2.690578	0.550109	-1.983204	-1.238392	-49.818752	-73.415710	-147.501826			
39828	7.912102	-0.727873	2.914867	0.993366	-1.433051	-1.530955	-49.078105	-73.406460	-148.783422			
39829	7.727949	-1.471619	3.042091	1.337548	-0.736454	-1.517525	-48.351857	-73.412278	-150.061845			
39830	7.566208	-2.208985	3.012148	1.547013	-0.005981	-1.517698	-47.750474	-73.429129	-151.233291			
39831	7.702151	-2.703877	2.980171	1.628128	0.451926	-1.288576	-47.358801	-73.488099	-152.177857			
39832	8.036412	-3.329806	3.160775	1.913311	0.925033	-0.804604	-47.185791	-73.578074	-152.850355			
39833	8.241512	-3.913238	3.318279	2.211510	1.379531	-0.461057	-47.134593	-73.700301	-153.285682			
39834	8.424426	-4.240293	3.023708	2.031934	1.761474	-0.280521	-47.240635	-73.851771	-153.448343			
