// General information: 
//  MT Manager version: 2022.0.0 
//  XDA version: 2022.0.0 build 7085 rev 119802 built on 2022-11-08
// Device information: 
//  DeviceId: 00B4938A
//  ProductCode: MTW2-3A7G6
//  Firmware Version: 4.6.0
//  Hardware Version: 2.0.0
// Device settings: 
//  Filter Profile: human(46.1)
//  Option Flags: Orientation Smoother Disabled, Position/Velocity Smoother Disabled, Continuous Zero Rotation Update Disabled, AHS Disabled, ICC Disabled
// Coordinate system: ENU
PacketCounter	Acc_X	Acc_Y	Acc_Z	FreeAcc_E	FreeAcc_N	FreeAcc_U	Roll	Pitch	Yaw	Vel_E	Vel_N	Vel_U
38738	9.198493	-0.881490	3.078257	0.236887	-0.048674	-0.075825	-11.923156	-71.272310	96.342123			
38739	9.274153	-0.952224	3.155661	0.289855	-0.098480	0.025052	-12.023566	-71.239697	96.451708			
38740	9.376033	-0.945814	3.206680	0.269183	-0.107861	0.137351	-12.095846	-71.203991	96.536467			
38741	9.433862	-1.004448	3.117254	0.329850	-0.003974	0.168050	-12.164087	-71.162311	96.602497			
38742	9.485702	-0.974703	3.007012	0.305233	0.127343	0.180376	-12.222200	-71.107935	96.652050			
38743	9.341764	-0.944718	2.975243	0.279447	0.122826	0.032105	-12.289355	-71.046809	96.714298			
38744	9.197978	-0.969356	2.969356	0.305115	0.090721	-0.104022	-12.353554	-70.977876	96.779405			
38745	9.000409	-1.114040	3.060243	0.442169	-0.061338	-0.251607	-12.424641	-70.921208	96.864369			
38746	9.034607	-1.296956	3.180242	0.605621	-0.170655	-0.167779	-12.490254	-70.879570	96.958614			
38747	9.217854	-1.333932	3.277643	0.620782	-0.201041	0.039488	-12.559973	-70.858947	97.057554			
38748	9.434030	-1.306462	3.274001	0.580766	-0.122221	0.240900	-12.636880	-70.847987	97.152380			
38749	9.565394	-1.286451	3.205722	0.558125	-0.013042	0.341951	-12.707964	-70.847179	97.235572			
38750	9.634005	-1.271608	3.100298	0.548082	0.110152	0.372123	-12.746689	-70.844428	97.292080			
38751	9.529339	-1.252104	3.098054	0.532026	0.080197	0.271187	-12.747484	-70.841224	97.325925			
38752	9.397984	-1.229825	3.028583	0.522811	0.106456	0.123219	-12.725693	-70.832085	97.351806			
38753	9.405890	-1.209993	3.046516	0.502956	0.097102	0.134861	-12.660756	-70.808628	97.347761			
38754	9.418038	-1.222252	3.064591	0.517047	0.089325	0.152740	-12.551528	-70.776491	97.324657			
38755	9.402751	-1.253414	3.086325	0.553406	0.069176	0.147088	-12.386741	-70.737058	97.268552			
38756	9.191721	-1.203260	3.090773	0.521779	0.009867	-0.054815	-12.163890	-70.689073	97.172364			
38757	9.039584	-1.142189	3.090362	0.479558	-0.024985	-0.203401	-11.912583	-70.646187	97.059043			
38758	8.806039	-0.982880	3.016410	0.350109	-0.010747	-0.459165	-11.662705	-70.603847	96.942714			
38759	8.726801	-0.875963	2.993920	0.260474	-0.000651	-0.548776	-11.455310	-70.576923	96.852385			
38760	8.751776	-0.812929	3.042033	0.201806	-0.027926	-0.513930	-11.301151	-70.558957	96.813527			
38761	8.926831	-0.747600	3.074382	0.133546	0.007197	-0.342674	-11.207034	-70.546873	96.837938			
38762	9.062059	-0.723013	3.052044	0.108990	0.078457	-0.224121	-11.159966	-70.522813	96.908584			
38763	9.205845	-0.790766	3.096937	0.167681	0.083824	-0.069548	-11.160912	-70.497911	97.021975			
38764	9.253694	-0.768864	3.125426	0.140047	0.078733	-0.016541	-11.193137	-70.473770	97.161519			
38765	9.315287	-0.764178	3.165432	0.126946	0.065117	0.054335	-11.238142	-70.455761	97.306571			
38766	9.262715	-0.724949	3.231457	0.081721	-0.008174	0.023929	-11.291188	-70.426469	97.447131			
38767	9.070622	-0.738046	3.238396	0.098631	-0.074949	-0.153870	-11.358356	-70.398378	97.577940			
38768	8.920395	-0.725219	3.184845	0.092429	-0.069860	-0.313782	-11.418472	-70.377202	97.696073			
38769	8.799779	-0.756643	3.040531	0.135880	0.025719	-0.472756	-11.485827	-70.372903	97.820207			
38770	8.846092	-0.767719	2.978998	0.146216	0.098535	-0.448602	-11.525042	-70.376047	97.917849			
38771	8.897302	-0.864868	2.942103	0.241856	0.143846	-0.405947	-11.539720	-70.388707	97.997643			
38772	9.024813	-0.829636	2.943432	0.200703	0.184807	-0.287726	-11.529574	-70.405341	98.062003			
38773	9.092910	-0.768074	2.992543	0.134231	0.160953	-0.211524	-11.497431	-70.429860	98.111744			
38774	9.153437	-0.703134	2.957020	0.071828	0.214343	-0.170453	-11.439018	-70.452955	98.146423			
38775	9.230758	-0.760980	3.030984	0.124520	0.164445	-0.069469	-11.378432	-70.472601	98.193027			
38776	9.243687	-0.899649	3.167054	0.256504	0.032601	-0.003585	-11.339218	-70.484665	98.261804			
38777	9.035529	-1.049263	3.197347	0.414918	-0.072241	-0.180066	-11.348340	-70.492218	98.377403			
38778	8.658946	-1.155309	3.230467	0.534505	-0.232513	-0.517084	-11.447008	-70.496647	98.580860			
38779	8.238475	-1.057855	3.100533	0.458782	-0.245835	-0.962043	-11.645722	-70.499292	98.911780			
38780	8.175869	-0.744965	3.009365	0.142555	-0.170090	-1.071588	-11.968333	-70.494588	99.402415			
38781	8.364704	-0.197504	2.910228	-0.427586	0.002653	-0.964307	-12.401261	-70.460661	100.043467			
38782	8.934402	0.141609	2.914271	-0.827427	0.196437	-0.452493	-12.978291	-70.400396	100.840817			
38783	9.380964	0.187267	3.254014	-0.955005	0.024225	0.072321	-13.664767	-70.328295	101.721851			
38784	10.137640	-0.177029	3.701238	-0.709834	-0.158686	0.956389	-14.460124	-70.293470	102.652211			
38785	11.122147	-0.919380	3.675963	-0.093780	0.162381	1.935704	-15.281598	-70.332551	103.566261			
38786	11.687267	-1.340125	3.360333	0.244051	0.621953	2.403425	-15.933361	-70.350113	104.371900			
38787	11.283804	-1.119041	2.748472	0.042198	1.073053	1.805283	-16.301313	-70.228792	104.933177			
38788	10.080409	-0.322456	2.281211	-0.656237	1.155332	0.441919	-16.390927	-69.985569	105.286809			
38789	9.555530	0.667125	1.970258	-1.603428	1.307428	-0.254722	-16.472055	-69.801460	105.622134			
38790	10.146808	1.117691	1.897839	-2.123155	1.587197	0.226323	-16.603210	-69.686126	105.940953			
38791	10.848230	1.215466	2.093538	-2.309541	1.642116	0.935048	-16.743909	-69.634481	106.192959			
38792	11.135064	1.143549	2.196982	-2.279294	1.642090	1.243191	-16.834245	-69.624474	106.287293			
38793	10.735692	0.865066	1.969470	-1.957783	1.726089	0.820747	-16.775789	-69.628871	106.172188			
38794	10.221133	0.796722	1.779195	-1.823375	1.737122	0.283329	-16.541896	-69.644387	105.873007			
38795	9.865794	0.631604	1.801461	-1.604636	1.600553	-0.022826	-16.176104	-69.688610	105.433968			
38796	9.845137	0.348600	1.931990	-1.295237	1.469661	0.033286	-15.693487	-69.776992	104.914089			
38797	10.189833	0.037868	2.023938	-0.982022	1.490219	0.421822	-15.125656	-69.900812	104.320445			
38798	10.046373	-0.296433	2.105434	-0.595815	1.357898	0.348576	-14.440441	-69.992013	103.621079			
38799	9.824646	-0.551470	1.958343	-0.273604	1.419614	0.115683	-13.705378	-70.061319	102.865676			
38800	9.631112	-0.440430	1.781091	-0.318514	1.525745	-0.133066	-12.931285	-70.075428	102.081303			
38801	9.335454	-0.309996	1.648705	-0.381098	1.563456	-0.465215	-12.211071	-70.035815	101.321848			
38802	9.380864	-0.232989	1.577803	-0.421620	1.664324	-0.453388	-11.578365	-69.944572	100.635975			
38803	9.343291	-0.292968	1.664104	-0.331104	1.594692	-0.458579	-11.072586	-69.810344	100.057070			
38804	9.082642	-0.110162	1.641786	-0.473483	1.557643	-0.726906	-10.660694	-69.639100	99.572208			
38805	8.944352	0.079247	1.427444	-0.631504	1.745124	-0.946970	-10.390435	-69.446772	99.198214			
38806	8.804534	0.245165	1.285549	-0.774230	1.865092	-1.143520	-10.231149	-69.238563	98.911144			
38807	8.689203	0.357052	1.241167	-0.872956	1.900962	-1.280722	-10.196723	-69.035365	98.719552			
38808	8.911603	0.316130	1.270559	-0.845070	1.981711	-1.066857	-10.289606	-68.866216	98.613546			
38809	8.970960	0.076990	1.181820	-0.609193	2.107566	-1.033864	-10.428734	-68.711841	98.538353			
38810	9.137393	-0.305236	1.039674	-0.234315	2.313715	-0.910001	-10.594140	-68.585639	98.482102			
38811	9.239870	-0.504529	1.036419	-0.044522	2.365543	-0.806794	-10.742018	-68.485455	98.443514			
38812	9.502454	-0.736408	1.103120	0.165267	2.404423	-0.525749	-10.913785	-68.412876	98.431454			
38813	9.853415	-0.974957	1.120825	0.378065	2.519570	-0.179131	-11.069509	-68.323248	98.436757			
38814	9.784005	-1.027974	1.282221	0.418761	2.359091	-0.185286	-11.239438	-68.181970	98.456021			
38815	9.678514	-1.223936	1.225720	0.613778	2.390654	-0.295229	-11.423599	-67.990316	98.493449			
38816	9.463464	-1.300097	1.336198	0.682964	2.235879	-0.454957	-11.633331	-67.770140	98.565365			
38817	9.321077	-1.280460	1.361694	0.655596	2.192994	-0.585710	-11.845932	-67.535926	98.668353			
38818	9.201294	-1.119972	1.404497	0.484787	2.150065	-0.700452	-12.046423	-67.285872	98.773788			
38819	9.045022	-1.030058	1.308299	0.396178	2.220521	-0.896563	-12.233244	-67.022107	98.869497			
38820	9.073391	-0.952279	1.248946	0.307412	2.328326	-0.908903	-12.395227	-66.751762	98.943553			
38821	9.176632	-0.970931	1.272061	0.305252	2.387230	-0.813843	-12.521963	-66.472597	98.999305			
38822	9.102749	-1.011560	1.341984	0.332968	2.332721	-0.861061	-12.638684	-66.207657	99.070614			
38823	9.065371	-1.014640	1.465305	0.316601	2.242810	-0.855735	-12.745675	-65.963824	99.167299			
38824	9.022998	-0.982840	1.544022	0.268601	2.190223	-0.874279	-12.853718	-65.738725	99.298246			
38825	9.182117	-1.050084	1.586605	0.306927	2.245723	-0.713584	-12.988692	-65.529311	99.463323			
38826	9.295772	-0.884063	1.774969	0.103989	2.158105	-0.556601	-13.117671	-65.331492	99.632227			
38827	9.382224	-0.562425	1.866218	-0.244729	2.151944	-0.478108	-13.258219	-65.155967	99.801457			
38828	9.494571	-0.095118	1.845574	-0.730240	2.260932	-0.436284	-13.359017	-64.994090	99.927992			
38829	9.352371	0.434511	1.851175	-1.257638	2.238279	-0.620794	-13.417080	-64.872721	100.010134			
38830	9.607720	0.838681	1.787954	-1.679947	2.429359	-0.459375	-13.449365	-64.830721	100.060927			
38831	10.323527	1.167952	2.009361	-2.079379	2.542267	0.246633	-13.441707	-64.841585	100.073218			
38832	10.753407	1.364137	2.390629	-2.332553	2.379222	0.775525	-13.391148	-64.875079	100.035516			
38833	11.179112	1.327006	3.392200	-2.393805	1.633840	1.582080	-13.285414	-64.980020	99.974343			
38834	12.074791	1.177234	3.573167	-2.305806	1.810072	2.490188	-13.071132	-65.146571	99.811013			
38835	12.667650	0.240579	3.140350	-1.353857	2.382910	2.949665	-12.740467	-65.320936	99.469757			
38836	12.953923	-0.839664	3.042592	-0.242211	2.513800	3.278845	-12.219148	-65.531017	98.919550			
38837	13.090810	-1.537004	2.119901	0.577029	3.345166	3.098623	-11.518384	-65.744932	98.190513			
38838	12.942339	-1.782605	1.851859	0.930522	3.487163	2.879214	-10.656582	-65.903779	97.347823			
38839	12.681503	-1.681417	1.846893	0.927280	3.373318	2.629940	-9.757832	-65.990529	96.517691			
38840	12.423830	-1.232276	2.351377	0.532712	2.822025	2.562734	-8.953986	-66.030380	95.863118			
38841	12.339327	-0.744589	3.230043	0.051448	1.999536	2.806568	-8.391781	-66.102596	95.505732			
38842	12.370010	-0.480975	3.710847	-0.204801	1.565502	3.014083	-8.064874	-66.211446	95.428364			
38843	12.146843	-0.269221	4.156687	-0.413506	1.049639	2.978854	-7.928756	-66.340987	95.533335			
38844	11.995092	0.151213	4.479731	-0.837297	0.671794	2.947430	-7.925235	-66.497569	95.755922			
38845	11.440136	0.543221	5.225327	-1.243302	-0.265005	2.711673	-8.056442	-66.697185	96.052303			
38846	10.865173	0.528912	6.008779	-1.245344	-1.267941	2.486836	-8.253759	-66.971367	96.389923			
38847	10.251502	0.496459	6.678921	-1.215753	-2.188125	2.174033	-8.376126	-67.258022	96.668055			
38848	9.642362	-0.263150	6.832965	-0.430381	-2.636827	1.702323	-8.422515	-67.513464	96.829544			
38849	9.126320	-1.009489	6.490633	0.360911	-2.574143	1.127170	-8.377048	-67.726095	96.889412			
38850	8.326875	-1.392932	5.784746	0.820554	-2.263611	0.134323	-8.217058	-67.938186	96.846230			
38851	7.300285	-1.247354	4.934544	0.770803	-1.884031	-1.149203	-7.880733	-68.116658	96.631481			
38852	6.439174	-0.774140	4.600052	0.370771	-1.907078	-2.102420	-7.432758	-68.268624	96.242960			
38853	6.044340	-0.545300	4.550670	0.184898	-2.016272	-2.502393	-6.882925	-68.348322	95.693427			
38854	6.279232	-0.098368	4.706939	-0.248471	-2.076399	-2.248265	-6.303635	-68.410555	95.087607			
38855	6.714968	-0.013758	4.311344	-0.310893	-1.552357	-1.991424	-5.776013	-68.464653	94.514407			
38856	7.689236	-0.020876	3.854037	-0.294659	-0.782589	-1.252370	-5.355339	-68.606418	94.120531			
38857	8.676165	0.169242	3.546451	-0.479731	-0.158568	-0.451790	-5.040671	-68.793062	93.896936			
38858	8.765515	0.133460	3.689088	-0.432183	-0.285983	-0.315698	-4.839427	-68.930073	93.769098			
38859	9.686624	-0.074608	3.926645	-0.245143	-0.205680	0.634911	-4.885521	-69.090180	93.827369			
38860	9.767108	-0.927344	3.778319	0.602962	-0.064953	0.683229	-5.045520	-69.091889	93.937787			
38861	8.637492	-1.469035	3.827318	1.157879	-0.516607	-0.336132	-5.285318	-69.029701	94.117603			
38862	8.262531	-1.824919	3.817786	1.506103	-0.646279	-0.675446	-5.622880	-69.057820	94.375486			
38863	8.522926	-1.999661	3.553593	1.660852	-0.320215	-0.517208	-5.982360	-69.132040	94.677476			
38864	9.027160	-2.031249	3.337675	1.663766	0.046955	-0.118086	-6.333773	-69.186126	94.987523			
38865	8.306071	-2.003570	3.126600	1.647805	-0.013121	-0.864767	-6.558309	-69.145198	95.218516			
38866	7.444751	-1.550394	3.132683	1.212364	-0.313476	-1.684118	-6.715836	-69.134412	95.392426			
38867	7.205797	-1.456522	2.818804	1.130010	-0.105485	-2.021502	-6.798198	-69.175815	95.472697			
38868	6.994286	-1.264864	2.624330	0.950589	-0.002607	-2.295813	-6.778435	-69.239048	95.461784			
38869	6.810379	-1.323324	2.687341	1.016662	-0.136220	-2.443693	-6.690615	-69.320179	95.385005			
38870	6.981330	-1.516691	2.727310	1.210474	-0.128407	-2.263132	-6.509044	-69.434504	95.238462			
38871	7.104609	-1.309640	2.774271	1.011612	-0.138643	-2.141665	-6.180814	-69.539827	95.002073			
38872	6.914746	-1.164590	2.707600	0.892960	-0.149294	-2.350693	-5.747104	-69.613603	94.690961			
38873	6.877092	-1.207657	2.410745	0.965440	0.108339	-2.490074	-5.262938	-69.704170	94.343025			
38874	6.551569	-1.174378	2.092683	0.969865	0.289195	-2.909266	-4.708481	-69.755036	93.944999			
38875	6.526758	-0.825602	1.995092	0.646790	0.370553	-2.978591	-4.131420	-69.836444	93.514735			
38876	6.634640	-0.657020	1.562911	0.505380	0.804880	-3.031130	-3.568517	-69.956544	93.061614			
38877	6.717705	-0.420663	1.223807	0.294169	1.139812	-3.073514	-3.000529	-70.092834	92.583654			
38878	6.951703	-0.219433	1.167665	0.112707	1.257027	-2.874037	-2.451200	-70.242822	92.078771			
38879	7.294345	-0.298728	0.998919	0.213365	1.512909	-2.604356	-1.869552	-70.406127	91.532383			
38880	7.400915	-0.342144	0.975947	0.281877	1.551990	-2.508246	-1.252074	-70.538364	90.956810			
38881	7.966620	-0.499787	1.273536	0.462420	1.441951	-1.872564	-0.624935	-70.674373	90.358918			
38882	8.680346	-1.004369	1.265562	0.996995	1.667545	-1.199674	0.041031	-70.761390	89.711935			
38883	9.149082	-1.355653	1.197056	1.387305	1.878574	-0.783699	0.867826	-70.761212	88.948226			
38884	9.153327	-1.377621	1.267916	1.455208	1.820138	-0.765142	1.843354	-70.667434	88.075199			
38885	9.063978	-1.288737	1.338260	1.417701	1.742966	-0.837200	2.912525	-70.520599	87.120059			
38886	9.104460	-1.211398	1.262997	1.397161	1.852494	-0.836626	4.011960	-70.326501	86.133618			
38887	9.607105	-1.095793	1.733979	1.355100	1.609300	-0.216993	5.041519	-70.098692	85.194349			
38888	10.245507	-0.835688	1.945604	1.174053	1.659595	0.449922	5.951060	-69.900988	84.386201			
38889	11.009785	-0.503569	2.047470	0.920176	1.848229	1.205399	6.636014	-69.808027	83.807896			
38890	11.936227	-0.309447	1.800449	0.791920	2.400611	1.994970	7.053616	-69.840071	83.513042			
38891	12.720858	0.627625	1.485031	-0.104614	2.948294	2.665936	7.254920	-69.932954	83.490371			
38892	12.804068	1.565933	1.479100	-1.042403	2.953900	2.787783	7.233507	-70.031413	83.647084			
38893	12.544599	1.416637	1.388213	-0.919251	2.928909	2.511166	7.041597	-70.149533	83.840026			
38894	12.699094	0.375221	1.452540	0.111073	2.905529	2.639749	6.766127	-70.262493	83.984725			
38895	12.647716	-0.779043	2.427152	1.264857	1.962340	2.876364	6.500204	-70.297140	84.103785			
38896	12.653464	-1.344245	3.027953	1.821500	1.391199	3.064902	6.221689	-70.340438	84.304523			
38897	13.403310	-1.878615	3.350591	2.355467	1.317679	3.866480	5.778026	-70.505908	84.736650			
38898	14.033505	-1.419969	3.064261	1.857791	1.743449	4.394827	5.067575	-70.822792	85.561830			
38899	14.178473	-0.335252	3.791439	0.703515	1.015774	4.815647	3.983580	-71.230271	86.788639			
38900	13.402332	-0.143479	4.110925	0.396040	0.365529	4.196256	2.590774	-71.650149	88.255129			
38901	12.466652	0.159656	5.214186	-0.014637	-1.077595	3.658289	0.967077	-72.081394	89.836108			
38902	12.109441	0.234205	6.557133	-0.203977	-2.575456	3.715499	-1.031151	-72.576970	91.617250			
38903	11.510069	0.133700	6.686871	-0.246627	-2.997860	3.155064	-3.263330	-73.094051	93.597181			
38904	10.634697	0.813344	6.680826	-1.054642	-3.364280	2.268644	-5.584669	-73.528862	95.744260			
38905	9.882626	1.334731	5.960409	-1.685693	-2.976956	1.289948	-8.031302	-73.844820	98.047273			
38906	9.240487	1.173039	5.901400	-1.625999	-3.158504	0.626062	-10.619384	-74.007596	100.478835			
38907	9.121575	0.373419	5.707462	-0.949399	-3.039701	0.472010	-13.268040	-74.039570	102.921803			
38908	9.144182	-0.702231	5.418532	-0.006445	-2.776026	0.471369	-15.877120	-73.952131	105.323597			
38909	9.185748	-1.593195	5.303817	0.749075	-2.665754	0.549646	-18.332966	-73.791291	107.607200			
38910	8.887442	-2.522611	5.384504	1.575782	-2.828892	0.378302	-20.503777	-73.596279	109.673887			
38911	8.941723	-2.805133	5.195337	1.755554	-2.634056	0.424198	-22.274215	-73.439338	111.496513			
38912	10.590208	-2.867895	5.025218	1.568083	-2.042119	1.977160	-23.722879	-73.384475	113.066062			
38913	12.645530	-2.496686	4.689080	0.915257	-1.194759	3.820544	-24.554605	-73.368931	114.075935			
38914	12.692009	-1.418035	4.264658	-0.182745	-0.776864	3.627857	-24.616413	-73.244007	114.238167			
38915	11.848260	-0.771439	3.398494	-0.705149	-0.130459	2.516613	-24.061618	-73.051448	113.666789			
38916	9.778205	-0.309917	2.965699	-0.890607	-0.208791	0.369034	-23.060637	-72.751883	112.607461			
38917	8.081473	-0.633106	2.538341	-0.337920	-0.192647	-1.327258	-21.915244	-72.440146	111.419706			
38918	7.450241	-0.549092	2.265619	-0.315370	-0.055677	-2.012827	-20.849196	-72.216369	110.408019			
38919	7.121724	-0.179674	2.452221	-0.622975	-0.294275	-2.310035	-19.947409	-72.067828	109.590831			
38920	7.390254	-0.124419	2.735680	-0.684111	-0.464162	-1.974847	-19.192547	-72.003790	108.939917			
38921	6.977581	0.512824	3.044845	-1.257142	-0.869599	-2.337126	-18.531063	-71.914443	108.417262			
38922	7.073378	0.771913	3.149462	-1.504392	-0.931335	-2.235286	-18.014508	-71.861199	108.064936			
38923	7.129889	1.187913	2.752416	-1.898545	-0.531190	-2.333679	-17.467013	-71.777402	107.720886			
38924	6.661511	1.729527	2.443780	-2.370762	-0.375925	-2.915067	-16.881907	-71.687244	107.342921			
38925	6.169970	1.732195	2.284203	-2.309004	-0.362195	-3.423329	-16.365778	-71.619812	106.962351			
38926	6.143471	0.994032	2.142090	-1.556808	-0.209888	-3.421196	-15.968332	-71.589244	106.631638			
38927	6.130493	0.514878	2.028943	-1.066794	-0.088654	-3.423733	-15.653888	-71.574113	106.352225			
38928	6.337773	0.081560	1.757336	-0.645935	0.246433	-3.271718	-15.543443	-71.582964	106.198476			
38929	7.033662	-0.465139	1.497858	-0.160974	0.715476	-2.643690	-15.672465	-71.626477	106.216808			
38930	7.451435	-0.802120	1.271398	0.132392	1.058881	-2.286402	-16.008021	-71.644693	106.438186			
38931	7.360251	-0.686923	1.286021	0.010009	1.010048	-2.377724	-16.544319	-71.623311	106.874304			
38932	7.364177	-0.870959	1.130914	0.169908	1.157905	-2.403304	-17.267579	-71.597989	107.505389			
38933	7.735897	-0.832592	1.106578	0.065958	1.288912	-2.060520	-18.028070	-71.529959	108.211337			
38934	8.043882	-0.462065	1.697907	-0.377354	0.816503	-1.627872	-18.784886	-71.356194	108.929140			
38935	8.588343	-0.655624	2.166823	-0.291266	0.557906	-0.953327	-19.485681	-71.090036	109.612580			
38936	9.056152	-0.520074	2.449733	-0.528611	0.463342	-0.442997	-20.048906	-70.743110	110.236019			
38937	8.535524	-0.345390	2.349319	-0.686909	0.442889	-0.990819	-20.426996	-70.302227	110.721338			
38938	7.990282	-0.155755	1.930025	-0.844086	0.720741	-1.666430	-20.663758	-69.818936	111.072002			
38939	6.986986	0.040667	1.270188	-0.938909	1.072413	-2.855600	-20.799999	-69.317736	111.323917			
38940	6.585193	0.266951	0.791772	-1.134515	1.429516	-3.430517	-20.999533	-68.903999	111.659350			
38941	7.177186	0.496339	0.435453	-1.466939	1.984643	-3.040899	-21.368151	-68.616844	112.174145			
38942	7.614019	0.633903	0.373532	-1.697982	2.205965	-2.687728	-21.832131	-68.337333	112.718803			
38943	8.221987	0.666254	0.741653	-1.860355	2.086512	-2.016511	-22.469322	-68.078076	113.302849			
38944	8.720457	0.253195	1.588455	-1.581267	1.498691	-1.216936	-23.204807	-67.844498	113.843389			
38945	9.159477	0.210450	2.409199	-1.666925	0.900283	-0.530706	-23.903579	-67.663779	114.240034			
38946	9.924654	0.261665	3.243111	-1.899256	0.397589	0.449846	-24.446274	-67.541172	114.420173			
38947	10.764729	-0.353729	3.016976	-1.447119	0.940518	1.238459	-24.634947	-67.406526	114.245350			
38948	10.877270	-1.077403	1.794411	-0.710031	2.173012	1.025645	-24.421651	-67.243856	113.757848			
38949	10.893750	-1.665927	1.099303	-0.081270	2.871902	0.883246	-23.989405	-67.163822	113.170054			
38950	11.393744	-2.181526	1.245942	0.383213	2.935697	1.472856	-23.449709	-67.233268	112.655321			
38951	11.873020	-1.619493	2.618136	-0.250000	1.809442	2.316167	-22.849205	-67.422301	112.249323			
38952	12.756966	-0.975104	3.836652	-1.001983	0.940638	3.473457	-22.356078	-67.700578	111.962034			
38953	13.999230	-0.777559	4.477538	-1.330150	0.721996	4.827672	-21.928576	-68.009809	111.608856			
38954	15.180152	-1.625657	4.050800	-0.568905	1.480393	5.902673	-21.564687	-68.377981	111.086106			
38955	15.581080	-3.587899	4.197570	1.407877	1.427797	6.595858	-20.965766	-68.769905	110.252248			
38956	14.555479	-3.688253	4.431298	1.746667	0.778665	5.725733	-19.943652	-69.172503	109.152559			
38957	13.800322	-3.292694	5.739927	1.542713	-0.783453	5.393929	-18.592696	-69.621437	107.893559			
38958	12.844645	-2.431377	7.290723	0.921235	-2.642841	4.891530	-16.834534	-70.129126	106.533698			
38959	11.913207	-1.215398	7.159158	0.005872	-2.921762	3.829679	-14.952632	-70.739559	105.156626			
38960	11.208118	-1.066085	6.673693	0.116116	-2.789419	2.973973	-13.140471	-71.366686	103.827914			
38961	9.980908	-0.673766	6.711693	-0.010455	-3.308843	1.770399	-11.329280	-71.934052	102.516205			
38962	8.940619	0.236354	7.747203	-0.679053	-4.720767	1.015996	-9.566635	-72.452678	101.255459			
38963	9.063206	0.201968	7.814556	-0.506579	-4.820067	1.130721	-7.855571	-72.886167	99.911360			
38964	9.341744	0.063528	7.498805	-0.262554	-4.485250	1.292111	-6.117400	-73.175918	98.438612			
38965	10.014617	0.349488	6.841860	-0.486799	-3.716409	1.727503	-4.454465	-73.435519	96.895413			
38966	9.925984	0.631304	5.979138	-0.700103	-2.957967	1.387018	-2.854250	-73.590773	95.304590			
38967	9.922794	0.938456	5.243777	-0.955495	-2.277474	1.175462	-1.407192	-73.637444	93.761659			
38968	10.660635	1.203046	4.736880	-1.186071	-1.587316	1.746197	-0.249682	-73.589589	92.481748			
38969	11.507584	1.245178	4.166783	-1.208354	-0.777683	2.405000	0.508280	-73.451461	91.614814			
38970	10.570285	1.348591	3.824354	-1.282656	-0.677608	1.415432	0.977914	-73.196023	91.094061			
38971	9.936168	0.688283	3.671076	-0.612573	-0.643394	0.765054	1.010291	-72.973224	90.999240			
38972	8.704724	-0.351797	3.221725	0.412451	-0.497392	-0.546738	0.794695	-72.716431	91.196576			
38973	7.447155	-0.446065	3.105077	0.497494	-0.717882	-1.779157	0.466414	-72.460499	91.516100			
38974	6.496081	-0.909706	2.716159	0.938923	-0.587647	-2.800044	-0.020235	-72.252852	91.980344			
38975	6.290462	-1.260100	2.514743	1.265619	-0.428955	-3.052816	-0.531316	-72.153679	92.442282			
38976	5.788888	-1.353877	2.699640	1.352965	-0.746356	-3.468820	-1.045177	-72.069404	92.887270			
38977	5.760142	-1.405872	3.035263	1.396699	-1.069351	-3.388185	-1.539260	-72.050950	93.270718			
38978	5.894785	-1.724664	2.927799	1.690305	-0.918805	-3.286311	-2.091874	-72.062337	93.689961			
38979	5.996874	-2.184854	2.616893	2.120240	-0.585906	-3.274685	-2.613558	-72.098011	94.064997			
38980	6.256148	-2.333622	2.328895	2.238651	-0.240640	-3.109000	-3.114691	-72.188437	94.466746			
38981	6.249386	-2.283623	1.955217	2.165717	0.098635	-3.225386	-3.532672	-72.265075	94.825946			
38982	6.107654	-2.022835	1.899162	1.896337	0.093523	-3.378617	-3.806428	-72.320643	95.113379			
38983	6.446329	-1.376033	2.229888	1.240657	-0.142629	-2.967145	-3.933215	-72.392370	95.310684			
38984	6.896411	-0.941101	2.435888	0.796498	-0.221515	-2.484917	-3.913786	-72.442083	95.376049			
38985	7.137921	-0.815847	2.309103	0.667520	-0.035125	-2.295996	-3.675464	-72.470741	95.237316			
38986	7.074594	-0.882021	1.725486	0.736906	0.504173	-2.532035	-3.125426	-72.484104	94.823222			
38987	7.255499	-0.882940	1.122023	0.743159	1.133476	-2.543323	-2.254517	-72.537601	94.135109			
38988	7.506959	-0.484639	0.670892	0.361789	1.620990	-2.445140	-1.124729	-72.611460	93.198437			
38989	7.938328	0.290261	0.743689	-0.373526	1.646756	-2.015069	0.134578	-72.650584	92.129165			
38990	8.095598	0.315344	1.195747	-0.333661	1.262114	-1.727919	1.406677	-72.620712	91.000443			
38991	8.596763	0.394692	1.853747	-0.332737	0.792163	-1.051527	2.741809	-72.510725	89.816084			
38992	9.261798	0.352412	2.002081	-0.220534	0.872961	-0.373285	4.057350	-72.356939	88.578526			
38993	9.842228	0.432779	2.020887	-0.228060	1.062865	0.185235	5.324081	-72.078445	87.355135			
38994	9.774402	0.344790	1.812090	-0.083487	1.301018	0.048403	6.460147	-71.666376	86.207371			
38995	8.835079	0.181304	1.747368	0.117628	1.148654	-0.879002	7.404718	-71.120933	85.219486			
38996	8.213673	-0.167856	1.399902	0.483153	1.354935	-1.603994	8.230670	-70.750537	84.274422			
38997	7.712831	-0.350493	0.576864	0.652959	2.007954	-2.363864	8.982477	-70.554353	83.368878			
38998	7.797272	-0.670231	0.127851	0.995020	2.471035	-2.452880	9.621174	-70.615083	82.439059			
38999	8.811275	-1.375913	0.245962	1.788585	2.678856	-1.493038	10.191189	-70.853524	81.534040			
39000	9.802297	-1.590028	0.985682	2.114198	2.253322	-0.323896	10.693259	-71.091672	80.766131			
39001	10.019934	-1.701591	1.734907	2.287830	1.572415	0.116947	11.029788	-71.222968	80.305404			
39002	9.939956	-1.530238	2.670746	2.155675	0.631537	0.347599	11.222468	-71.329259	80.129980			
39003	10.197281	-0.676787	3.166825	1.336313	0.209397	0.800594	11.241501	-71.459953	80.193969			
39004	10.863895	0.314544	3.142447	0.370967	0.398022	1.487842	11.032527	-71.648824	80.411881			
39005	11.132573	1.026814	2.619763	-0.370763	0.928899	1.626330	10.549742	-71.892649	80.739143			
39006	11.121389	1.254006	2.172681	-0.651949	1.306414	1.494227	9.826366	-72.152555	81.132754			
39007	11.011934	1.044973	2.335669	-0.494634	1.080860	1.429942	8.880595	-72.408977	81.617682			
39008	11.125681	0.243341	3.301947	0.261649	0.153654	1.791200	7.759658	-72.659344	82.208097			
39009	11.854381	-0.361185	4.046228	0.818299	-0.396083	2.685366	6.541937	-72.943817	82.962943			
39010	12.929645	0.347218	3.688571	0.057129	0.206910	3.635533	5.222693	-73.269709	84.003865			
39011	13.732852	1.406817	3.774106	-1.090561	0.297555	4.453862	3.545306	-73.669911	85.476492			
39012	13.807227	1.255014	4.326119	-1.086149	-0.304287	4.666775	1.422012	-74.086938	87.402515			
39013	12.941526	0.858133	5.914559	-0.898987	-2.162397	4.248396	-1.169927	-74.431459	89.692347			
39014	11.578559	-0.133238	6.848817	-0.133797	-3.538665	3.165845	-4.381461	-74.838441	92.358282			
39015	11.230317	-1.019886	6.323337	0.552392	-3.260230	2.685510	-8.050652	-75.316106	95.384647			
39016	10.800661	-1.247309	5.677274	0.606277	-2.862480	2.098483	-11.690402	-75.641433	98.459091			
39017	10.077847	-1.411315	5.280961	0.636471	-2.743411	1.300789	-14.967267	-75.814965	101.289435			
39018	9.817553	-2.222266	5.382518	1.291570	-3.008943	1.122132	-17.978747	-75.897685	103.869226			
39019	10.106441	-3.231379	5.343216	2.136343	-3.016576	1.477415	-20.707453	-75.918812	106.237591			
39020	9.513996	-3.391954	5.619916	2.186045	-3.470182	0.993924	-23.033535	-75.848450	108.381426			
39021	10.513146	-3.063073	6.099289	1.631765	-3.717876	2.045797	-25.417058	-75.919541	110.786454			
39022	12.181075	-2.842244	5.860266	1.195867	-3.151972	3.582596	-27.613908	-76.057273	113.225837			
39023	13.527000	-1.883296	5.023736	0.113500	-2.032627	4.596321	-29.073393	-76.069072	115.020768			
39024	14.262071	-0.990032	4.184296	-0.834723	-1.015059	5.025367	-29.679576	-75.925155	115.839920			
39025	13.409995	-0.412054	3.450723	-1.290838	-0.418502	3.973664	-29.468460	-75.662396	115.705797			
39026	11.438480	-0.032749	3.282576	-1.442992	-0.605327	1.984178	-28.571362	-75.350879	114.793703			
39027	10.009648	-0.275476	3.063013	-1.010210	-0.658862	0.589037	-27.312118	-75.086384	113.531434			
39028	8.926530	-0.482988	2.920375	-0.645553	-0.721652	-0.458179	-25.878624	-74.831427	112.160411			
39029	8.881043	-0.620945	2.644944	-0.440722	-0.419195	-0.545329	-24.517658	-74.666550	110.930577			
39030	8.990317	-0.855095	2.560991	-0.166942	-0.279043	-0.431344	-23.204717	-74.524186	109.828785			
39031	8.579578	-0.926905	2.668212	-0.023137	-0.451132	-0.791414	-22.090294	-74.395659	108.978156			
39032	7.845601	-0.730156	2.821613	-0.129611	-0.752319	-1.478109	-21.299771	-74.342098	108.497653			
39033	7.065428	-0.089437	2.726552	-0.668226	-0.826577	-2.313850	-20.773375	-74.324049	108.321579			
39034	6.657663	1.012712	2.766800	-1.714865	-0.939835	-2.799759	-20.548997	-74.353625	108.417428			
39035	6.786346	1.367983	2.573892	-2.061593	-0.725962	-2.757648	-20.621104	-74.432479	108.715160			
39036	6.994706	1.548106	2.607861	-2.258080	-0.718984	-2.566474	-20.744614	-74.489880	109.022771			
39037	6.815943	1.511916	2.759206	-2.211464	-0.920697	-2.698059	-20.740794	-74.466717	109.175888			
39038	6.903008	1.383064	2.831480	-2.092737	-0.970566	-2.583571	-20.719431	-74.407523	109.266820			
39039	7.242326	0.933073	2.543014	-1.665267	-0.604107	-2.286017	-20.667999	-74.305907	109.285313			
39040	7.355411	0.422939	2.345879	-1.162916	-0.374568	-2.177808	-20.548784	-74.143818	109.219045			
39041	7.260336	-0.299560	2.065071	-0.427773	-0.113045	-2.271407	-20.380251	-73.963149	109.122971			
39042	6.577373	-0.317224	1.856744	-0.342091	-0.065768	-2.979785	-20.117795	-73.758595	108.982202			
39043	5.896323	-0.577010	1.619953	-0.013798	0.002920	-3.670735	-19.909149	-73.588791	108.909082			
39044	6.331085	-0.516075	1.566253	-0.112927	0.188064	-3.274035	-19.762403	-73.464743	108.924922			
39045	6.950717	-0.974708	1.655170	0.282723	0.286171	-2.612670	-19.616605	-73.311621	108.900369			
39046	7.443477	-0.941818	1.844058	0.198106	0.261956	-2.093556	-19.398565	-73.125342	108.828052			
39047	8.056271	-0.637918	2.012999	-0.167935	0.295360	-1.491204	-19.237270	-72.919196	108.792838			
39048	8.420134	-0.679147	1.933357	-0.166018	0.504338	-1.163077	-19.175859	-72.700065	108.838168			
39049	8.520945	-0.456891	1.812312	-0.405491	0.677912	-1.125015	-19.198921	-72.483930	108.973380			
39050	8.343465	-0.220524	1.354841	-0.629700	1.089482	-1.451224	-19.311131	-72.298769	109.233526			
39051	7.955327	-0.101062	0.654022	-0.716932	1.667935	-2.039071	-19.485803	-72.118663	109.591083			
39052	7.826606	0.269552	0.273070	-1.090219	2.004047	-2.316146	-19.764662	-71.956646	110.079140			
39053	8.133592	0.490184	0.233946	-1.370673	2.136483	-2.066273	-20.179267	-71.797230	110.694136			
39054	8.536740	0.745286	0.688714	-1.707030	1.819077	-1.585744	-20.778276	-71.662390	111.438953			
39055	9.204895	0.650024	1.191028	-1.734483	1.538062	-0.801755	-21.611099	-71.552420	112.309002			
39056	9.960126	0.579624	1.605758	-1.809383	1.361800	0.035657	-22.607287	-71.450890	113.234645			
39057	10.600970	0.725667	1.869676	-2.096659	1.289987	0.691715	-23.663993	-71.329933	114.136680			
39058	11.035191	0.675420	2.017214	-2.167804	1.279471	1.140122	-24.625546	-71.188602	114.902106			
39059	10.945486	0.437334	1.896203	-1.973965	1.390228	1.039085	-25.297104	-70.975015	115.365001			
39060	10.866484	-0.097007	1.797957	-1.475167	1.505615	0.998385	-25.643142	-70.708868	115.511415			
39061	10.999575	-0.603234	1.840365	-1.023275	1.562319	1.198819	-25.661388	-70.408860	115.382698			
39062	10.935635	-0.916049	1.751870	-0.716176	1.687036	1.148018	-25.426787	-70.137659	115.087007			
39063	11.075571	-1.097847	1.890482	-0.560570	1.653480	1.340743	-25.032540	-69.918815	114.705039			
39064	11.237138	-1.363231	1.528571	-0.299923	2.099026	1.411044	-24.537258	-69.750567	114.275147			
39065	11.162990	-1.036684	1.616212	-0.596971	2.030947	1.314661	-23.956180	-69.581307	113.784287			
39066	10.703524	-0.298352	2.947245	-1.275251	0.651317	1.200487	-23.354002	-69.428864	113.306616			
39067	10.535472	-0.169435	3.956009	-1.379125	-0.325733	1.352736	-22.861297	-69.346123	112.853119			
39068	10.586625	-0.823510	4.201700	-0.716226	-0.508722	1.573147	-22.412383	-69.371871	112.381419			
39069	10.781928	-1.942247	4.437088	0.401260	-0.655501	1.982185	-21.917018	-69.617403	111.851108			
39070	11.270848	-3.157852	4.604625	1.607875	-0.680603	2.643522	-21.176568	-70.044187	111.179947			
39071	11.191942	-3.928323	5.367801	2.468929	-1.472163	2.885353	-20.025189	-70.477672	110.258609			
39072	11.072854	-3.797062	6.349412	2.471935	-2.490277	3.033588	-18.542727	-70.902110	109.165421			
39073	11.264157	-2.979257	7.014221	1.794056	-3.125922	3.300809	-16.876011	-71.334172	108.001789			
39074	11.437359	-2.140708	7.326706	1.116630	-3.441491	3.453170	-15.170726	-71.736983	106.837781			
39075	11.580200	-1.584393	7.032808	0.710582	-3.172191	3.435025	-13.518944	-71.995259	105.727610			
39076	10.597763	-0.761348	6.837583	0.112420	-3.323758	2.376787	-11.958393	-72.086283	104.735395			
39077	9.439477	0.500443	7.026688	-0.924487	-3.919664	1.255690	-10.633470	-72.173887	103.954253			
39078	9.166871	1.814081	7.040977	-2.107345	-4.115339	0.935338	-9.498074	-72.302496	103.246228			
39079	9.330198	2.753609	6.966517	-2.973023	-4.084446	1.033751	-8.459106	-72.419897	102.449150			
39080	8.938073	2.955515	6.534707	-3.106512	-3.818469	0.535994	-7.474874	-72.528529	101.529397			
39081	8.717234	2.946509	6.040552	-3.062528	-3.418404	0.192091	-6.491265	-72.647579	100.482081			
39082	8.895133	2.251367	5.412244	-2.372206	-2.718891	0.210512	-5.552597	-72.747222	99.406678			
39083	9.820528	1.157110	4.837177	-1.321093	-1.825094	0.962449	-4.787642	-72.849248	98.430763			
39084	10.290698	-0.112977	4.254466	-0.074346	-1.050665	1.273440	-4.213873	-72.882154	97.665054			
39085	10.394110	-1.180527	4.041470	1.000240	-0.747914	1.332031	-3.785799	-72.858949	97.075492			
39086	11.150998	-1.925734	4.006465	1.731390	-0.445749	2.057804	-3.575167	-72.850746	96.764851			
39087	10.805893	-2.608304	3.430950	2.400918	0.060216	1.570364	-3.512222	-72.656466	96.644937			
39088	9.593527	-2.588997	3.307950	2.411918	-0.133837	0.377780	-3.580504	-72.324780	96.768796			
39089	8.531005	-2.129791	2.843157	1.952965	0.015595	-0.780354	-3.877471	-72.018440	97.125980			
39090	7.969851	-1.809578	2.746776	1.625964	-0.043001	-1.345568	-4.399104	-71.786526	97.685595			
39091	7.946550	-1.837514	2.611760	1.617201	0.101814	-1.403193	-5.080282	-71.679704	98.368128			
39092	6.749328	-1.909111	2.723711	1.718550	-0.363882	-2.496210	-5.768037	-71.631268	99.095315			
39093	6.188499	-1.896110	2.828739	1.715574	-0.647483	-2.991249	-6.389056	-71.803226	99.783306			
39094	6.267284	-2.113239	2.617874	1.901995	-0.435800	-2.972345	-6.909201	-72.085718	100.385882			
39095	6.783645	-2.329623	2.475576	2.070368	-0.166230	-2.514793	-7.384769	-72.404332	100.952467			
39096	7.442552	-2.286354	2.279733	1.968719	0.174090	-1.944404	-7.825481	-72.709950	101.540524			
39097	7.789770	-1.724741	2.280506	1.377671	0.201929	-1.632398	-8.220881	-72.906333	102.117477			
39098	7.764373	-1.367739	2.491343	1.024618	-0.055556	-1.608419	-8.607573	-73.043351	102.696183			
39099	7.716727	-0.590063	2.729266	0.256876	-0.375782	-1.618927	-8.991296	-73.158785	103.282211			
39100	7.823867	0.076800	2.871532	-0.414156	-0.555397	-1.506999	-9.332870	-73.268607	103.814605			
39101	8.245359	0.571416	2.487330	-0.968190	-0.131031	-1.236867	-9.533240	-73.357130	104.168807			
39102	8.048628	0.471800	1.989566	-0.892978	0.290467	-1.561651	-9.507803	-73.342088	104.274967			
39103	7.550980	-0.021213	1.858857	-0.373547	0.327043	-2.052108	-9.253863	-73.275851	104.129191			
39104	7.307352	-0.442532	1.717253	0.062316	0.444280	-2.306630	-8.801681	-73.214635	103.812895			
39105	7.482582	-0.726431	1.799820	0.355978	0.451483	-2.103895	-8.226962	-73.193875	103.372314			
39106	8.084820	-1.060501	1.828303	0.673787	0.633130	-1.507462	-7.548227	-73.203726	102.816934			
39107	8.247134	-1.312059	2.069645	0.964475	0.482626	-1.277063	-6.679952	-73.178732	102.079072			
39108	8.645809	-1.350587	2.284028	1.036046	0.410760	-0.837802	-5.655498	-73.129670	101.190560			
39109	8.749349	-1.266702	2.198220	0.985351	0.536351	-0.772280	-4.488635	-73.028410	100.162589			
39110	8.344105	-0.973722	2.227567	0.766325	0.392321	-1.164403	-3.264201	-72.875762	99.107950			
39111	7.827479	-0.824695	1.742190	0.642949	0.716292	-1.809057	-2.085932	-72.769023	98.069242			
39112	7.447418	-0.323740	1.038443	0.133719	1.236369	-2.389711	-0.988855	-72.744703	97.105513			
39113	7.656108	0.121083	0.554220	-0.325280	1.711561	-2.335895	0.024969	-72.821917	96.142085			
39114	8.297176	0.186486	0.225557	-0.402496	2.196855	-1.816412	1.044165	-72.929190	95.142528			
39115	8.770481	0.139533	0.353045	-0.308016	2.209673	-1.322240	2.114145	-73.013277	94.062919			
39116	9.303131	-0.275229	0.740722	0.186524	2.032954	-0.701996	3.284135	-73.072904	92.902928			
39117	9.563560	-0.502300	1.239835	0.519780	1.656171	-0.313330	4.540266	-73.071175	91.699846			
39118	9.851378	-0.750894	1.414816	0.844342	1.603222	0.002180	5.805771	-73.057679	90.533141			
39119	10.058409	-1.025710	1.289706	1.163270	1.815666	0.149084	6.985885	-73.041361	89.459451			
39120	10.166000	-1.228594	1.456168	1.436458	1.717178	0.285090	7.944083	-72.994860	88.615095			
39121	10.443535	-1.083239	1.757265	1.369356	1.507411	0.636297	8.599276	-72.927693	88.054876			
39122	10.918742	-0.823888	1.926869	1.161625	1.471710	1.146108	8.937436	-72.852603	87.830955			
39123	11.328217	-0.465867	1.895735	0.815794	1.596151	1.541876	8.977039	-72.796042	87.882207			
39124	11.539637	0.117591	1.743354	0.212517	1.752214	1.724247	8.752114	-72.715724	88.198425			
39125	11.586315	0.545635	1.486416	-0.264116	1.981175	1.709245	8.342772	-72.599934	88.648525			
39126	11.325493	0.385672	1.340931	-0.152789	2.084482	1.405382	7.844565	-72.466810	89.134115			
39127	11.169154	-0.411169	1.202440	0.593487	2.284241	1.177983	7.367587	-72.354904	89.530190			
39128	11.011322	-1.429844	1.619748	1.632643	1.977511	1.111649	7.003160	-72.250141	89.808061			
39129	10.670097	-2.588717	2.438553	2.866120	1.245732	0.991592	6.811807	-72.164903	89.940737			
39130	10.629127	-2.793859	2.790807	3.105058	0.930684	1.053086	6.797749	-72.185614	90.048401			
39131	11.082943	-1.944078	2.771930	2.254518	0.980672	1.512067	6.747972	-72.337702	90.318909			
39132	11.610726	-0.272983	2.749685	0.575082	0.920020	2.072876	6.377418	-72.687935	91.015918			
39133	12.056333	1.428973	3.068879	-1.118598	0.450859	2.651635	5.418237	-73.152306	92.244776			
39134	12.150974	2.055683	3.563904	-1.756238	-0.168527	2.893973	3.771393	-73.479462	93.988533			
39135	11.210625	1.693473	5.182481	-1.280223	-1.990131	2.426709	1.560164	-73.654405	96.080646			
39136	11.289387	1.907123	7.387718	-1.359654	-4.164108	3.089795	-1.130704	-73.988568	98.524781			
39137	12.204780	1.724998	7.677084	-1.364116	-4.285955	3.994352	-4.227115	-74.482343	101.257112			
39138	12.420280	1.388698	6.966768	-1.316038	-3.638955	3.962273	-7.312635	-74.814758	104.023652			
39139	10.766032	0.787023	5.805655	-0.908965	-2.944430	2.050476	-9.959665	-74.783718	106.394722			
39140	8.859072	-0.120157	5.751309	-0.008599	-3.283152	0.226973	-12.250051	-74.635548	108.387561			
39141	8.435278	-1.301821	5.735954	1.081041	-3.253836	-0.117705	-14.432021	-74.535434	110.263137			
39142	8.555326	-2.388012	5.738893	2.042703	-3.127360	0.080604	-16.425279	-74.428968	112.070956			
39143	8.740555	-2.964605	5.873918	2.516237	-3.164482	0.353094	-18.157928	-74.307388	113.777786			
39144	8.515121	-2.688153	5.835521	2.194160	-3.214558	0.119016	-19.528607	-74.144674	115.334939			
39145	9.039256	-2.134003	5.564129	1.509574	-2.880182	0.514326	-20.686581	-74.011879	116.768203			
39146	10.204095	-1.652546	5.156062	0.809761	-2.255549	1.487582	-21.615832	-73.907576	118.020944			
39147	10.855110	-0.869610	4.797766	-0.117108	-1.845782	1.942630	-22.167897	-73.784237	118.839180			
39148	11.370546	-0.253214	4.519638	-0.846707	-1.524543	2.300915	-22.427230	-73.685448	119.231060			
39149	11.722017	0.117060	3.968291	-1.328592	-0.940834	2.455822	-22.327499	-73.568020	119.135420			
39150	10.525222	0.064871	3.461718	-1.164822	-0.700942	1.183656	-21.740704	-73.306065	118.542642			
39151	9.113666	0.005598	3.307072	-0.919748	-0.840481	-0.197960	-20.909072	-73.023086	117.749077			
39152	8.772649	-0.160854	3.246749	-0.697890	-0.798395	-0.517422	-20.132503	-72.856789	117.092505			
39153	9.224216	0.111570	3.306590	-0.996387	-0.741686	-0.092135	-19.434224	-72.784401	116.570474			
39154	8.546969	0.212435	3.506349	-0.958459	-1.103515	-0.688334	-18.796460	-72.719549	116.124977			
39155	7.999306	0.658509	3.520285	-1.301042	-1.311517	-1.245185	-18.301678	-72.704311	115.807135			
39156	7.713545	1.299229	3.002006	-1.933271	-0.982257	-1.719702	-17.926076	-72.720975	115.593307			
39157	7.332150	2.204482	2.462884	-2.822388	-0.702920	-2.314289	-17.579791	-72.728386	115.355418			
39158	6.992875	2.623411	2.183848	-3.212217	-0.590639	-2.749786	-17.311538	-72.759574	115.125069			
39159	7.160529	2.318199	2.206840	-2.919031	-0.523622	-2.551666	-17.084144	-72.832221	114.861344			
39160	7.336817	1.755584	2.255267	-2.369145	-0.444034	-2.316878	-16.891629	-72.947450	114.564806			
39161	7.652689	0.961361	2.315217	-1.604900	-0.310818	-1.927527	-16.744229	-73.112675	114.231638			
39162	8.180344	0.086998	2.301481	-0.792358	-0.051729	-1.351491	-16.656472	-73.313477	113.917668			
39163	8.313883	-0.797752	2.431642	0.092804	-0.041832	-1.114439	-16.629575	-73.476685	113.627263			
39164	8.336459	-1.533216	2.363796	0.817161	0.103293	-1.051617	-16.734982	-73.608758	113.468971			
39165	8.774620	-1.753539	2.131278	0.964029	0.445441	-0.675762	-16.920098	-73.697560	113.431046			
39166	8.918900	-1.334212	2.455660	0.560633	0.111917	-0.483683	-17.048282	-73.642374	113.378413			
39167	9.128988	-0.673702	2.899211	-0.085191	-0.325311	-0.216617	-17.101780	-73.486730	113.274702			
39168	9.095032	0.101982	3.080074	-0.846769	-0.569467	-0.264105	-17.090970	-73.257615	113.145818			
39169	9.156488	0.790884	3.093034	-1.551976	-0.609058	-0.259997	-17.163654	-73.028400	113.092966			
39170	9.040790	0.886883	2.844693	-1.676403	-0.375569	-0.449826	-17.288883	-72.771253	113.107080			
39171	8.456072	0.771273	2.612028	-1.536419	-0.258593	-1.066542	-17.398485	-72.480022	113.096109			
39172	7.644139	0.467167	2.390463	-1.179405	-0.198747	-1.879543	-17.526146	-72.193679	113.115662			
39173	7.343472	-0.136121	1.923178	-0.602044	0.259544	-2.248705	-17.675694	-71.979880	113.157148			
39174	7.209679	-0.601669	1.430797	-0.176790	0.759726	-2.479189	-17.827128	-71.857407	113.256009			
39175	7.213975	-0.868583	1.168116	0.056953	1.045456	-2.528174	-18.054809	-71.837809	113.444995			
39176	7.615399	-0.938903	0.986808	0.054019	1.334245	-2.192550	-18.375560	-71.886147	113.734045			
39177	7.659551	-0.807812	1.123169	-0.081486	1.190155	-2.121156	-18.805698	-71.941919	114.072153			
39178	7.946330	-0.647061	1.406157	-0.270549	0.969177	-1.779782	-19.358008	-71.998551	114.487722			
39179	8.165741	-0.555123	1.477554	-0.403165	0.937962	-1.558702	-19.982586	-72.026079	114.898247			
39180	8.689196	-0.686785	1.419209	-0.366621	1.140301	-1.063218	-20.616895	-72.032390	115.314015			
39181	9.281456	-0.729498	1.185330	-0.439914	1.523189	-0.562340	-21.187950	-72.008248	115.690026			
39182	9.837555	-0.623067	1.446847	-0.628972	1.413527	0.029333	-21.683765	-71.947960	116.079920			
39183	10.405029	-0.525578	1.655982	-0.817846	1.363544	0.615876	-22.116325	-71.864129	116.461589			
39184	10.897630	-0.612352	1.658289	-0.829487	1.513944	1.091581	-22.473370	-71.738508	116.822930			
39185	11.176350	-0.623587	1.696438	-0.886108	1.577038	1.363411	-22.701377	-71.532685	117.043677			
39186	11.343743	-0.582131	1.988173	-0.965462	1.376376	1.595445	-22.840093	-71.288072	117.140141			
39187	11.438202	-0.664014	2.251677	-0.909344	1.200770	1.766366	-22.862468	-71.057963	117.076846			
39188	11.370517	-0.580085	2.405909	-0.988538	1.067725	1.732708	-22.717832	-70.865240	116.861622			
39189	11.117745	-0.383705	2.241930	-1.155396	1.170410	1.415528	-22.446653	-70.708762	116.533465			
39190	10.618599	-0.176543	2.419213	-1.271520	0.871678	0.969784	-22.064498	-70.561362	116.150934			
39191	10.155642	-0.171045	2.421771	-1.198703	0.764084	0.531900	-21.672516	-70.433104	115.788808			
39192	9.734410	-0.277901	2.139785	-1.035583	0.943689	0.059071	-21.313280	-70.307881	115.504230			
39193	9.110467	-0.084730	2.602721	-1.106425	0.323445	-0.407737	-21.018242	-70.172435	115.328217			
39194	8.899416	0.057949	3.229355	-1.179939	-0.328317	-0.424843	-20.829333	-70.089983	115.249903			
39195	8.975650	-0.111823	3.519009	-1.002755	-0.552684	-0.239431	-20.695192	-70.070530	115.175282			
39196	9.603773	-1.010312	3.670576	-0.188286	-0.418976	0.507937	-20.589491	-70.171330	115.015319			
39197	10.418633	-2.323434	3.942116	1.031933	-0.323378	1.515016	-20.288572	-70.401126	114.641039			
39198	10.706671	-3.437292	4.643924	2.184484	-0.831827	2.126715	-19.568408	-70.704552	113.943927			
39199	10.498996	-3.571900	5.227286	2.462824	-1.464127	2.107960	-18.408266	-70.996147	112.954347			
39200	10.005770	-2.799597	6.458465	1.943183	-2.870793	1.919588	-17.007994	-71.293424	111.842816			
39201	10.452780	-2.400676	7.222772	1.674318	-3.530667	2.512956	-15.583660	-71.716530	110.754418			
39202	11.560958	-2.293276	7.306806	1.600314	-3.342338	3.550308	-14.035951	-72.161229	109.596024			
39203	11.387949	-1.762053	6.991096	1.221912	-3.179931	3.227965	-12.282282	-72.429695	108.262327			
39204	9.825278	-1.015642	6.099108	0.686263	-2.864077	1.416365	-10.551805	-72.554133	106.922359			
39205	8.812248	-0.023338	5.805874	-0.126084	-2.988310	0.307472	-8.935999	-72.689742	105.664683			
39206	9.530143	1.142144	5.874826	-1.229100	-3.001568	0.963244	-7.431571	-72.884874	104.446048			
39207	9.376980	2.156776	5.669092	-2.151513	-2.990771	0.729781	-5.962131	-72.989921	103.160798			
39208	8.941547	2.890951	5.480726	-2.794650	-3.030495	0.254727	-4.661741	-73.046950	101.901006			
39209	9.093866	2.587163	4.836681	-2.521152	-2.332045	0.236714	-3.634253	-73.133910	100.749240			
39210	9.923591	1.961325	4.403492	-1.951704	-1.603397	0.926728	-2.814595	-73.222738	99.725263			
39211	10.333650	1.089920	3.838275	-1.134016	-0.843051	1.174022	-2.157101	-73.282000	98.838615			
39212	10.543066	0.071246	3.586819	-0.130357	-0.421929	1.315274	-1.688620	-73.282346	98.135834			
39213	10.494240	-0.946986	3.560986	0.898311	-0.287258	1.269595	-1.421285	-73.209910	97.669054			
39214	9.787742	-1.624937	3.886565	1.639200	-0.707515	0.692459	-1.314455	-73.071387	97.425709			
39215	9.590780	-1.930339	3.976759	1.954419	-0.801738	0.534357	-1.445699	-72.991774	97.442123			
39216	9.909994	-1.930448	3.722738	1.900823	-0.461614	0.768765	-1.833112	-72.944462	97.692114			
39217	9.617867	-1.812355	3.325925	1.729088	-0.174922	0.376980	-2.392100	-72.834303	98.084945			
39218	9.077953	-1.680595	3.350149	1.587877	-0.357715	-0.127250	-3.070137	-72.711137	98.573997			
39219	8.388414	-1.625794	3.242838	1.517336	-0.456196	-0.811901	-3.785466	-72.627171	99.109813			
39220	7.637601	-1.491916	3.094852	1.373681	-0.550530	-1.569708	-4.469577	-72.616964	99.655879			
39221	7.354899	-1.645057	2.993518	1.503246	-0.535878	-1.861908	-5.160422	-72.705488	100.218827			
39222	7.285179	-1.969051	2.638214	1.777123	-0.209887	-2.021098	-5.757090	-72.834725	100.713967			
39223	6.970857	-1.912678	2.460273	1.706726	-0.159855	-2.371881	-6.229820	-72.972736	101.123534			
39224	7.506504	-1.791402	2.504501	1.545386	-0.084943	-1.848158	-6.687846	-73.159293	101.536803			
39225	8.098774	-1.645967	2.387949	1.344834	0.150513	-1.317376	-7.114884	-73.350401	101.926457			
39226	8.016420	-1.230013	2.533348	0.935327	-0.072972	-1.367950	-7.444964	-73.448625	102.238460			
39227	7.949102	-0.891027	2.594886	0.596469	-0.197463	-1.426939	-7.752188	-73.541373	102.513037			
39228	8.076918	-0.609468	2.364007	0.283643	0.017402	-1.379669	-7.972104	-73.645560	102.705422			
39229	8.480464	-0.288643	2.101232	-0.082804	0.333934	-1.077794	-8.066743	-73.761501	102.770705			
39230	8.783940	-0.375278	1.868235	-0.029116	0.633640	-0.846842	-7.982535	-73.831667	102.648281			
39231	8.848583	-0.504007	1.957937	0.111245	0.570955	-0.754731	-7.711123	-73.852873	102.344991			
39232	8.699014	-0.838592	2.143891	0.482682	0.383114	-0.835352	-7.263441	-73.843948	101.869947			
39233	8.591500	-0.856432	2.386145	0.546566	0.129511	-0.872583	-6.644542	-73.827834	101.271210			
39234	8.933290	-0.633515	2.575247	0.348112	0.031734	-0.500619	-5.934843	-73.802963	100.587717			
39235	9.299475	-0.655392	2.539040	0.381487	0.180520	-0.159799	-5.145977	-73.758288	99.808596			
39236	9.398848	-0.667997	2.447439	0.417981	0.316280	-0.091596	-4.319742	-73.645675	98.998469			
39237	9.268208	-0.762728	2.264929	0.539556	0.490707	-0.269143	-3.499024	-73.489489	98.187300			
39238	8.993125	-0.769618	2.150053	0.582127	0.555120	-0.569088	-2.721574	-73.322720	97.422057			
39239	8.610877	-0.684201	1.817076	0.515508	0.785502	-1.035773	-2.043356	-73.175663	96.723892			
39240	8.262185	-0.727617	1.287573	0.556697	1.213820	-1.526094	-1.448769	-73.092953	96.046180			
39241	8.578304	-0.758664	1.090325	0.590718	1.504249	-1.283919	-0.836942	-73.079554	95.330570			
39242	8.999204	-0.682095	1.002224	0.528411	1.706374	-0.909635	-0.157021	-73.083703	94.558158			
39243	9.031964	-0.806026	1.240036	0.704960	1.503850	-0.812406	0.653981	-73.032114	93.712335			
39244	9.326736	-0.802467	1.662897	0.767589	1.197662	-0.411974	1.570954	-72.968405	92.830924			
39245	9.700921	-0.970836	1.804213	0.986452	1.200104	-0.020241	2.552802	-72.882113	91.920357			
39246	9.913150	-0.855042	1.874052	0.923463	1.208862	0.197273	3.574593	-72.748470	91.015382			
39247	10.068248	-0.794560	1.995442	0.922644	1.163723	0.374407	4.545704	-72.571138	90.122502			
39248	9.934225	-0.867883	2.089852	1.051676	1.074004	0.264501	5.414232	-72.364516	89.296507			
39249	9.936798	-0.999522	2.369078	1.250694	0.859427	0.338586	6.187357	-72.111746	88.531815			
39250	9.641567	-1.043507	2.341068	1.329626	0.843765	0.038667	6.845489	-71.833707	87.894068			
39251	9.251649	-0.938979	2.299334	1.251009	0.800806	-0.349335	7.396342	-71.539604	87.397082			
39252	8.986015	-0.767285	2.475136	1.117789	0.584489	-0.545963	7.812998	-71.255512	87.068315			
39253	8.827729	-0.485102	2.557375	0.860820	0.475206	-0.661877	8.087243	-71.026250	86.844558			
39254	8.903172	-0.327060	2.585539	0.719211	0.492869	-0.576985	8.215077	-70.852611	86.733828			
39255	9.170491	-0.115855	2.237409	0.488516	0.916053	-0.429751	8.246084	-70.720967	86.686862			
39256	9.374552	-0.003574	1.950551	0.356161	1.265171	-0.327998	8.210803	-70.600002	86.712246			
39257	9.671593	0.052649	1.649133	0.277555	1.660783	-0.146930	8.152818	-70.505029	86.772925			
39258	10.138759	-0.328273	1.416184	0.640880	2.078930	0.196063	8.064423	-70.441294	86.874237			
39259	10.357677	-0.761414	1.337421	1.063575	2.270985	0.353990	7.970358	-70.386095	86.996953			
39260	10.423910	-1.347171	1.553598	1.659911	2.148144	0.459440	7.863165	-70.326480	87.159813			
39261	10.344931	-1.756243	1.620284	2.062775	2.100653	0.388269	7.737405	-70.314132	87.363016			
39262	10.999011	-1.830852	1.811499	2.150621	2.148070	1.067220	7.524077	-70.358781	87.651585			
39263	11.130199	-1.594249	2.277930	1.936866	1.723401	1.362744	7.120618	-70.470653	88.109620			
39264	11.042970	-1.003243	2.653784	1.345475	1.261418	1.438733	6.481914	-70.700534	88.771893			
39265	11.132322	-0.354679	2.797657	0.661767	1.047243	1.604229	5.591428	-71.026616	89.662583			
39266	11.326352	0.205542	3.178709	0.069802	0.636861	1.935560	4.399754	-71.361228	90.826012			
39267	11.592073	0.705319	4.464357	-0.404072	-0.605148	2.607994	2.868337	-71.680026	92.256494			
39268	12.056297	1.053190	5.676863	-0.768216	-1.715535	3.421925	1.006393	-72.033180	93.931630			
39269	12.553861	0.900101	6.176495	-0.729569	-2.114514	4.027559	-1.141356	-72.385738	95.799242			
39270	12.314572	0.814303	6.130883	-0.797406	-2.226983	3.763082	-3.389635	-72.678983	97.774250			
39271	11.355765	0.686612	5.552966	-0.819519	-2.020732	2.657415	-5.542497	-72.858775	99.656752			
39272	10.137177	0.423785	5.200819	-0.644257	-2.059538	1.382518	-7.433375	-72.889262	101.315254			
39273	8.820414	0.293711	5.213138	-0.537718	-2.456780	0.123973	-9.038065	-72.833795	102.706498			
39274	7.951101	-0.148289	5.411794	-0.111248	-2.872511	-0.633071	-10.463772	-72.785602	103.934318			
39275	7.755745	-0.702925	5.359264	0.382145	-2.848963	-0.806889	-11.761700	-72.741063	105.048749			
39276	7.894776	-1.219980	4.957213	0.805767	-2.396074	-0.757353	-12.907093	-72.653416	106.085021			
39277	7.849788	-1.646916	4.731041	1.169828	-2.163687	-0.831374	-13.934798	-72.531251	107.061340			
39278	7.908410	-1.962744	4.553168	1.423602	-1.951570	-0.796523	-14.880087	-72.426492	108.062378			
39279	8.068595	-1.522085	4.854527	0.942268	-2.222344	-0.584545	-15.773254	-72.375526	109.097601			
39280	9.179860	-1.247665	4.961787	0.524165	-2.040526	0.483289	-16.784561	-72.427917	110.217598			
39281	10.606374	-0.956503	4.877378	0.035400	-1.608386	1.789485	-17.821783	-72.505695	111.306990			
39282	11.294686	-0.865575	4.610750	-0.194334	-1.199504	2.357000	-18.774705	-72.531667	112.244512			
39283	11.182268	-1.093381	4.085478	-0.029051	-0.730214	2.120271	-19.534345	-72.494015	112.947462			
39284	10.310977	-1.254941	3.707634	0.177131	-0.598956	1.198555	-19.999649	-72.386976	113.365685			
39285	9.550557	-1.093223	3.566605	0.075003	-0.674880	0.418041	-20.238372	-72.256755	113.587006			
39286	9.472598	-0.819079	3.579668	-0.204389	-0.712242	0.319732	-20.345097	-72.131851	113.713655			
39287	9.250083	-0.504719	3.510369	-0.502679	-0.713696	0.055412	-20.362312	-72.009944	113.777046			
39288	8.863561	-0.284002	3.444579	-0.682184	-0.757692	-0.353883	-20.283061	-71.887054	113.777229			
39289	8.605023	-0.176248	3.514663	-0.755449	-0.887497	-0.589241	-20.151573	-71.769871	113.737873			
39290	8.687948	-0.257938	3.271782	-0.693027	-0.606155	-0.571270	-19.910250	-71.661894	113.612247			
39291	8.161366	0.038759	3.228851	-0.914387	-0.721299	-1.113351	-19.546880	-71.555378	113.399588			
39292	7.801373	0.343669	3.285698	-1.156451	-0.890316	-1.467313	-19.216212	-71.503853	113.218229			
39293	7.731690	0.290623	3.364605	-1.078090	-0.973636	-1.501623	-18.930138	-71.489707	113.049717			
39294	8.026243	0.229238	3.437970	-1.037449	-0.947593	-1.191868	-18.677261	-71.488201	112.874214			
39295	8.326888	0.343472	3.191414	-1.189794	-0.630000	-0.990690	-18.429831	-71.474749	112.651217			
39296	8.321379	0.481333	3.081969	-1.322186	-0.533626	-1.040993	-18.221855	-71.467194	112.426303			
39297	8.539805	0.647841	2.925568	-1.514153	-0.330624	-0.896133	-18.057480	-71.471824	112.213845			
39298	8.325535	0.858271	2.876788	-1.694108	-0.359816	-1.133541	-17.939678	-71.454687	112.001256			
39299	8.281170	0.836464	3.022591	-1.658426	-0.499642	-1.128595	-17.875691	-71.403738	111.780727			
39300	8.180395	0.736420	3.190687	-1.543764	-0.662993	-1.162899	-17.853314	-71.282878	111.543139			
39301	8.294905	0.730908	3.313884	-1.556352	-0.720621	-1.016102	-17.875346	-71.144192	111.291833			
39302	8.078050	0.504388	3.259602	-1.321768	-0.688374	-1.215404	-17.907132	-70.968838	111.020418			
39303	8.272369	-0.231304	2.961090	-0.638967	-0.267528	-1.050625	-17.995425	-70.826019	110.780301			
39304	8.179910	-0.579947	2.738284	-0.299559	-0.039249	-1.172425	-17.996188	-70.676238	110.511815			
39305	8.119664	-0.975611	2.468326	0.087946	0.240292	-1.274075	-17.969203	-70.575816	110.245873			
39306	8.197352	-1.127210	2.198642	0.224161	0.540010	-1.271064	-17.872078	-70.525705	109.990212			
39307	8.137227	-1.152183	2.097956	0.258421	0.622386	-1.357555	-17.783609	-70.525274	109.786705			
39308	8.312966	-1.099035	2.074893	0.189994	0.695657	-1.204643	-17.754003	-70.548992	109.658036			
39309	8.281219	-0.901407	2.187345	0.000256	0.565187	-1.218727	-17.827994	-70.573792	109.611198			
39310	8.418191	-0.701931	2.195241	-0.217642	0.585723	-1.107098	-18.046781	-70.595161	109.678632			
39311	8.368460	-0.613768	2.175085	-0.310736	0.580777	-1.169485	-18.363089	-70.582548	109.803939			
39312	8.306908	-0.596740	1.923280	-0.337574	0.799214	-1.309329	-18.721660	-70.537173	109.958742			
39313	8.409005	-0.466736	1.609405	-0.496935	1.128454	-1.327465	-19.101444	-70.446041	110.141923			
39314	8.549695	-0.338068	1.567918	-0.660855	1.218035	-1.224932	-19.477135	-70.317800	110.336054			
39315	8.786381	-0.159455	1.717601	-0.888238	1.159884	-0.978566	-19.834233	-70.171920	110.528760			
39316	9.062964	0.006808	1.949376	-1.110676	1.037318	-0.667866	-20.212812	-70.061390	110.755219			
39317	9.617989	0.155636	2.120738	-1.350638	1.055333	-0.112715	-20.632665	-70.003449	111.013378			
39318	9.805027	0.164505	2.120928	-1.405140	1.120143	0.058218	-21.010104	-69.934218	111.203941			
39319	9.815341	0.149549	2.257518	-1.414837	1.004394	0.109462	-21.331968	-69.842489	111.298306			
39320	9.657165	-0.084093	2.380775	-1.184363	0.856089	0.026030	-21.589520	-69.740712	111.296106			
39321	9.590562	-0.310129	2.422746	-0.967781	0.812787	0.002990	-21.789479	-69.658297	111.243260			
39322	9.594473	-0.634755	2.272110	-0.651537	0.970615	-0.001841	-21.930563	-69.611020	111.137002			
39323	9.781579	-1.075016	2.243161	-0.241023	1.066839	0.220781	-21.986196	-69.596814	110.984265			
39324	10.129809	-1.655763	1.972313	0.305857	1.440145	0.535115	-21.916109	-69.598294	110.743525			
39325	10.321493	-1.888894	1.991951	0.524432	1.486769	0.750621	-21.717453	-69.590595	110.412175			
39326	10.499136	-1.958003	2.308993	0.574758	1.249616	1.027292	-21.453622	-69.594208	110.060083			
39327	10.595998	-1.890841	2.728949	0.497758	0.888042	1.244491	-21.161993	-69.614293	109.720160			
39328	10.504072	-1.836005	3.262757	0.451527	0.354785	1.323839	-20.865284	-69.651646	109.373247			
39329	10.477638	-1.778432	3.372501	0.416491	0.234991	1.326824	-20.570021	-69.764430	109.026317			
39330	10.833594	-2.119800	2.934428	0.767239	0.742384	1.559700	-20.186992	-69.946449	108.568790			
39331	11.226003	-2.591593	3.000712	1.238002	0.776382	2.002896	-19.518736	-70.149112	107.865245			
39332	11.532853	-2.996853	3.079366	1.675223	0.773038	2.355540	-18.527038	-70.352848	106.876868			
39333	11.683773	-2.966939	4.176115	1.674172	-0.237435	2.832195	-17.260440	-70.574334	105.700512			
39334	11.987527	-2.149535	5.216252	0.903615	-1.148704	3.355193	-15.869471	-70.905631	104.503558			
39335	12.533379	-1.176025	5.294524	0.015361	-1.095574	3.799742	-14.421998	-71.302083	103.299129			
39336	12.226806	-0.284324	5.251894	-0.716727	-1.202274	3.423519	-12.875951	-71.625525	102.051924			
39337	11.484848	0.605798	5.116072	-1.429481	-1.345030	2.620701	-11.426768	-71.878476	100.963696			
39338	11.144528	1.536893	4.715565	-2.229070	-1.110629	2.128668	-10.210980	-72.096105	100.109755			
39339	10.792365	2.448385	5.289174	-3.044968	-1.811738	1.929982	-9.282815	-72.294347	99.434186			
39340	10.699238	2.638379	6.063633	-3.173056	-2.618731	2.073272	-8.593428	-72.492301	98.814138			
39341	10.557830	2.132508	5.990893	-2.617531	-2.613518	1.944186	-7.969610	-72.648025	98.073722			
39342	9.990321	1.321523	5.621417	-1.750384	-2.431102	1.330880	-7.297695	-72.725622	97.110664			
39343	8.632341	0.322777	4.930857	-0.671417	-2.161537	-0.127042	-6.484961	-72.695389	95.887703			
39344	7.591732	-0.236243	4.389578	-0.048588	-1.941031	-1.257655	-5.532640	-72.632658	94.507473			
39345	6.701572	-0.733464	3.936218	0.505299	-1.766589	-2.225421	-4.467111	-72.524362	93.040175			
39346	6.365567	-1.299696	3.659189	1.114720	-1.604019	-2.616596	-3.279649	-72.407922	91.530229			
39347	6.691627	-1.780614	3.555842	1.635352	-1.414449	-2.334904	-1.967166	-72.329877	90.004019			
39348	7.884662	-2.124101	3.532836	2.030590	-1.043146	-1.213334	-0.629740	-72.319829	88.531003			
39349	8.848971	-2.303864	3.563019	2.276767	-0.798499	-0.300299	0.666522	-72.388805	87.160682			
39350	9.542147	-2.301534	3.769164	2.339254	-0.799540	0.407123	1.810373	-72.408618	86.014404			
39351	10.502712	-1.835646	3.940260	1.941410	-0.665908	1.367183	2.612185	-72.454267	85.236935			
39352	10.653417	-1.494304	3.330920	1.661171	-0.026940	1.325669	3.051455	-72.388735	84.857738			
39353	9.830725	-1.027535	3.407270	1.187261	-0.306889	0.570212	3.130391	-72.207500	84.850582			
39354	8.888565	-0.817804	3.454829	0.950931	-0.598749	-0.307511	2.937994	-72.035012	85.101014			
39355	8.512795	-0.521632	3.583546	0.629652	-0.802403	-0.618057	2.563772	-71.945089	85.507918			
39356	8.294666	-0.558308	3.502835	0.642209	-0.781758	-0.848346	2.022332	-71.901979	86.018203			
39357	7.990995	-0.676286	3.298628	0.732373	-0.682099	-1.199174	1.411011	-71.913263	86.553995			
39358	7.829672	-0.847522	3.232570	0.874141	-0.677715	-1.371830	0.822617	-71.944193	87.051544			
39359	7.755395	-1.069909	3.099540	1.072543	-0.588771	-1.481965	0.252936	-71.998832	87.529627			
39360	7.635360	-1.284067	2.840309	1.269533	-0.396448	-1.673524	-0.261153	-72.068010	87.988512			
39361	7.815154	-1.323258	2.654045	1.295438	-0.176949	-1.556655	-0.735664	-72.160294	88.428942			
39362	7.836714	-1.198604	2.549022	1.154939	-0.076434	-1.565961	-1.161220	-72.228210	88.842477			
39363	7.983591	-1.346537	2.413034	1.290431	0.080843	-1.463925	-1.568263	-72.318229	89.229585			
39364	8.251514	-1.464468	2.488685	1.389390	0.073726	-1.181938	-1.905672	-72.395684	89.571008			
39365	8.462874	-1.431177	2.611594	1.338821	0.014196	-0.941595	-2.121763	-72.430703	89.828578			
39366	8.463895	-1.208327	2.588309	1.110327	0.045662	-0.949167	-2.190834	-72.410347	89.981863			
39367	8.566332	-0.960485	2.432922	0.868778	0.241755	-0.901433	-2.106726	-72.348295	90.018396			
39368	8.578671	-0.796060	2.240289	0.718218	0.449089	-0.951048	-1.872407	-72.246395	89.915126			
39369	8.674856	-0.591145	2.041022	0.533668	0.692964	-0.924307	-1.487395	-72.129303	89.686100			
39370	8.770781	-0.376197	2.027881	0.338672	0.761860	-0.841333	-1.002189	-71.996177	89.345742			
39371	8.759071	-0.181603	1.927596	0.170537	0.879507	-0.887037	-0.455640	-71.868399	88.928792			
39372	8.651179	-0.148883	1.757713	0.166977	1.026401	-1.044954	0.098033	-71.758193	88.460557			
39373	8.472161	-0.060756	1.586961	0.107447	1.147938	-1.270424	0.659270	-71.684498	87.947752			
39374	8.268874	-0.103093	1.389944	0.177854	1.275837	-1.526711	1.221215	-71.668546	87.405818			
39375	8.127798	-0.125020	1.404975	0.223144	1.214396	-1.656336	1.786763	-71.698915	86.846976			
39376	8.300993	-0.184746	1.385583	0.312290	1.276945	-1.498105	2.367278	-71.767806	86.254983			
39377	8.486703	-0.365435	1.311935	0.526067	1.387562	-1.346479	2.991076	-71.841181	85.622000			
39378	8.532030	-0.255130	1.292402	0.446650	1.411686	-1.307484	3.639050	-71.889994	84.979811			
39379	8.461900	-0.369660	1.174092	0.591735	1.491253	-1.413591	4.289554	-71.909443	84.316920			
39380	9.005826	-0.251351	1.492394	0.514608	1.353979	-0.796193	4.900728	-71.925861	83.677156			
39381	9.655325	-0.055959	1.724051	0.367495	1.333704	-0.102544	5.426097	-71.935393	83.062886			
39382	10.085621	-0.076925	1.850123	0.431092	1.340735	0.344337	5.891159	-71.936573	82.489101			
39383	10.653561	-0.103613	2.345843	0.498301	1.038042	1.035638	6.337608	-71.940432	81.939340			
39384	10.831453	0.132405	2.439668	0.295585	1.007444	1.241159	6.766495	-71.936872	81.450701			
39385	10.776313	0.436266	2.113584	0.022916	1.308303	1.099427	7.153474	-71.936976	81.016721			
39386	10.581029	0.439530	2.007645	0.033065	1.349918	0.881171	7.400268	-71.900285	80.721019			
39387	10.412940	-0.023375	1.860905	0.503318	1.426112	0.656587	7.497038	-71.846274	80.553188			
39388	10.340223	-0.633067	1.602104	1.120927	1.635003	0.480903	7.473680	-71.774809	80.495040			
39389	10.426394	-1.465705	1.609324	1.957460	1.630187	0.529399	7.372650	-71.709793	80.501396			
39390	10.463583	-1.975070	1.640907	2.463871	1.596866	0.553575	7.234468	-71.673366	80.566589			
39391	10.478683	-2.348449	1.785653	2.825328	1.446699	0.600340	7.039713	-71.705171	80.704319			
39392	10.733053	-2.400347	1.931146	2.869427	1.370587	0.891388	6.735284	-71.839819	80.979586			
39393	11.028538	-2.181691	1.585376	2.648594	1.769071	1.084878	6.285570	-72.084690	81.466405			
39394	11.169507	-1.704745	1.635029	2.132967	1.739837	1.267037	5.589265	-72.414637	82.244828			
39395	11.094415	-1.481963	2.179073	1.829623	1.152523	1.383477	4.605074	-72.772665	83.310426			
39396	11.121875	-1.271480	3.295034	1.509976	0.047122	1.758265	3.322208	-73.098269	84.650652			
39397	11.202509	-1.164843	4.730753	1.270860	-1.348475	2.262025	1.761158	-73.356527	86.219596			
39398	11.379076	-0.727071	5.758150	0.700597	-2.313190	2.730256	0.006394	-73.614063	87.992137			
39399	11.658822	0.125700	6.087318	-0.273102	-2.583172	3.081123	-1.927732	-73.960363	89.952610			
39400	11.991602	0.842594	6.187155	-1.117682	-2.647194	3.398306	-4.067528	-74.343054	92.055035			
39401	11.682067	0.709553	5.538730	-1.086585	-2.189150	2.902537	-6.226463	-74.607184	94.108628			
39402	10.480016	0.470375	5.247485	-0.927340	-2.275729	1.656763	-8.155779	-74.651259	95.945425			
39403	9.032100	0.139402	5.301320	-0.649249	-2.724833	0.279662	-9.762839	-74.559277	97.470337			
39404	7.974754	-0.370575	5.353671	-0.173389	-3.062920	-0.703132	-11.116463	-74.443988	98.812857			
39405	7.594026	-0.639614	5.150497	0.070427	-2.969740	-1.107431	-12.263038	-74.363016	100.042407			
39406	7.465190	-0.714505	4.772357	0.131871	-2.638666	-1.325347	-13.280770	-74.303572	101.251735			
39407	7.675847	-0.487939	4.360261	-0.118312	-2.179052	-1.244943	-14.264123	-74.248127	102.482988			
39408	8.207186	-0.429108	4.001632	-0.227525	-1.693031	-0.832884	-15.300860	-74.195476	103.757005			
39409	9.043707	-0.367355	4.019825	-0.383012	-1.493812	-0.029832	-16.335444	-74.161192	105.008317			
39410	10.459283	0.026678	4.267656	-0.928519	-1.370559	1.361810	-17.392167	-74.190276	106.233329			
39411	12.037365	0.265429	4.152798	-1.332602	-0.873027	2.823611	-18.380417	-74.254105	107.272454			
39412	12.550759	0.046327	3.687686	-1.190097	-0.311982	3.210710	-19.109227	-74.224568	107.934527			
39413	11.869077	-0.552690	3.050159	-0.552520	0.125999	2.441401	-19.488598	-74.126829	108.199612			
39414	10.823601	-0.888597	2.890022	-0.141115	0.025746	1.424373	-19.480519	-73.987129	108.115705			
39415	10.096988	-0.919999	3.157989	-0.058226	-0.398046	0.798937	-19.225914	-73.867683	107.840737			
39416	9.954347	-0.888532	3.356799	-0.074274	-0.605202	0.712273	-18.837737	-73.795862	107.486838			
39417	9.717166	-0.586665	3.271907	-0.333779	-0.565500	0.436293	-18.340757	-73.738546	107.076254			
39418	9.169266	-0.179080	3.228584	-0.670663	-0.649580	-0.134907	-17.772746	-73.675619	106.642879			
39419	8.719353	0.326393	3.050202	-1.107758	-0.578151	-0.654308	-17.133043	-73.599890	106.168431			
39420	8.337496	1.032480	2.893122	-1.751283	-0.509440	-1.116515	-16.440682	-73.498108	105.679498			
39421	8.263071	1.238677	2.824011	-1.924773	-0.445831	-1.217100	-15.806911	-73.403096	105.206668			
39422	8.069610	1.025694	2.764095	-1.675024	-0.423952	-1.396906	-15.232022	-73.292002	104.770959			
39423	8.018242	0.832604	2.854945	-1.461993	-0.506912	-1.401878	-14.749231	-73.192510	104.382834			
39424	8.195099	0.503020	2.777022	-1.129983	-0.366163	-1.227027	-14.394203	-73.126098	104.081496			
39425	8.199528	0.089612	2.612366	-0.705446	-0.192079	-1.237713	-14.163184	-73.055182	103.845840			
39426	8.204806	-0.103121	2.434303	-0.506179	-0.006994	-1.268740	-14.056788	-72.989669	103.723896			
39427	8.219514	0.031824	2.264167	-0.639465	0.170853	-1.312702	-14.064689	-72.911547	103.689999			
39428	8.313541	0.271197	2.408468	-0.893090	0.073301	-1.199545	-14.169126	-72.787954	103.723311			
39429	7.928050	0.405674	2.544992	-1.013502	-0.143905	-1.539384	-14.293272	-72.566838	103.738561			
39430	7.685061	0.696450	2.718517	-1.304384	-0.347683	-1.743417	-14.468246	-72.315622	103.792621			
39431	7.774266	0.367859	2.428802	-0.993961	-0.009384	-1.720380	-14.698721	-72.059573	103.863150			
39432	7.541141	0.217392	2.497519	-0.846785	-0.107262	-1.911741	-14.888958	-71.756547	103.931839			
39433	7.644027	-0.280646	2.315982	-0.371692	0.133903	-1.830367	-15.117337	-71.464421	104.040189			
39434	7.743150	-0.728867	2.060622	0.056476	0.443165	-1.779379	-15.306772	-71.164106	104.165130			
39435	7.742685	-0.896710	1.647573	0.220032	0.871344	-1.896882	-15.465283	-70.885112	104.309753			
39436	7.965785	-0.899402	1.203579	0.202046	1.397282	-1.830337	-15.647847	-70.630083	104.533242			
39437	8.328342	-0.987025	1.018049	0.244526	1.720622	-1.545193	-15.914314	-70.387557	104.859941			
39438	8.636675	-0.783399	1.137481	-0.015732	1.739208	-1.240961	-16.277910	-70.141106	105.298768			
39439	9.013579	-0.555574	1.491390	-0.321709	1.559690	-0.799298	-16.778662	-69.883315	105.817265			
39440	9.497328	-0.430830	1.813362	-0.543784	1.447541	-0.258537	-17.384887	-69.624669	106.394438			
39441	9.594573	-0.379190	1.903864	-0.655504	1.427787	-0.150610	-18.047579	-69.344260	106.967602			
39442	9.410715	-0.538553	1.756498	-0.522845	1.538323	-0.362990	-18.725300	-69.063588	107.539437			
39443	9.164621	-0.608759	1.804390	-0.476771	1.439771	-0.576011	-19.370854	-68.810953	108.093605			
39444	9.013508	-0.689624	1.612948	-0.417035	1.591991	-0.778754	-19.990451	-68.595823	108.657252			
39445	8.862572	-0.724846	1.725966	-0.412081	1.453162	-0.881401	-20.573348	-68.401417	109.209497			
39446	8.753257	-0.782641	2.116068	-0.400396	1.065790	-0.845336	-21.134608	-68.224172	109.766450			
39447	8.872122	-0.995010	2.464018	-0.260026	0.795359	-0.589041	-21.648537	-68.067873	110.262071			
39448	8.931157	-1.072347	2.669574	-0.235652	0.636168	-0.454174	-22.063080	-67.930435	110.656960			
39449	8.888654	-1.120845	2.554000	-0.203060	0.739435	-0.528327	-22.352442	-67.837770	110.915947			
39450	9.317344	-0.875161	2.056465	-0.495104	1.358571	-0.340782	-22.508879	-67.829894	111.060196			
39451	9.680683	-0.355715	1.834143	-1.049420	1.690516	-0.156233	-22.460978	-67.866835	111.015986			
39452	9.933157	0.469544	1.876294	-1.891392	1.731288	-0.023213	-22.267318	-67.958232	110.841495			
39453	10.403594	0.875232	2.078516	-2.342949	1.694644	0.432298	-21.964934	-68.089529	110.533435			
39454	10.661131	1.464203	2.880348	-2.965131	1.018523	0.877049	-21.516262	-68.241586	110.103130			
39455	10.889983	1.686269	3.038046	-3.178112	0.931975	1.127867	-21.036008	-68.462024	109.550662			
39456	11.152081	1.136339	2.937794	-2.608206	1.089664	1.425656	-20.522134	-68.737706	108.851319			
39457	11.298724	0.213341	3.139917	-1.656041	0.906576	1.763184	-19.899116	-69.100962	107.969705			
39458	11.712728	-0.825062	3.374583	-0.602555	0.754171	2.366128	-19.098145	-69.560703	106.906767			
39459	11.904833	-1.668786	4.298015	0.265579	-0.147623	2.950103	-18.023267	-70.077110	105.617745			
39460	12.096583	-2.358042	5.402302	0.990550	-1.246490	3.549013	-16.736343	-70.693270	104.208742			
39461	13.154087	-3.153547	5.949572	1.806092	-1.584638	4.767955	-15.319945	-71.415490	102.719092			
39462	14.037651	-4.049887	5.707193	2.814433	-1.259541	5.566430	-13.632177	-72.081593	101.093690			
39463	13.769907	-2.719357	5.426913	1.695714	-1.136157	5.096613	-11.610110	-72.469566	99.328621			
39464	11.530704	-1.227575	5.255899	0.480005	-1.623375	2.805606	-9.718057	-72.538793	97.723931			
39465	9.443467	-0.391092	5.544515	-0.171474	-2.488616	0.857381	-8.261194	-72.528408	96.568703			
39466	8.630623	0.538911	5.349338	-0.990159	-2.521767	-0.012000	-7.287574	-72.584303	95.846568			
39467	8.080321	0.500984	5.125849	-0.881597	-2.482074	-0.599714	-6.660601	-72.659794	95.343754			
39468	7.855609	0.619146	5.280484	-0.967000	-2.705466	-0.772624	-6.157032	-72.745655	94.888752			
39469	7.283995	0.742342	5.065395	-1.047052	-2.675680	-1.385929	-5.648726	-72.804194	94.347475			
39470	6.940145	0.647269	4.595727	-0.914066	-2.335718	-1.849387	-5.125246	-72.873240	93.695381			
39471	7.706038	0.303742	4.116874	-0.553923	-1.669881	-1.249478	-4.539287	-72.988099	92.914246			
39472	8.857288	-0.211089	4.001714	-0.030481	-1.256209	-0.172629	-3.933616	-73.155390	92.056155			
39473	9.971230	-0.915084	3.927577	0.692546	-0.917098	0.881599	-3.286279	-73.360679	91.211857			
39474	10.789884	-1.282305	3.766790	1.095273	-0.580278	1.620511	-2.620228	-73.544896	90.457899			
39475	11.267869	-1.204611	3.659752	1.055028	-0.374716	2.042948	-2.076455	-73.696062	89.904697			
39476	11.465765	-1.058319	3.178931	0.952293	0.120953	2.093943	-1.752074	-73.798645	89.605188			
39477	11.175412	-0.880218	2.999930	0.793442	0.205157	1.762827	-1.619492	-73.822799	89.503760			
39478	10.061148	-0.880336	3.195873	0.786233	-0.289483	0.747299	-1.667786	-73.758984	89.572793			
39479	9.263216	-0.854027	3.523145	0.740459	-0.815361	0.073464	-1.870877	-73.708938	89.776975			
39480	9.471563	-0.890463	3.669385	0.758480	-0.895345	0.316027	-2.209206	-73.723614	90.088687			
39481	8.834028	-1.111698	3.678521	0.960935	-1.088552	-0.289081	-2.621856	-73.675824	90.439719			
39482	8.348102	-1.373553	3.697263	1.201306	-1.249550	-0.743914	-3.107729	-73.673117	90.839041			
39483	8.246540	-1.671605	3.177481	1.496849	-0.793040	-0.979424	-3.637735	-73.677463	91.270721			
39484	7.900850	-1.821005	2.827660	1.640014	-0.560114	-1.402471	-4.150282	-73.635828	91.697396			
39485	7.616108	-1.618594	2.616326	1.428473	-0.425265	-1.735021	-4.638898	-73.585083	92.114760			
39486	7.557987	-1.243919	2.568502	1.037716	-0.376392	-1.809616	-5.095000	-73.552800	92.509374			
39487	7.461488	-0.662837	2.660101	0.436765	-0.465322	-1.889179	-5.502409	-73.535290	92.849123			
39488	7.508951	-0.334465	2.668304	0.092065	-0.447438	-1.849813	-5.871372	-73.562404	93.132487			
39489	7.540208	-0.182844	2.581031	-0.067914	-0.355321	-1.849082	-6.125774	-73.624783	93.283147			
39490	7.810020	-0.067107	2.447072	-0.187199	-0.155462	-1.631621	-6.196370	-73.699940	93.238631			
39491	7.926489	-0.306195	2.260083	0.062029	0.036734	-1.564915	-6.030876	-73.744572	92.963479			
39492	7.901115	-0.651308	2.158014	0.424007	0.108366	-1.607976	-5.639917	-73.733192	92.500872			
39493	7.918967	-0.910067	2.339878	0.691140	-0.069276	-1.534356	-5.067892	-73.678381	91.898643			
39494	8.109862	-1.057790	2.443891	0.856467	-0.113680	-1.320641	-4.382722	-73.611055	91.207503			
39495	8.106171	-1.187531	2.420210	1.017290	-0.086905	-1.331230	-3.622724	-73.517819	90.450001			
39496	8.380545	-1.168236	2.472841	1.027778	-0.044184	-1.057412	-2.816075	-73.420198	89.655311			
39497	8.459677	-0.976649	2.108237	0.891966	0.354723	-1.092420	-2.006905	-73.283867	88.869405			
39498	8.225141	-0.500292	1.878698	0.461192	0.555845	-1.391825	-1.266139	-73.093910	88.164995			
39499	7.971353	0.035334	1.462292	-0.025462	0.931780	-1.762031	-0.689994	-72.945892	87.572734			
39500	8.005946	0.201060	0.714870	-0.129174	1.677818	-1.950446	-0.305875	-72.892088	87.088842			
39501	8.598641	0.278212	0.133999	-0.147918	2.411224	-1.554596	-0.073261	-72.929131	86.688754			
39502	9.225922	0.101485	0.100880	0.057627	2.607861	-0.962048	0.085279	-72.999648	86.322771			
39503	9.538659	-0.057174	0.457637	0.217416	2.339262	-0.556378	0.312774	-73.035215	85.929258			
39504	9.608758	-0.396184	1.422242	0.515824	1.413818	-0.208367	0.670773	-73.014599	85.481477			
39505	9.589471	-0.557101	2.413485	0.637159	0.454130	0.060557	1.217577	-72.974247	84.937612			
39506	9.249633	-0.608469	2.690793	0.691731	0.092741	-0.185687	1.831071	-72.913431	84.327606			
39507	8.913414	-0.605306	2.509450	0.720245	0.170806	-0.562569	2.429649	-72.889361	83.639651			
39508	8.786036	-0.715115	2.184802	0.873025	0.430262	-0.783190	2.935146	-72.912888	82.925571			
39509	9.157679	-0.830359	2.087432	1.031137	0.604844	-0.459571	3.386798	-73.026670	82.223860			
39510	10.075838	-0.757193	2.323030	1.000504	0.624310	0.487868	3.844514	-73.142099	81.532636			
39511	11.029732	-0.752298	2.290825	1.067189	0.908504	1.390189	4.396032	-73.164230	80.813397			
39512	11.588630	-0.481921	2.333522	0.857642	1.047591	1.940642	5.018640	-73.096399	80.089455			
39513	11.906460	-0.550030	2.254783	0.990940	1.218457	2.215760	5.650580	-72.973816	79.348580			
39514	11.723267	-0.939614	1.882663	1.444263	1.506517	1.913631	6.245464	-72.785782	78.625809			
39515	11.419910	-1.513534	1.802698	2.048884	1.468648	1.571502	6.769996	-72.574697	77.967504			
39516	10.843650	-2.472251	1.554948	3.025252	1.467865	0.902149	7.191711	-72.391085	77.430169			
39517	10.335700	-3.172890	1.231071	3.743191	1.574977	0.282725	7.457819	-72.249769	77.109491			
39518	10.208544	-3.603214	0.926197	4.200515	1.797968	0.045220	7.505440	-72.185478	77.093784			
39519	10.265406	-2.909843	0.823447	3.517047	1.992502	0.096101	7.325589	-72.217179	77.461945			
39520	10.366911	-1.924888	0.899169	2.508359	2.051757	0.261280	6.781075	-72.310903	78.260002			
39521	10.837848	-0.897154	2.037498	1.372377	1.199023	1.100321	5.784395	-72.475279	79.477424			
39522	11.083078	-0.038638	3.769704	0.320200	-0.319504	1.885234	4.280474	-72.673377	81.065914			
39523	11.000021	0.149365	5.402282	-0.101491	-1.909367	2.293101	2.394523	-72.898169	82.882105			
39524	11.139665	0.076281	6.081757	-0.206997	-2.560890	2.616429	0.305318	-73.181904	84.852345			
39525	11.758559	1.033575	6.136219	-1.291581	-2.414467	3.205955	-1.867973	-73.553922	86.964564			
39526	12.364017	2.224132	5.794054	-2.591432	-1.896885	3.643548	-4.195834	-73.946271	89.190774			
39527	12.491830	2.230442	5.043400	-2.690135	-1.215377	3.519233	-6.662298	-74.225032	91.424592			
39528	11.237885	1.099888	4.456387	-1.651079	-1.125187	2.160845	-9.022310	-74.269772	93.442061			
39529	9.664413	0.036013	5.150622	-0.764220	-2.307941	0.865294	-11.084741	-74.147531	95.124026			
39530	9.019926	-1.328258	5.682958	0.438776	-3.111452	0.460811	-12.904952	-74.044038	96.612809			
39531	8.511541	-2.121039	5.669865	1.152365	-3.309548	0.026568	-14.375507	-73.925575	97.925445			
39532	8.409469	-2.552113	5.382727	1.551603	-3.097227	-0.106728	-15.552391	-73.821668	99.105593			
39533	8.454167	-2.790791	4.687475	1.822311	-2.431252	-0.220924	-16.495851	-73.716736	100.208451			
39534	8.240191	-2.336855	4.532923	1.368545	-2.276453	-0.493151	-17.234109	-73.556761	101.223081			
39535	8.910129	-1.835989	4.529372	0.809851	-2.016593	0.114743	-17.900388	-73.419579	102.208499			
39536	9.619852	-0.959017	4.739356	-0.150125	-1.925061	0.779493	-18.485420	-73.293000	103.117299			
39537	9.946369	-0.223817	4.821369	-0.934685	-1.839519	1.048639	-19.044540	-73.165869	103.921893			
39538	10.191836	1.226768	4.467065	-2.385072	-1.314896	1.046205	-19.609951	-73.067762	104.671244			
39539	10.043655	1.557659	3.941973	-2.685843	-0.826780	0.720262	-20.265083	-72.980130	105.310562			
39540	10.083608	1.127481	2.980927	-2.203967	0.079684	0.530058	-20.832735	-72.906134	105.790265			
39541	9.635888	1.570801	2.852842	-2.621320	0.123881	0.014302	-21.103373	-72.756924	105.955235			
39542	9.225086	0.917379	3.086557	-1.980544	-0.238833	-0.247597	-21.238703	-72.613430	105.916856			
39543	9.082991	0.368135	3.482276	-1.475267	-0.674911	-0.214223	-21.204381	-72.497720	105.745143			
39544	8.786164	0.379839	3.553857	-1.470926	-0.806754	-0.476931	-20.999823	-72.405777	105.439180			
39545	8.335695	0.766065	3.596251	-1.812875	-0.928832	-0.932688	-20.606022	-72.338912	104.994606			
39546	8.070802	1.230047	3.415223	-2.214294	-0.780534	-1.280266	-20.060655	-72.298412	104.428217			
39547	7.818850	1.245308	2.902789	-2.131145	-0.353568	-1.661336	-19.453829	-72.289069	103.780057			
39548	7.621460	1.243395	2.549259	-2.051868	-0.068213	-1.943981	-18.885798	-72.325647	103.136490			
39549	7.701217	0.931412	2.501581	-1.720391	-0.025837	-1.845647	-18.451714	-72.418001	102.576970			
39550	7.944062	0.470351	2.665498	-1.279905	-0.156378	-1.519823	-18.166704	-72.518087	102.121888			
39551	8.157191	-0.060778	2.627507	-0.750644	-0.115543	-1.276271	-18.030458	-72.622296	101.797216			
39552	8.645517	-0.510018	2.680702	-0.336079	-0.079268	-0.753328	-18.056009	-72.728499	101.613587			
39553	8.850447	-0.897386	2.657469	0.038210	-0.047367	-0.528607	-18.129086	-72.771516	101.502740			
39554	8.868148	-0.906851	2.775962	0.026516	-0.162852	-0.477530	-18.317448	-72.799585	101.517526			
39555	8.805728	-1.222569	2.781319	0.332958	-0.220933	-0.506153	-18.492296	-72.765624	101.529940			
39556	8.374461	-1.077744	2.907840	0.188607	-0.440730	-0.895355	-18.611453	-72.641818	101.509911			
39557	7.916846	-0.967931	2.718156	0.121705	-0.361227	-1.395066	-18.719687	-72.459504	101.474042			
39558	8.005356	-1.040501	2.542787	0.200292	-0.148997	-1.352679	-18.840679	-72.239014	101.455039			
39559	7.969765	-1.075226	2.319012	0.256185	0.082042	-1.447366	-18.910489	-71.972676	101.413844			
39560	7.865838	-1.017541	2.154687	0.218914	0.250089	-1.600569	-18.934832	-71.700011	101.364358			
39561	8.018971	-0.989976	1.747420	0.231966	0.721524	-1.580864	-18.942844	-71.447530	101.334088			
39562	8.249022	-0.891847	1.249139	0.184373	1.307184	-1.526596	-18.956448	-71.237150	101.365007			
39563	8.536942	-0.928487	1.003196	0.229029	1.652756	-1.329543	-19.007243	-71.062964	101.481295			
39564	8.713503	-0.864905	1.026210	0.139645	1.718081	-1.166593	-19.134314	-70.907808	101.718398			
39565	8.922998	-0.695107	1.261165	-0.092473	1.603004	-0.918006	-19.389097	-70.769500	102.097878			
39566	8.926761	-0.514706	1.599445	-0.341677	1.324786	-0.832804	-19.760776	-70.607965	102.569848			
39567	8.774267	-0.262472	1.773109	-0.633259	1.159981	-0.955269	-20.236765	-70.417089	103.109179			
39568	8.450975	-0.293772	1.607494	-0.589603	1.229392	-1.313856	-20.822221	-70.209149	103.699679			
39569	8.067063	-0.513620	1.249827	-0.330281	1.436678	-1.767185	-21.501696	-70.014150	104.359647			
39570	8.049192	-0.805760	1.079002	-0.056705	1.578289	-1.805902	-22.228445	-69.829905	105.067011			
39571	8.007883	-0.911776	1.187951	-0.005484	1.467702	-1.799299	-22.966447	-69.637841	105.805356			
39572	8.133895	-0.914535	1.556506	-0.110920	1.179115	-1.565474	-23.758667	-69.462324	106.590280			
39573	8.846875	-1.012373	2.108862	-0.212917	0.902185	-0.708848	-24.589025	-69.320323	107.404458			
39574	9.705728	-1.377741	2.090864	0.005218	1.178784	0.141268	-25.412984	-69.194403	108.174570			
39575	10.029896	-1.833528	2.111828	0.362948	1.233174	0.520163	-26.052728	-69.032547	108.765978			
39576	10.149406	-2.134027	1.769793	0.652789	1.581563	0.568501	-26.444335	-68.866101	109.170540			
39577	10.055855	-2.057843	1.432732	0.611066	1.894764	0.358057	-26.560573	-68.713849	109.391147			
39578	9.980004	-1.345318	1.377330	-0.085722	2.011177	0.150002	-26.472141	-68.600936	109.520923			
39579	9.970235	-0.369753	1.505131	-1.065546	1.989770	0.021597	-26.285962	-68.572552	109.628778			
39580	10.344503	0.468955	1.700631	-1.959000	2.000777	0.300669	-26.088912	-68.659764	109.714086			
39581	10.743300	1.007976	2.239915	-2.594572	1.652333	0.769827	-25.813081	-68.818025	109.655700			
39582	11.089511	1.206566	2.573262	-2.845984	1.441628	1.181702	-25.451347	-69.034546	109.377075			
39583	11.412765	0.567473	2.626991	-2.217324	1.414861	1.613405	-24.961373	-69.305103	108.832088			
39584	11.548946	-0.369057	3.115757	-1.307799	0.882666	2.050372	-24.245489	-69.657665	108.031910			
39585	11.690876	-1.230132	3.577491	-0.445687	0.359085	2.461649	-23.306481	-70.147859	107.053482			
39586	12.035677	-1.880227	3.840220	0.238850	0.076168	2.957397	-22.137823	-70.750344	105.954687			
39587	12.514420	-2.384760	4.716631	0.718864	-0.759818	3.731583	-20.818373	-71.433431	104.792101			
39588	13.223402	-2.401351	5.624929	0.723186	-1.543520	4.656419	-19.358872	-72.179921	103.595341			
39589	13.893164	-2.049123	5.754001	0.479124	-1.587585	5.272838	-17.750309	-72.878873	102.317820			
39590	13.954892	-1.361706	5.136124	0.026703	-1.054022	5.082210	-15.949586	-73.422892	100.915539			
39591	12.576109	-0.173810	4.821486	-0.895537	-1.129909	3.579657	-14.085352	-73.718942	99.495015			
39592	10.544433	0.497864	5.221026	-1.381718	-2.066286	1.698715	-12.497682	-73.878916	98.302420			
39593	9.539101	0.672194	5.869217	-1.472845	-2.980743	0.903620	-11.264911	-74.046237	97.389937			
39594	9.290139	0.632651	5.629682	-1.335686	-2.848366	0.603771	-10.256827	-74.200117	96.590670			
39595	8.953579	0.703457	5.122127	-1.303482	-2.467195	0.142775	-9.237108	-74.295374	95.706075			
39596	8.185551	0.560384	4.748811	-1.066091	-2.330820	-0.685857	-8.162143	-74.338229	94.642330			
39597	7.649751	0.256399	4.308294	-0.680635	-2.070204	-1.304063	-7.080732	-74.377937	93.466560			
39598	7.372121	-0.112176	4.116356	-0.259200	-1.984342	-1.609015	-5.997766	-74.426449	92.208246			
39599	7.346081	-0.612419	4.287560	0.262940	-2.192844	-1.575860	-4.891607	-74.480166	90.916940			
39600	8.202208	-1.120353	4.280244	0.803453	-2.005511	-0.747142	-3.789832	-74.608634	89.659431			
39601	9.874977	-1.208192	3.973138	0.960423	-1.302290	0.777026	-2.711729	-74.794329	88.514813			
39602	11.062994	-0.856015	3.549880	0.698252	-0.591358	1.801385	-1.724444	-74.930161	87.551423			
39603	11.300908	-0.524420	3.382660	0.428217	-0.360610	1.981988	-0.961085	-74.932535	86.868505			
39604	10.745662	-0.387013	3.243541	0.325809	-0.355930	1.408127	-0.502392	-74.866350	86.508018			
39605	9.775397	-0.467389	2.967207	0.426623	-0.331925	0.399508	-0.319729	-74.749607	86.404837			
39606	9.171949	-0.637125	3.009004	0.588219	-0.522777	-0.170833	-0.360282	-74.647681	86.492530			
39607	8.459456	-1.054441	3.200192	0.975594	-0.904101	-0.804566	-0.627043	-74.524619	86.771373			
39608	7.771185	-1.331658	3.379576	1.216399	-1.260169	-1.415161	-1.102730	-74.421195	87.228870			
39609	7.959719	-1.628855	3.308642	1.496957	-1.152426	-1.245986	-1.788054	-74.409621	87.845749			
39610	7.963346	-1.868075	3.054577	1.722296	-0.922043	-1.302783	-2.578169	-74.395352	88.534283			
39611	7.747592	-2.052432	3.085869	1.870116	-1.021333	-1.492850	-3.365738	-74.365292	89.207933			
39612	7.962634	-2.157059	3.010596	1.950284	-0.896874	-1.297285	-4.060820	-74.350818	89.829204			
39613	8.191301	-1.865386	2.898636	1.642796	-0.704394	-1.107276	-4.596065	-74.327922	90.381645			
39614	8.159653	-1.446386	2.726580	1.219265	-0.511691	-1.189593	-4.989413	-74.284109	90.849907			
39615	8.055724	-1.126655	2.668087	0.892432	-0.454572	-1.310944	-5.256984	-74.253693	91.215949			
39616	7.994197	-1.022114	2.490448	0.793176	-0.291277	-1.419817	-5.420259	-74.270610	91.466181			
39617	8.102600	-0.842700	2.424328	0.615649	-0.190555	-1.337765	-5.405294	-74.319139	91.536624			
39618	8.008184	-1.016077	2.424615	0.793728	-0.231773	-1.424693	-5.217684	-74.346600	91.442573			
39619	8.032418	-0.964047	2.634980	0.739832	-0.424328	-1.347180	-4.826899	-74.343996	91.195665			
39620	8.004531	-0.986332	2.532253	0.787605	-0.329944	-1.402667	-4.314553	-74.316671	90.854005			
39621	8.113866	-0.710973	2.461290	0.540096	-0.207812	-1.323677	-3.687710	-74.257957	90.444181			
39622	8.318926	-0.375820	2.432509	0.233888	-0.095504	-1.140954	-2.997960	-74.193258	89.990168			
39623	8.478616	0.021998	2.335863	-0.129086	0.072917	-1.019417	-2.284816	-74.102086	89.508607			
39624	8.601710	0.269765	2.209361	-0.341555	0.254781	-0.937903	-1.623726	-73.987307	89.037812			
39625	8.555287	0.506307	1.765878	-0.532150	0.695341	-1.106319	-1.014277	-73.858790	88.558824			
39626	8.354846	0.753570	1.198435	-0.734392	1.211198	-1.457978	-0.528898	-73.752213	88.089328			
39627	8.293449	0.789111	0.974571	-0.741791	1.421338	-1.579626	-0.155494	-73.709418	87.595256			
39628	8.367628	0.631126	1.020559	-0.566696	1.394436	-1.494549	0.157688	-73.725123	87.067172			
39629	9.010837	0.093034	1.174068	-0.007582	1.396188	-0.833109	0.498280	-73.778812	86.476884			
39630	9.596618	-0.468071	1.504513	0.569955	1.206857	-0.179603	0.988426	-73.776942	85.827198			
39631	9.685117	-0.712255	1.896503	0.825818	0.846378	0.011114	1.673197	-73.686072	85.105583			
39632	9.831134	-1.081750	2.038570	1.228569	0.741114	0.183230	2.470768	-73.602180	84.305602			
39633	9.703310	-1.354860	2.054997	1.539722	0.682898	0.055220	3.370228	-73.524811	83.439367			
39634	9.518822	-1.244108	2.314008	1.456138	0.395694	-0.053932	4.323682	-73.462352	82.496526			
39635	9.268618	-0.991412	2.428162	1.236366	0.233382	-0.262667	5.300493	-73.405384	81.499086			
39636	9.219481	-0.265799	2.192572	0.569602	0.491231	-0.362243	6.275748	-73.332330	80.501291			
39637	9.183392	0.466742	2.128043	-0.113157	0.594991	-0.393870	7.157968	-73.217510	79.574129			
39638	9.316274	0.744162	2.169939	-0.341646	0.623031	-0.244495	7.921691	-73.090216	78.730734			
39639	9.564181	0.777832	2.055424	-0.316406	0.819570	-0.038670	8.556695	-72.972323	78.027373			
39640	9.738446	0.551162	1.861537	-0.037263	1.051330	0.061504	9.054195	-72.887985	77.465174			
39641	10.138421	0.075500	1.649993	0.498775	1.343053	0.358996	9.403764	-72.832744	77.052306			
39642	10.421470	-0.604098	1.290351	1.232041	1.726210	0.489702	9.612571	-72.779282	76.766427			
39643	10.453051	-1.396205	0.993834	2.051542	1.967915	0.391324	9.700091	-72.725485	76.607828			
39644	10.319689	-2.306627	1.104862	2.949137	1.763827	0.248562	9.675356	-72.676171	76.574931			
39645	10.078240	-2.997800	1.524834	3.597027	1.245570	0.106627	9.589535	-72.678935	76.646119			
39646	9.893413	-3.122155	1.944114	3.677235	0.778504	0.050320	9.447400	-72.763681	76.842649			
39647	9.893640	-2.542293	2.027289	3.079355	0.727906	0.109255	9.199493	-72.923639	77.210883			
39648	10.025135	-1.508288	2.002693	2.031347	0.838460	0.284812	8.742304	-73.155167	77.842915			
39649	10.245271	-0.421421	2.531737	0.890222	0.431295	0.702728	7.930464	-73.451847	78.790750			
39650	10.933399	0.708386	2.882206	-0.283717	0.307570	1.508628	6.693385	-73.824249	80.095456			
39651	11.667964	1.685257	4.132707	-1.382279	-0.696045	2.583445	4.987106	-74.217045	81.741309			
39652	12.350734	1.937571	5.359223	-1.803476	-1.755104	3.554455	2.838611	-74.699426	83.675717			
39653	13.548714	2.416294	5.872713	-2.443212	-2.014617	4.811354	0.362833	-75.294848	85.865941			
39654	13.994008	2.042027	5.112546	-2.200221	-1.304045	5.006049	-2.351472	-75.750601	88.133572			
39655	12.440510	0.737650	3.987670	-0.996266	-0.753335	3.212293	-4.805053	-75.904421	90.090551			
39656	10.248277	0.122479	3.953190	-0.502463	-1.312994	1.081925	-6.803761	-75.891466	91.571502			
39657	9.202613	-0.806958	4.383302	0.293255	-2.067254	0.196927	-8.500859	-75.918870	92.678985			
39658	8.724002	-2.281191	4.901578	1.625432	-2.845325	-0.086486	-9.858551	-75.974229	93.476958			
39659	8.628937	-2.432002	5.413198	1.647270	-3.403029	-0.046346	-10.866062	-76.034376	94.093833			
39660	8.857896	-2.005270	5.245847	1.186314	-3.157407	0.118355	-11.661727	-76.076682	94.646537			
39661	8.833103	-1.310757	4.773969	0.519333	-2.633996	-0.049242	-12.285142	-76.046051	95.167211			
39662	8.539713	-0.509962	4.494247	-0.258355	-2.336008	-0.439252	-12.810942	-75.990203	95.701458			
39663	8.796731	0.540271	4.497299	-1.327595	-2.152168	-0.246826	-13.414296	-75.985245	96.350780			
39664	9.434443	1.215905	4.487203	-2.040041	-1.915700	0.325872	-14.163095	-76.004215	97.083943			
39665	9.905180	1.718129	4.862509	-2.634496	-2.108086	0.832679	-14.936314	-75.985076	97.732082			
39666	10.322026	1.892170	4.874198	-2.863541	-1.989526	1.220176	-15.684193	-75.947301	98.211943			
39667	10.824790	1.721889	4.234218	-2.670205	-1.255864	1.561063	-16.389496	-75.913796	98.497032			
39668	10.903970	1.495924	3.656944	-2.407545	-0.686304	1.511629	-16.983227	-75.855696	98.573516			
39669	10.440062	1.209943	3.405481	-2.100960	-0.565220	1.018864	-17.363651	-75.775056	98.354585			
39670	10.014720	0.959117	3.693260	-1.906361	-0.947531	0.690767	-17.484874	-75.702342	97.832529			
39671	9.768294	1.000395	3.925934	-1.990628	-1.190797	0.504900	-17.293046	-75.651624	97.000065			
39672	9.651795	1.167486	3.975493	-2.161199	-1.205065	0.395234	-16.847873	-75.618436	95.885366			
39673	9.346738	1.291917	3.756418	-2.222526	-1.012327	0.045134	-16.141769	-75.558183	94.496321			
39674	8.954111	1.333277	3.462052	-2.173566	-0.780148	-0.399596	-15.234845	-75.466327	92.914372			
39675	8.812513	1.392822	3.215550	-2.146513	-0.526482	-0.590153	-14.215274	-75.371346	91.214389			
39676	8.606131	1.508563	3.028335	-2.179093	-0.335284	-0.832100	-13.115735	-75.289153	89.454599			
39677	8.676883	1.415582	2.963628	-2.034834	-0.243391	-0.764191	-12.106951	-75.264188	87.735183			
39678	8.824111	1.398274	2.963505	-1.980646	-0.181888	-0.612347	-11.206452	-75.252231	86.089909			
39679	8.999433	1.154039	2.847192	-1.679863	-0.066677	-0.453114	-10.480041	-75.251128	84.557213			
39680	8.919138	0.901701	2.708265	-1.374662	-0.002651	-0.549373	-9.904984	-75.215145	83.149898			
39681	8.865172	0.767980	2.613026	-1.199964	0.057083	-0.616724	-9.502856	-75.171494	81.904763			
39682	8.838561	0.815463	2.679947	-1.251648	0.028038	-0.625752	-9.283062	-75.109329	80.822949			
39683	8.892919	0.980799	2.911969	-1.471744	-0.087095	-0.520120	-9.235960	-75.021203	79.873854			
39684	8.645343	1.262863	3.057273	-1.796035	-0.145564	-0.733231	-9.316435	-74.881522	78.991207			
39685	8.263152	1.408656	3.074538	-1.960320	-0.151665	-1.103463	-9.465642	-74.705532	78.100642			
39686	8.135211	1.447425	2.887512	-1.937073	0.063733	-1.277015	-9.616641	-74.485848	77.145528			
39687	8.048716	1.275463	2.608936	-1.671403	0.294230	-1.426114	-9.667473	-74.230150	76.063438			
39688	8.084965	1.095212	2.496591	-1.443602	0.399380	-1.412971	-9.619983	-73.964577	74.898549			
39689	8.371884	0.915245	2.457739	-1.221970	0.496150	-1.139342	-9.512191	-73.731813	73.710437			
39690	8.900782	0.844812	2.351030	-1.045987	0.751752	-0.658153	-9.394698	-73.540255	72.538889			
39691	9.331178	0.958598	2.213354	-1.020677	1.081979	-0.290292	-9.316357	-73.369364	71.416071			
39692	9.519969	0.961199	2.296448	-1.013576	1.109004	-0.087981	-9.357423	-73.213431	70.370392			
39693	9.630241	0.944880	2.261831	-0.945844	1.205111	0.005820	-9.513549	-73.063287	69.396753			
39694	9.398295	1.229141	2.345421	-1.232948	1.265687	-0.209704	-9.826836	-72.890133	68.490181			
39695	9.144158	1.239591	2.342344	-1.247309	1.265462	-0.459547	-10.306876	-72.707411	67.650238			
39696	9.060083	1.290428	2.182292	-1.196851	1.463113	-0.596444	-10.895290	-72.527348	66.840346			
39697	9.173807	1.149196	1.883690	-0.880596	1.716097	-0.576517	-11.534397	-72.333823	66.018649			
39698	9.225758	1.048608	1.782935	-0.706522	1.812897	-0.560288	-12.180725	-72.129080	65.181588			
39699	9.375544	0.995804	1.886829	-0.674188	1.806124	-0.392732	-12.817714	-71.924127	64.310821			
39700	9.407098	0.731854	2.029392	-0.517969	1.608744	-0.310540	-13.458824	-71.710654	63.413834			
39701	9.514284	0.453855	2.094051	-0.302155	1.473798	-0.176872	-14.088766	-71.495870	62.509394			
39702	9.736483	0.431477	2.184707	-0.284153	1.513083	0.055836	-14.671843	-71.282877	61.585046			
39703	10.059655	0.536073	2.212488	-0.297427	1.708718	0.354447	-15.127963	-71.078364	60.575822			
39704	10.440056	0.876827	2.216856	-0.438462	2.100524	0.678885	-15.438548	-70.873517	59.436410			
39705	10.679958	1.125704	2.200076	-0.496937	2.408624	0.870005	-15.622513	-70.647922	58.132213			
39706	10.702821	1.380916	2.192875	-0.580245	2.660560	0.857354	-15.740019	-70.406980	56.696309			
39707	10.577816	1.601222	2.187035	-0.650840	2.850541	0.708099	-15.852159	-70.167902	55.184392			
39708	10.540081	1.701775	2.103652	-0.559762	3.021552	0.626204	-15.996695	-69.951509	53.661530			
39709	10.719627	1.817388	1.840985	-0.287007	3.359121	0.686606	-16.135560	-69.728475	52.124476			
39710	10.878647	1.895204	1.554995	0.044860	3.662741	0.719904	-16.254766	-69.468531	50.549526			
39711	10.642905	1.929180	1.691089	-0.000518	3.598163	0.526774	-16.364728	-69.188079	48.920638			
39712	10.490134	1.791266	2.182021	-0.222424	3.246956	0.551628	-16.488648	-68.930826	47.243903			
39713	10.523833	1.371754	2.537735	-0.163742	2.780863	0.737744	-16.617127	-68.693824	45.490713			
39714	10.460346	0.732427	2.620536	0.178033	2.213056	0.765224	-16.692487	-68.454606	43.609740			
39715	10.561836	-0.097324	2.655681	0.658884	1.514346	0.952370	-16.686357	-68.205708	41.576140			
39716	10.722942	-1.223087	2.781908	1.161832	0.494928	1.260762	-16.528222	-67.958618	39.361595			
39717	10.785733	-1.976092	3.060368	1.294551	-0.299673	1.493810	-16.156501	-67.730539	36.986010			
39718	10.907740	-2.108282	3.481210	1.051719	-0.569188	1.767989	-15.591455	-67.530820	34.486682			
39719	10.926964	-2.213960	3.631103	0.996119	-0.760755	1.845514	-14.892085	-67.369113	31.911272			
39720	10.822118	-2.251148	3.417447	1.195599	-0.831524	1.665265	-14.101826	-67.213938	29.319063			
39721	10.264273	-1.973303	3.149523	1.203503	-0.685926	1.015482	-13.307762	-67.038719	26.801697			
39722	9.551936	-1.285885	2.997290	0.962462	-0.183735	0.233017	-12.598519	-66.840870	24.433441			
39723	8.831630	-0.164597	2.938112	0.567341	0.753183	-0.551605	-12.077489	-66.623029	22.280270			
39724	8.251447	0.655624	2.701462	0.485894	1.478091	-1.245734	-11.825156	-66.391124	20.347186			
39725	8.160659	0.834400	2.414250	0.766944	1.661999	-1.459835	-11.843953	-66.155948	18.587464			
39726	8.107526	0.389459	1.975023	1.284229	1.240102	-1.651999	-12.053953	-65.913988	16.911483			
39727	7.814898	-0.335949	1.753593	1.503743	0.477750	-1.953242	-12.371990	-65.659526	15.266349			
39728	7.823599	-1.088625	1.693163	1.644186	-0.293045	-1.908808	-12.758085	-65.432214	13.664959			
39729	8.185164	-1.936664	1.555327	1.944461	-1.133126	-1.560319	-13.193844	-65.245098	12.103392			
39730	8.817615	-2.938455	1.704597	2.031396	-2.104230	-0.827378	-13.656917	-65.107466	10.573367			
39731	9.461643	-3.853892	2.155169	1.788104	-2.963827	0.038084	-14.076833	-64.992647	9.051497			
39732	9.748958	-4.573322	2.567311	1.397814	-3.638653	0.548493	-14.382979	-64.865561	7.518081			
39733	9.869384	-5.078347	2.940315	0.964567	-4.097945	0.869792	-14.552006	-64.759260	5.988607			
39734	9.623548	-4.726541	3.220820	0.558042	-3.726444	0.729045	-14.656788	-64.679946	4.532580			
39735	9.067056	-4.151173	2.962750	0.557131	-3.232312	0.059644	-14.779824	-64.627342	3.168010			
39736	9.165872	-3.268907	2.869455	0.771388	-2.391394	0.016791	-14.961346	-64.616179	1.900703			
39737	9.371573	-2.624717	2.883542	0.927517	-1.764838	0.139964	-15.169792	-64.591724	0.671923			
39738	9.389876	-2.155953	3.174904	0.754389	-1.241060	0.226663	-15.419612	-64.554077	-0.484893			
39739	9.272708	-2.093443	3.295875	0.592216	-1.140559	0.166128	-15.790360	-64.519672	-1.539669			
39740	9.117741	-2.280439	3.266193	0.477446	-1.307249	0.039453	-16.280555	-64.485764	-2.489824			
39741	8.684224	-2.365889	2.890424	0.561392	-1.474781	-0.491878	-16.838587	-64.434806	-3.367347			
39742	8.193111	-2.263354	2.411811	0.762203	-1.505775	-1.139840	-17.439446	-64.371414	-4.194344			
39743	8.036020	-2.090618	2.028292	1.047517	-1.461312	-1.456285	-18.064765	-64.351378	-4.984063			
39744	8.197536	-1.833762	1.856157	1.322353	-1.285378	-1.409908	-18.662650	-64.385464	-5.779138			
39745	8.326293	-1.421684	1.902961	1.467336	-0.892112	-1.326193	-19.169960	-64.460644	-6.641693			
39746	8.480384	-1.078488	2.024624	1.544749	-0.541377	-1.181364	-19.594792	-64.593679	-7.613831			
39747	8.518969	-1.025663	1.992444	1.575932	-0.520287	-1.161661	-19.942441	-64.781021	-8.699330			
39748	8.619667	-1.205749	2.048127	1.452176	-0.673471	-1.015828	-20.188507	-64.989994	-9.905846			
39749	8.859895	-1.578547	2.450605	1.013741	-0.831733	-0.578224	-20.350126	-65.212551	-11.210915			
39750	9.035843	-2.119376	2.767589	0.518451	-1.154077	-0.210773	-20.432090	-65.419255	-12.605406			
39751	9.005266	-2.869255	2.958352	-0.090762	-1.681039	-0.053347	-20.417168	-65.589033	-14.097122			
39752	8.998018	-3.575334	2.813464	-0.444329	-2.336237	-0.014379	-20.334258	-65.747796	-15.634930			
39753	8.873460	-3.951884	2.610225	-0.647572	-2.731534	-0.154140	-20.196398	-65.912576	-17.182376			
39754	8.624320	-3.956403	2.525718	-0.782630	-2.739001	-0.416099	-20.019561	-66.080434	-18.698646			
39755	8.306464	-3.811519	2.513405	-0.902564	-2.571867	-0.734562	-19.868724	-66.278793	-20.146075			
39756	8.363010	-3.504297	2.678974	-0.896297	-2.215011	-0.664648	-19.751341	-66.531021	-21.490111			
39757	8.424983	-3.104270	2.873136	-0.836584	-1.769678	-0.591002	-19.637791	-66.814367	-22.764745			
39758	8.559068	-2.808914	3.232243	-0.915104	-1.307438	-0.376181	-19.523109	-67.135154	-23.982635			
39759	8.933103	-2.599220	3.321451	-0.779435	-1.121177	-0.028867	-19.410437	-67.486971	-25.160227			
39760	9.208418	-2.437127	3.356788	-0.674052	-0.992615	0.215393	-19.297667	-67.829381	-26.327389			
39761	9.518108	-2.346574	3.571425	-0.715913	-0.800299	0.565287	-19.211154	-68.150583	-27.488969			
39762	9.873616	-2.250695	3.852768	-0.771965	-0.561531	0.980183	-19.183135	-68.444510	-28.625801			
39763	10.029361	-2.178099	4.092578	-0.871372	-0.328728	1.197022	-19.195835	-68.699308	-29.762642			
39764	10.132717	-2.234981	4.100913	-0.930303	-0.336966	1.300606	-19.238982	-68.909420	-30.897721			
39765	10.108680	-2.298627	3.986530	-0.953900	-0.420521	1.245097	-19.238766	-69.043285	-32.081989			
39766	9.853832	-2.387230	3.823324	-1.031837	-0.521818	0.961245	-19.177976	-69.103359	-33.314105			
39767	9.679053	-2.783888	3.643748	-1.313946	-0.847774	0.782866	-19.061471	-69.110147	-34.593841			
39768	9.508544	-3.300935	3.481431	-1.708323	-1.227745	0.627768	-18.926398	-69.096069	-35.850599			
39769	9.235283	-3.509517	3.345845	-1.912034	-1.374838	0.348792	-18.732833	-69.087962	-37.080616			
39770	8.870333	-3.614463	3.431467	-2.177563	-1.261425	0.045759	-18.519271	-69.120585	-38.266756			
39771	8.652960	-3.780715	3.277324	-2.336704	-1.396689	-0.195141	-18.271893	-69.208624	-39.428669			
39772	8.560238	-3.793862	3.324966	-2.441948	-1.308841	-0.270676	-17.946668	-69.335218	-40.591593			
39773	8.430563	-3.642223	3.431036	-2.448823	-1.077457	-0.381132	-17.547897	-69.490621	-41.756841			
39774	8.589638	-3.488576	3.624476	-2.417326	-0.841030	-0.193033	-17.142065	-69.681706	-42.885119			
39775	8.770935	-3.331128	3.812024	-2.372487	-0.613750	0.013378	-16.713975	-69.875906	-43.998734			
39776	8.917032	-3.098669	4.039692	-2.284941	-0.309811	0.193167	-16.297152	-70.060503	-45.063195			
39777	9.075296	-2.866081	4.161794	-2.140675	-0.100108	0.351132	-15.926057	-70.237257	-46.077186			
39778	9.292025	-2.576037	4.124139	-1.856284	-0.014916	0.509137	-15.621436	-70.386252	-47.030066			
39779	9.133351	-2.456710	4.131463	-1.817146	0.110169	0.346460	-15.332375	-70.459916	-47.976491			
39780	8.843700	-2.349026	4.336034	-1.886170	0.424443	0.126746	-15.082642	-70.495366	-48.880474			
39781	8.778366	-2.105011	4.217222	-1.644626	0.465979	0.003309	-14.901533	-70.538791	-49.695651			
39782	8.833169	-1.742758	4.092575	-1.266581	0.522137	-0.018078	-14.795126	-70.601806	-50.420988			
39783	8.982117	-1.719751	3.776548	-1.101152	0.239731	0.017279	-14.719868	-70.690431	-51.106734			
39784	9.084289	-1.611801	3.552874	-0.911233	0.085094	0.031472	-14.617251	-70.799747	-51.793692			
39785	9.092634	-1.699548	3.424221	-0.959586	-0.045423	0.003973	-14.463102	-70.917107	-52.518329			
39786	9.119657	-1.815061	3.758654	-1.199300	0.215967	0.142463	-14.253541	-71.039422	-53.285418			
39787	9.060352	-1.867737	4.045107	-1.380073	0.485933	0.177332	-13.995861	-71.173152	-54.093943			
39788	9.229890	-1.888897	4.141809	-1.421409	0.544741	0.365531	-13.744524	-71.318014	-54.914157			
39789	9.306663	-2.011216	3.896293	-1.460445	0.286332	0.366953	-13.465879	-71.448032	-55.768309			
39790	9.400491	-1.896244	3.803392	-1.329605	0.246773	0.414820	-13.219447	-71.588840	-56.598807			
39791	9.557478	-1.796282	3.549339	-1.151246	0.036117	0.475319	-12.959340	-71.695104	-57.427402			
39792	9.647103	-1.814711	3.390411	-1.125504	-0.121080	0.510742	-12.682708	-71.759469	-58.221095			
39793	9.749560	-1.810688	3.408755	-1.130273	-0.121663	0.611313	-12.381953	-71.795566	-58.975613			
39794	9.706795	-1.705769	3.448039	-1.066733	-0.036311	0.573902	-12.099666	-71.805720	-59.667923			
39795	9.366980	-1.540697	3.495537	-0.990805	0.153359	0.253475	-11.882067	-71.816326	-60.282758			
39796	9.162993	-1.361599	3.382589	-0.829066	0.167213	0.012840	-11.765059	-71.841709	-60.801358			
39797	9.026017	-0.956070	3.071730	-0.383929	0.049706	-0.238310	-11.696406	-71.840292	-61.256721			
39798	8.853037	-0.320094	2.896908	0.242901	0.125771	-0.496252	-11.682936	-71.795554	-61.642262			
39799	8.503645	0.218240	2.861530	0.721378	0.336196	-0.873195	-11.752720	-71.699573	-61.964769			
39800	8.158405	0.674064	2.844041	1.125913	0.530667	-1.236373	-11.930956	-71.589655	-62.180455			
39801	8.152224	1.354155	3.030719	1.749960	0.879831	-1.231240	-12.233897	-71.519501	-62.277174			
39802	8.855650	2.039509	3.443276	2.437254	1.242512	-0.487766	-12.729670	-71.533982	-62.220285			
39803	9.856872	2.598320	3.858156	3.057878	1.492380	0.541859	-13.325404	-71.575492	-62.096882			
39804	10.771629	2.735562	4.213371	3.286447	1.599689	1.496772	-13.984506	-71.619052	-61.974114			
39805	11.254327	2.367274	4.184953	3.053543	1.339041	1.962727	-14.530146	-71.632356	-62.014920			
39806	11.081446	1.605706	3.804437	2.407582	0.831632	1.735573	-14.829488	-71.597373	-62.317942			
39807	10.465466	0.729188	3.497518	1.549508	0.487578	1.125848	-14.841055	-71.524436	-62.902697			
39808	9.835372	-0.113156	3.256326	0.691288	0.224659	0.522814	-14.622627	-71.441654	-63.697871			
39809	9.410294	-0.196543	3.169784	0.557010	0.222134	0.100946	-14.195096	-71.388240	-64.636142			
39810	9.226161	-0.277196	3.152546	0.437218	0.221642	-0.071174	-13.667945	-71.372080	-65.640261			
39811	9.375366	-0.279239	3.032048	0.446471	0.050714	0.034484	-13.057428	-71.418103	-66.677414			
39812	9.385167	-0.100903	3.002846	0.590985	0.045148	0.023835	-12.368303	-71.484194	-67.760269			
39813	9.448629	0.235997	3.055618	0.880817	0.130133	0.080551	-11.653344	-71.580788	-68.853335			
39814	9.417306	0.343972	3.056919	0.942218	0.155602	0.048175	-10.962073	-71.688374	-69.924174			
39815	9.308610	0.425450	2.899789	0.993142	0.050191	-0.104391	-10.287978	-71.784689	-70.969442			
39816	9.213450	0.669361	2.813728	1.198954	0.031986	-0.230718	-9.675512	-71.866963	-71.955294			
39817	9.211460	0.790538	2.763033	1.291685	-0.003012	-0.250170	-9.102905	-71.938347	-72.911625			
39818	9.083347	0.919962	2.815051	1.371259	0.095065	-0.358135	-8.556732	-71.989968	-73.827680			
39819	9.018051	1.112118	2.807084	1.529291	0.123322	-0.427179	-8.040545	-72.029722	-74.707711			
39820	8.894388	0.941947	2.537504	1.355966	-0.127171	-0.615870	-7.577807	-72.072675	-75.552647			
39821	8.781388	0.826114	2.312819	1.231709	-0.327862	-0.783861	-7.143457	-72.129946	-76.381550			
39822	8.590953	0.432814	2.194476	0.815322	-0.430288	-0.983329	-6.769194	-72.226096	-77.186863			
39823	8.562768	-0.010487	2.006966	0.366853	-0.639996	-1.048854	-6.448852	-72.360564	-77.945777			
39824	8.665752	-0.274223	1.811099	0.104458	-0.865765	-0.998495	-6.184072	-72.524803	-78.648114			
39825	8.789430	-0.520427	1.753048	-0.151836	-0.956432	-0.887432	-5.965888	-72.710386	-79.283527			
39826	8.788993	-0.245530	1.859490	0.093210	-0.802423	-0.862172	-5.797681	-72.912534	-79.839958			
39827	8.747934	0.072630	2.051858	0.378554	-0.551488	-0.851984	-5.714652	-73.137139	-80.328037			
39828	8.808949	0.283684	2.166950	0.573925	-0.410108	-0.764149	-5.747996	-73.389112	-80.727512			
39829	9.138909	0.148164	2.327755	0.439848	-0.321979	-0.396595	-5.891183	-73.635329	-81.034713			
39830	9.671706	-0.262236	2.699334	0.037096	-0.099940	0.231495	-6.109602	-73.844071	-81.242681			
39831	10.087939	-0.648984	3.147775	-0.342910	0.232758	0.766741	-6.351498	-74.014478	-81.359755			
39832	10.304973	-0.701767	3.465727	-0.386689	0.512023	1.063176	-6.640693	-74.177261	-81.351845			
39833	10.322851	-0.666621	3.486727	-0.336900	0.562291	1.083786	-7.009493	-74.329483	-81.219786			
39834	10.146646	-0.865559	3.286513	-0.519499	0.439982	0.866322	-7.452632	-74.452444	-80.981587			
