// General information: 
//  MT Manager version: 2022.0.0 
//  XDA version: 2022.0.0 build 7085 rev 119802 built on 2022-11-08
// Device information: 
//  DeviceId: 00B492A2
//  ProductCode: MTW2-3A7G6
//  Firmware Version: 4.6.0
//  Hardware Version: 2.0.0
// Device settings: 
//  Filter Profile: human(46.1)
//  Option Flags: Orientation Smoother Disabled, Position/Velocity Smoother Disabled, Continuous Zero Rotation Update Disabled, AHS Disabled, ICC Disabled
// Coordinate system: ENU
PacketCounter	Acc_X	Acc_Y	Acc_Z	FreeAcc_E	FreeAcc_N	FreeAcc_U	Roll	Pitch	Yaw	Vel_E	Vel_N	Vel_U
38738	8.862378	1.483448	-3.601202	0.307310	0.035800	-0.137187	162.179767	-66.277736	95.484660			
38739	8.852498	1.516473	-3.695587	0.320294	-0.048491	-0.106050	162.221387	-66.211256	95.480830			
38740	8.793486	1.568249	-3.809011	0.349629	-0.171426	-0.110021	162.258823	-66.138277	95.485024			
38741	8.774902	1.681196	-3.867480	0.448393	-0.239750	-0.090333	162.275426	-66.068318	95.509584			
38742	8.809320	1.641068	-3.826443	0.416095	-0.170055	-0.079403	162.261814	-66.003795	95.565680			
38743	8.891406	1.631250	-3.644229	0.440285	0.039150	-0.075999	162.220616	-65.941120	95.641843			
38744	8.950153	1.608320	-3.513503	0.439375	0.193967	-0.075853	162.154921	-65.886461	95.733252			
38745	8.987106	1.625103	-3.483508	0.454797	0.240948	-0.051593	162.075337	-65.841847	95.825406			
38746	8.977377	1.664233	-3.573319	0.467762	0.156480	-0.020431	162.005038	-65.797725	95.896554			
38747	9.041706	1.705487	-3.766829	0.458019	0.010237	0.119092	161.957696	-65.743346	95.949008			
38748	9.144172	1.650129	-3.896207	0.368374	-0.043986	0.256155	161.945570	-65.685630	95.984059			
38749	9.163762	1.567991	-3.960220	0.272870	-0.067073	0.288674	161.971111	-65.619229	96.003738			
38750	9.167071	1.540277	-3.989071	0.241019	-0.074540	0.299517	162.020703	-65.554097	96.014657			
38751	9.210077	1.466287	-3.897719	0.189455	0.049304	0.293222	162.076919	-65.499348	96.026827			
38752	9.156200	1.375239	-3.788470	0.129191	0.149840	0.189344	162.122480	-65.457683	96.043655			
38753	9.046676	1.330620	-3.676311	0.117027	0.219945	0.039525	162.174517	-65.422126	96.052556			
38754	8.946398	1.259976	-3.684906	0.054246	0.189202	-0.057413	162.245640	-65.393208	96.042365			
38755	8.726330	1.311614	-3.740472	0.106947	0.043447	-0.229005	162.315291	-65.382189	96.043595			
38756	8.473381	1.218372	-3.780884	0.023253	-0.080025	-0.454763	162.385921	-65.385426	96.057476			
38757	8.335359	1.185644	-3.800562	-0.001088	-0.149003	-0.576562	162.478121	-65.389360	96.070295			
38758	8.245518	1.182972	-3.716498	0.024880	-0.109836	-0.691961	162.594312	-65.384176	96.083119			
38759	8.229497	1.284237	-3.700638	0.136143	-0.116449	-0.700250	162.728999	-65.365945	96.087610			
38760	8.301392	1.326359	-3.653434	0.192618	-0.046290	-0.648591	162.868998	-65.334853	96.084474			
38761	8.469838	1.333947	-3.608329	0.210091	0.070134	-0.512766	163.002114	-65.291689	96.079201			
38762	8.678633	1.353700	-3.599135	0.230537	0.171004	-0.324666	163.149093	-65.240591	96.059314			
38763	8.871072	1.431531	-3.625966	0.301952	0.225963	-0.130199	163.301009	-65.176111	96.036797			
38764	8.981078	1.436289	-3.742319	0.288434	0.180006	0.016454	163.454225	-65.106926	96.009548			
38765	8.968318	1.407347	-3.894462	0.240921	0.056844	0.062377	163.608530	-65.036030	95.987459			
38766	8.907254	1.497964	-3.994320	0.324097	-0.058140	0.057937	163.780463	-64.965001	95.967562			
38767	8.837659	1.564206	-4.094870	0.385000	-0.173048	0.043312	163.959326	-64.894608	95.939952			
38768	8.736492	1.692732	-4.039516	0.538187	-0.171945	-0.056147	164.141877	-64.833894	95.906516			
38769	8.660208	1.787041	-3.949001	0.662449	-0.124503	-0.151788	164.309255	-64.776294	95.869678			
38770	8.698695	1.893084	-3.857794	0.792225	-0.030860	-0.142887	164.464740	-64.729771	95.823095			
38771	8.786090	1.930980	-3.799582	0.845277	0.062611	-0.084252	164.588909	-64.687923	95.785217			
38772	8.881271	1.890023	-3.739918	0.818928	0.171007	-0.028197	164.693661	-64.646909	95.752721			
38773	8.919408	1.793982	-3.643993	0.745225	0.294749	-0.044850	164.769566	-64.609190	95.744547			
38774	8.890912	1.618792	-3.684138	0.570634	0.278927	-0.074195	164.816088	-64.567883	95.763551			
38775	8.590541	1.358373	-3.913328	0.290220	-0.007529	-0.279986	164.873201	-64.493861	95.805473			
38776	8.409933	1.130955	-4.113750	0.043865	-0.216707	-0.385066	164.963337	-64.380662	95.853169			
38777	8.302840	0.905082	-4.109790	-0.168487	-0.209422	-0.508149	165.049109	-64.261041	95.901172			
38778	8.067194	0.367787	-3.906755	-0.649925	-0.041482	-0.865427	165.103311	-64.152656	95.952466			
38779	7.946803	-0.209782	-3.752247	-1.186363	0.134234	-1.103522	165.150765	-64.048501	96.009018			
38780	7.860836	-0.592637	-3.633576	-1.538584	0.264310	-1.273968	165.213062	-63.951046	96.073988			
38781	7.717470	-0.880396	-3.600857	-1.807716	0.279049	-1.448783	165.301637	-63.839267	96.137591			
38782	7.632613	-0.993557	-3.852182	-1.949993	0.047338	-1.429460	165.459018	-63.678590	96.172360			
38783	7.696055	-0.986641	-4.151808	-1.982370	-0.168168	-1.240519	165.716646	-63.443189	96.162920			
38784	8.081145	-0.941222	-4.316291	-1.963391	-0.113081	-0.815282	166.086100	-63.136435	96.101297			
38785	8.772575	-0.903577	-4.415263	-1.950141	0.150952	-0.146096	166.519305	-62.805173	96.014863			
38786	9.557565	-0.818115	-4.389347	-1.870929	0.569576	0.553492	167.003666	-62.504328	95.931547			
38787	10.391624	-0.471271	-4.052924	-1.490270	1.259664	1.179412	167.528624	-62.262241	95.860147			
38788	10.870655	-0.000654	-3.779613	-0.979565	1.718138	1.525076	168.051164	-62.069933	95.798931			
38789	11.028773	0.654255	-3.632329	-0.288280	1.906896	1.656231	168.560072	-61.866407	95.717031			
38790	11.013908	1.301865	-3.681354	0.382105	1.855950	1.718249	169.069289	-61.631792	95.588890			
38791	10.963197	1.955752	-3.777818	1.059104	1.758734	1.766315	169.588763	-61.375651	95.388602			
38792	10.959672	2.220952	-3.918942	1.348076	1.675450	1.839791	170.111222	-61.132824	95.106355			
38793	10.884569	2.169642	-4.055883	1.329392	1.575568	1.822661	170.615850	-60.931776	94.776092			
38794	10.603515	2.028481	-4.018334	1.245717	1.521228	1.537647	171.082885	-60.786068	94.422933			
38795	10.160162	1.685105	-3.985995	0.963093	1.381051	1.101598	171.503431	-60.689856	94.034427			
38796	9.800682	1.304973	-3.821506	0.648180	1.387398	0.676121	171.883592	-60.632077	93.611078			
38797	9.546924	0.761462	-3.624034	0.167103	1.478213	0.318653	172.248938	-60.589414	93.146226			
38798	9.286302	0.351840	-3.417487	-0.180329	1.561771	-0.036867	172.619263	-60.583869	92.647215			
38799	8.827269	0.136441	-3.084855	-0.319616	1.637860	-0.611015	172.993022	-60.641074	92.136635			
38800	8.181725	0.092129	-3.009095	-0.311317	1.382379	-1.210607	173.376579	-60.715402	91.638988			
38801	7.704494	0.237491	-2.842039	-0.113763	1.274353	-1.697528	173.758619	-60.789079	91.170942			
38802	7.227877	0.250716	-2.716416	-0.055904	1.142703	-2.172332	174.146138	-60.832313	90.738144			
38803	6.949907	0.287962	-2.440187	0.035314	1.242910	-2.546842	174.572422	-60.820511	90.308751			
38804	7.005118	0.239353	-2.225087	0.035016	1.467018	-2.606681	175.050444	-60.733152	89.860451			
38805	7.201499	0.216328	-1.980608	0.065359	1.791778	-2.558976	175.567349	-60.588239	89.389748			
38806	7.466566	0.342864	-1.991912	0.225327	1.924381	-2.323982	176.076592	-60.384208	88.918573			
38807	7.836474	0.501547	-2.042314	0.416183	2.080419	-1.981252	176.519408	-60.136688	88.471170			
38808	8.272133	0.650166	-2.175551	0.590584	2.205836	-1.544119	176.870082	-59.860288	88.069242			
38809	8.577703	0.600281	-2.420329	0.552864	2.191421	-1.170515	177.099775	-59.581247	87.731260			
38810	8.727176	0.509707	-2.697401	0.462290	2.076367	-0.914698	177.202098	-59.317848	87.475587			
38811	8.854056	0.451437	-2.868885	0.403749	2.038307	-0.729144	177.186353	-59.063174	87.303337			
38812	8.917028	0.311655	-3.109789	0.247086	1.915182	-0.563243	177.064488	-58.837004	87.221922			
38813	9.158383	0.245098	-3.112753	0.181508	2.077879	-0.364160	176.872866	-58.639503	87.198087			
38814	9.308129	0.026167	-2.982120	-0.029311	2.317215	-0.317184	176.644962	-58.485617	87.202398			
38815	9.296931	-0.194571	-2.774535	-0.238766	2.532725	-0.448015	176.424201	-58.366159	87.210071			
38816	9.148051	-0.388138	-2.779147	-0.444255	2.493685	-0.585269	176.235310	-58.223819	87.204128			
38817	8.977125	-0.430196	-2.901999	-0.509960	2.331356	-0.674849	176.087587	-58.053563	87.182734			
38818	9.046489	-0.273969	-2.970121	-0.364441	2.324720	-0.582389	175.975422	-57.860993	87.153505			
38819	8.846880	-0.202091	-3.100384	-0.315537	2.131719	-0.687084	175.884714	-57.686931	87.120782			
38820	8.671848	-0.050447	-3.146912	-0.177650	2.008646	-0.810450	175.795746	-57.542324	87.107094			
38821	8.520532	0.065823	-3.188450	-0.074932	1.900649	-0.915951	175.705474	-57.424396	87.117041			
38822	8.438018	0.140107	-3.130252	-0.001124	1.916412	-1.018054	175.618671	-57.291302	87.145171			
38823	8.685038	-0.064599	-2.946599	-0.180686	2.248340	-0.922874	175.531964	-57.140738	87.182027			
38824	8.898417	-0.421496	-2.822650	-0.518978	2.533913	-0.832893	175.449572	-56.967682	87.219886			
38825	9.014655	-0.551316	-2.896628	-0.656729	2.580372	-0.709463	175.390642	-56.769396	87.232281			
38826	9.224265	-0.589688	-2.981360	-0.699847	2.666286	-0.500099	175.348517	-56.519774	87.204073			
38827	9.457552	-0.590976	-3.290022	-0.727800	2.582406	-0.147281	175.368106	-56.264937	87.098778			
38828	9.589357	-0.478144	-3.591901	-0.637399	2.437224	0.124094	175.459248	-56.021485	86.916069			
38829	9.755330	-0.415973	-3.911672	-0.591830	2.299314	0.434430	175.601224	-55.819639	86.672960			
38830	9.978936	-0.334073	-4.044775	-0.495387	2.339421	0.691243	175.797969	-55.654138	86.372818			
38831	10.074251	-0.521623	-4.152678	-0.661713	2.354905	0.818577	176.028833	-55.525068	86.036502			
38832	10.454042	-0.767207	-4.359028	-0.881308	2.456669	1.235599	176.299641	-55.397454	85.652369			
38833	10.847084	-0.957302	-4.643644	-1.047177	2.496393	1.711648	176.606903	-55.277473	85.214474			
38834	10.954833	-1.114726	-5.129168	-1.211542	2.212152	2.069972	176.950612	-55.129583	84.713021			
38835	11.208038	-1.130870	-5.435609	-1.198487	2.151552	2.450215	177.309244	-54.889651	84.162529			
38836	12.244700	-0.879306	-5.344827	-0.815034	2.842561	3.245944	177.649390	-54.593207	83.602629			
38837	13.542918	-0.738842	-5.180502	-0.506232	3.757046	4.202374	177.931614	-54.400301	83.101085			
38838	14.220814	-0.671980	-5.016096	-0.313658	4.292273	4.655282	178.178646	-54.396277	82.699214			
38839	14.026779	-0.804680	-5.113420	-0.430111	4.098525	4.559575	178.392078	-54.561962	82.420592			
38840	13.081563	-0.919428	-5.557532	-0.653496	3.163083	4.059093	178.526436	-54.813206	82.289355			
38841	12.062537	-1.304266	-6.234625	-1.201228	2.033308	3.622300	178.547997	-55.065180	82.312836			
38842	11.294559	-1.985412	-7.221531	-2.079281	0.851153	3.551868	178.452728	-55.263236	82.487382			
38843	10.890589	-2.394274	-7.859724	-2.625001	0.124414	3.574113	178.247416	-55.418323	82.784134			
38844	10.590792	-2.069635	-8.218290	-2.414155	-0.422796	3.528276	177.899909	-55.588166	83.198182			
38845	9.809906	-2.216788	-8.627600	-2.724274	-1.212367	3.098233	177.397427	-55.774605	83.726184			
38846	9.258540	-2.053234	-8.622067	-2.666195	-1.575977	2.624493	176.780696	-55.937111	84.358173			
38847	8.450819	-1.418935	-8.545353	-2.148151	-2.087299	1.912534	176.104410	-56.101165	85.036925			
38848	7.933336	-0.453141	-8.101719	-1.227711	-2.172496	1.257705	175.453911	-56.206902	85.687007			
38849	7.721957	1.076097	-7.454388	0.307802	-1.994592	0.783590	174.916328	-56.360153	86.270829			
38850	7.409658	2.172045	-6.849154	1.417789	-1.855519	0.241083	174.430444	-56.653373	86.817983			
38851	6.653846	2.844649	-6.565277	2.062987	-2.181717	-0.514711	174.035745	-57.097961	87.371778			
38852	5.768833	3.581316	-5.976894	2.833882	-2.330633	-1.544344	173.778942	-57.611914	87.933804			
38853	5.515335	4.090991	-5.493541	3.390195	-2.169585	-1.993894	173.461630	-57.961172	88.532487			
38854	5.907143	4.017955	-5.380025	3.317618	-1.875112	-1.721937	172.980261	-58.106745	89.145495			
38855	6.926889	3.518526	-5.101662	2.831146	-1.047327	-1.021993	172.403019	-58.146151	89.752422			
38856	7.724122	2.919141	-5.287527	2.163664	-0.720858	-0.276440	171.761677	-58.252816	90.342174			
38857	7.629385	2.466326	-5.197017	1.668856	-0.667992	-0.428257	171.034755	-58.456064	90.910585			
38858	7.276270	1.732598	-5.007257	0.909399	-0.639085	-0.880567	170.263314	-58.627111	91.438014			
38859	7.308200	1.259511	-4.958294	0.388217	-0.547135	-0.917156	169.571126	-58.706626	91.904805			
38860	7.314412	1.042680	-5.033518	0.108237	-0.593224	-0.893033	168.944330	-58.756575	92.325033			
38861	7.225544	0.744528	-4.872000	-0.208326	-0.478401	-1.081896	168.346245	-58.845825	92.720273			
38862	7.048623	0.486492	-4.509261	-0.444142	-0.247892	-1.446428	167.791494	-58.978410	93.107246			
38863	6.792731	0.445942	-4.315737	-0.482985	-0.233665	-1.770448	167.287981	-59.147903	93.505107			
38864	6.764183	0.317435	-4.143162	-0.612475	-0.110315	-1.898568	166.832642	-59.316110	93.890282			
38865	7.421461	0.473311	-3.785647	-0.450867	0.485757	-1.494401	166.417166	-59.435679	94.262790			
38866	7.499274	0.664102	-3.634391	-0.269953	0.609849	-1.479378	165.993499	-59.554691	94.676704			
38867	7.311790	0.988498	-3.670158	0.020210	0.424323	-1.582930	165.558890	-59.652927	95.140130			
38868	7.289521	1.177224	-3.756499	0.159692	0.301418	-1.535140	165.094397	-59.711554	95.644769			
38869	7.150691	1.292551	-4.043333	0.197694	-0.038171	-1.499386	164.653467	-59.748355	96.165403			
38870	7.067694	1.670505	-4.274498	0.505335	-0.330701	-1.407365	164.289896	-59.770709	96.665561			
38871	7.224690	2.001245	-4.265915	0.799432	-0.291359	-1.229265	163.975382	-59.824376	97.123639			
38872	7.098989	2.113353	-4.222935	0.905143	-0.345454	-1.341773	163.679947	-59.977514	97.557648			
38873	7.018704	2.190791	-3.998515	1.008057	-0.230318	-1.507235	163.391106	-60.224623	97.952100			
38874	6.622088	2.278921	-3.447711	1.200167	-0.000633	-2.099605	163.089811	-60.563193	98.295942			
38875	6.289501	1.903523	-2.989829	0.918421	0.228685	-2.655572	162.768991	-60.941272	98.589305			
38876	5.954351	1.296134	-2.494940	0.417775	0.519867	-3.261809	162.469191	-61.318864	98.836036			
38877	5.806478	0.956596	-2.024493	0.166523	0.857970	-3.651123	162.229825	-61.649879	99.027968			
38878	5.975251	0.842825	-1.618081	0.106438	1.274946	-3.697519	162.093124	-61.882263	99.160978			
38879	6.482622	1.076952	-1.293246	0.351588	1.747220	-3.356661	162.049328	-62.037638	99.244713			
38880	6.971054	1.335577	-1.161273	0.589830	2.042520	-2.941872	161.992391	-62.176213	99.338507			
38881	7.090692	1.529517	-1.132514	0.773188	2.081545	-2.814885	161.900014	-62.352088	99.485168			
38882	7.222083	1.768836	-1.205086	0.981471	2.028516	-2.625109	161.801002	-62.541572	99.677940			
38883	7.228420	2.019010	-1.393310	1.190184	1.812728	-2.493863	161.702591	-62.755404	99.905118			
38884	7.031978	2.309018	-1.544085	1.460832	1.534753	-2.554937	161.616267	-62.964231	100.159337			
38885	7.046529	2.636092	-1.655253	1.758650	1.388299	-2.442331	161.555590	-63.118990	100.403059			
38886	7.321599	2.649200	-1.805762	1.721131	1.366676	-2.127978	161.538236	-63.184547	100.599907			
38887	7.815072	2.503333	-2.291393	1.458449	1.168418	-1.500033	161.569780	-63.187580	100.745081			
38888	8.880667	2.279200	-2.738631	1.080727	1.273801	-0.390875	161.683217	-63.132472	100.797286			
38889	10.298863	2.081034	-2.905597	0.745957	1.788684	0.915029	161.862314	-63.067378	100.784220			
38890	11.257175	2.138461	-2.799879	0.745883	2.317493	1.728942	162.040351	-63.039813	100.751108			
38891	11.545368	2.302326	-2.700061	0.906058	2.526606	1.963639	162.162304	-63.033640	100.722813			
38892	11.674454	2.484002	-2.757444	1.073201	2.527661	2.125729	162.299206	-62.969430	100.681363			
38893	12.107806	2.956220	-2.812165	1.501572	2.652597	2.595189	162.474023	-62.865181	100.647223			
38894	13.037842	3.056016	-2.692245	1.543160	3.196766	3.377158	162.616098	-62.765092	100.665567			
38895	13.414937	2.784934	-3.158976	1.179604	2.997983	3.873661	162.723863	-62.713260	100.800879			
38896	13.662813	2.691780	-3.938197	0.955394	2.445122	4.418830	162.753657	-62.646414	101.071266			
38897	14.061077	1.693366	-5.040748	-0.227095	1.738348	5.117717	162.640752	-62.561411	101.488196			
38898	14.833189	0.774083	-6.083256	-1.367596	1.227083	6.132610	162.403060	-62.551125	102.036584			
38899	14.503060	1.280700	-6.854050	-0.962823	0.323621	6.247350	162.071902	-62.717181	102.640155			
38900	13.273624	3.032784	-7.113933	0.828481	-0.622603	5.514427	161.665600	-62.930364	103.168240			
38901	11.907883	4.527692	-7.558791	2.359192	-1.763255	4.704814	161.245608	-63.047503	103.525643			
38902	10.727428	5.648723	-8.152434	3.484881	-2.909475	4.073938	160.923148	-63.081040	103.739667			
38903	9.759116	6.241552	-8.363137	4.121677	-3.570033	3.393599	160.754559	-63.060120	103.874262			
38904	8.610474	5.606686	-8.150468	3.628911	-3.844393	2.189685	160.609720	-63.025857	104.031211			
38905	7.195592	4.611897	-7.550419	2.863576	-3.866282	0.526885	160.440972	-63.007850	104.289833			
38906	6.158701	3.108736	-6.862603	1.566254	-3.615557	-0.915287	160.153202	-62.960470	104.650474			
38907	5.788791	1.300945	-6.156171	-0.113524	-3.038099	-1.821568	159.764484	-62.826222	105.020921			
38908	6.156886	-0.054463	-5.702842	-1.475681	-2.379754	-1.901204	159.258046	-62.631704	105.327396			
38909	7.033616	-0.599619	-5.708854	-2.170996	-1.935583	-1.212560	158.717593	-62.378764	105.460400			
38910	8.115244	-1.476105	-6.365046	-3.318360	-1.928469	-0.126692	158.163054	-62.071064	105.392528			
38911	8.760309	-2.058983	-7.336401	-4.182070	-2.386285	0.752358	157.711210	-61.796416	105.259926			
38912	9.293981	-1.763805	-7.375224	-4.024314	-2.136518	1.283385	157.450119	-61.643877	105.087424			
38913	9.224408	-1.616744	-7.281281	-3.880856	-2.067475	1.204804	157.490289	-61.655493	104.875474			
38914	9.181318	-0.643302	-6.585912	-2.785352	-1.560007	1.045149	157.987987	-61.762390	104.557006			
38915	9.356090	0.659825	-5.974109	-1.365002	-1.067870	1.171737	158.788692	-61.920244	104.140018			
38916	9.778140	1.633414	-5.332590	-0.275921	-0.404310	1.433481	159.649830	-62.107439	103.635520			
38917	9.747019	1.674885	-4.723325	-0.062906	0.095844	1.146588	160.413677	-62.341027	103.118621			
38918	9.226490	1.338176	-4.058259	-0.176142	0.448031	0.343891	161.159642	-62.593557	102.603045			
38919	8.149082	1.159028	-3.652211	-0.125203	0.311441	-0.813995	161.965197	-62.826516	102.085632			
38920	7.086463	1.120973	-3.559893	0.009627	-0.094469	-1.804061	162.774265	-62.972857	101.545843			
38921	6.455337	1.170564	-3.473537	0.176308	-0.305987	-2.397691	163.516457	-63.034285	101.002774			
38922	6.153884	1.197928	-3.515946	0.263829	-0.476868	-2.645395	164.105650	-63.049671	100.514101			
38923	5.826773	1.271075	-3.557899	0.386367	-0.663649	-2.910817	164.503737	-63.097646	100.136963			
38924	5.647082	1.363013	-3.250227	0.544925	-0.479773	-3.195727	164.782287	-63.184264	99.811555			
38925	5.707271	1.129442	-2.897524	0.362353	-0.132511	-3.324595	164.995901	-63.299974	99.503531			
38926	5.758287	0.646526	-2.485097	-0.061019	0.277061	-3.514192	165.164987	-63.479829	99.232482			
38927	5.709434	0.021780	-2.281707	-0.640588	0.462858	-3.715175	165.370168	-63.690409	98.980645			
38928	5.586060	-0.376478	-2.097129	-0.991114	0.586450	-3.946046	165.658398	-63.847863	98.716250			
38929	5.542178	-0.523962	-1.974523	-1.104468	0.678967	-4.050037	166.023142	-63.911316	98.403840			
38930	5.779974	-0.739554	-1.841108	-1.302164	0.919781	-3.913275	166.390447	-63.863715	98.045827			
38931	5.837967	-0.626368	-1.913499	-1.185560	0.881436	-3.816591	166.752074	-63.779395	97.699199			
38932	5.714702	-0.569903	-2.172087	-1.135520	0.603723	-3.808801	167.106025	-63.676499	97.399274			
38933	5.850136	-0.337014	-2.364136	-0.918591	0.488531	-3.580168	167.455855	-63.536670	97.163009			
38934	6.182591	-0.105642	-2.407653	-0.698848	0.598010	-3.241057	167.762383	-63.370520	96.999221			
38935	6.392834	0.040459	-2.462998	-0.560901	0.652847	-3.015964	167.997297	-63.181619	96.931040			
38936	7.171673	0.314252	-2.183161	-0.297545	1.257599	-2.421632	168.154359	-62.978001	96.930971			
38937	7.691874	0.365107	-1.981625	-0.255187	1.691741	-2.047514	168.230650	-62.825060	96.999351			
38938	8.000826	0.272293	-1.908717	-0.361494	1.917470	-1.817490	168.206582	-62.750388	97.114365			
38939	8.152761	0.084863	-2.035604	-0.576111	1.888134	-1.644368	168.080269	-62.757882	97.267144			
38940	8.219349	-0.147664	-2.389767	-0.855232	1.612429	-1.448531	167.888345	-62.796412	97.431885			
38941	8.450972	-0.167418	-2.922958	-0.952541	1.236710	-1.006222	167.648851	-62.840536	97.573265			
38942	8.685075	-0.067218	-3.329817	-0.922021	0.968881	-0.607589	167.383217	-62.865000	97.664767			
38943	8.787277	0.241947	-3.667597	-0.671087	0.691571	-0.336539	167.141971	-62.879823	97.691490			
38944	9.044678	1.072244	-3.691137	0.120695	0.729770	-0.013031	166.939544	-62.881497	97.673997			
38945	9.370895	1.725940	-3.677656	0.737623	0.837656	0.339746	166.726495	-62.905801	97.664270			
38946	9.655859	1.928994	-3.653377	0.910379	0.962429	0.605983	166.500425	-62.946498	97.686015			
38947	10.144080	1.817269	-3.456370	0.781423	1.358297	0.943507	166.370942	-62.942845	97.669977			
38948	11.083508	1.693719	-2.714124	0.688393	2.457975	1.437369	166.405797	-62.860398	97.527893			
38949	12.108002	1.426606	-1.929395	0.471495	3.658100	1.966845	166.602680	-62.757425	97.212863			
38950	12.881152	0.983033	-1.562042	0.066089	4.388242	2.437586	166.924591	-62.724839	96.755869			
38951	13.036405	-0.149784	-1.827405	-1.047855	4.323290	2.577656	167.321956	-62.778590	96.200188			
38952	12.929114	-1.060240	-2.864093	-2.013386	3.440974	2.859910	167.842929	-62.783570	95.525583			
38953	13.175351	-1.590618	-4.630997	-2.704089	2.058815	3.826035	168.431461	-62.719814	94.761175			
38954	13.732255	-0.876851	-6.214292	-2.141522	0.883130	5.106908	169.133552	-62.608299	93.884452			
38955	14.402635	0.066850	-7.491549	-1.301225	0.006507	6.369697	169.879613	-62.536384	92.954004			
38956	14.434496	-0.220616	-8.175001	-1.586047	-0.538045	6.692716	170.524569	-62.593973	92.178469			
38957	12.964914	-1.347339	-9.328821	-2.750801	-2.136585	5.833357	171.076828	-62.777743	91.691533			
38958	11.640830	-1.976649	-10.244301	-3.403748	-3.527306	5.030957	171.565309	-62.905551	91.470082			
38959	11.995886	-1.773736	-10.341106	-3.149813	-3.503048	5.412058	171.953441	-62.906904	91.429094			
38960	12.047454	-1.792477	-9.959603	-3.068189	-3.148021	5.294391	172.200982	-62.849991	91.515251			
38961	11.210268	-1.643064	-9.957871	-2.866086	-3.546482	4.565659	172.370737	-62.810494	91.705742			
38962	9.383655	-0.705959	-9.399064	-1.808901	-3.992306	2.744496	172.546172	-62.949589	91.890611			
38963	7.030024	-0.008005	-8.454105	-0.948385	-4.341458	0.244392	172.666086	-63.376360	92.012174			
38964	5.191062	0.520453	-8.032058	-0.317503	-4.894143	-1.586017	172.971008	-63.709647	91.976151			
38965	5.170773	1.737064	-7.892474	0.960424	-4.891784	-1.615548	173.573853	-63.717215	91.753990			
38966	6.702482	3.105021	-7.885890	2.367158	-4.279308	-0.177581	174.160099	-63.535745	91.494453			
38967	8.362000	4.112147	-7.705454	3.419026	-3.410832	1.272578	174.525071	-63.473175	91.369551			
38968	9.020795	4.621504	-7.303712	3.976918	-2.792772	1.696513	174.586566	-63.668875	91.417405			
38969	8.718778	4.552000	-6.822667	3.937876	-2.548322	1.200268	174.272190	-64.059277	91.642210			
38970	8.263752	3.914768	-5.876473	3.337782	-1.940330	0.348093	173.617599	-64.461678	92.065046			
38971	8.174737	2.856372	-4.862731	2.307168	-1.066534	-0.212153	172.800162	-64.729914	92.633601			
38972	8.445052	2.107014	-3.807667	1.582790	0.008833	-0.445135	171.890032	-64.868506	93.289085			
38973	8.366998	1.245222	-3.083297	0.728032	0.658888	-0.862864	170.840820	-65.029433	93.974917			
38974	7.743086	0.586993	-2.322159	0.105893	1.104457	-1.783925	169.794645	-65.178626	94.597900			
38975	7.271896	0.252609	-1.802594	-0.204578	1.387775	-2.448877	168.818012	-65.210379	95.122273			
38976	6.474396	0.105071	-1.994842	-0.385132	0.890918	-3.107016	167.888266	-65.181475	95.647242			
38977	5.630737	-0.261996	-2.577571	-0.825633	0.048202	-3.669921	166.992189	-65.147551	96.206486			
38978	4.906425	-0.573341	-3.253479	-1.226418	-0.832261	-4.086434	166.170522	-65.132008	96.782971			
38979	4.599912	-0.840585	-3.686481	-1.567632	-1.325425	-4.223269	165.440371	-65.151772	97.358584			
38980	4.453391	-0.782123	-3.633438	-1.521894	-1.349441	-4.380462	164.840300	-65.185855	97.915578			
38981	4.556929	-0.630457	-3.441284	-1.371887	-1.156811	-4.355106	164.312853	-65.238554	98.492228			
38982	4.952522	0.260619	-2.851099	-0.449315	-0.557448	-4.137169	163.944523	-65.271735	99.036848			
38983	5.558348	1.251227	-2.372166	0.544038	0.027494	-3.665230	163.726994	-65.260645	99.465712			
38984	6.121794	1.725633	-2.165593	0.992723	0.406840	-3.179970	163.599829	-65.236254	99.806006			
38985	6.299137	2.057744	-2.187409	1.299265	0.437592	-2.970275	163.553588	-65.208643	100.094734			
38986	6.477709	2.332425	-2.260966	1.545045	0.430280	-2.745823	163.553384	-65.184362	100.334823			
38987	6.560656	2.384745	-2.240113	1.592356	0.492338	-2.673408	163.640658	-65.102014	100.473985			
38988	7.069652	2.240470	-2.260774	1.411296	0.720263	-2.223211	163.871654	-64.905287	100.452873			
38989	7.881798	2.251797	-2.267956	1.368205	1.088116	-1.489178	164.218403	-64.671478	100.275921			
38990	8.815217	2.352311	-2.200695	1.420280	1.572076	-0.669618	164.607383	-64.493064	99.970233			
38991	9.209701	2.444652	-2.094141	1.517337	1.851638	-0.354918	164.979803	-64.443547	99.584064			
38992	9.024598	2.568211	-1.991664	1.690874	1.857488	-0.555452	165.280530	-64.503141	99.179758			
38993	8.929063	2.498490	-1.997088	1.653294	1.803120	-0.648939	165.531358	-64.601269	98.789046			
38994	9.001195	2.706220	-2.053187	1.871300	1.748945	-0.539065	165.761743	-64.719695	98.483628			
38995	8.722430	3.072935	-1.979223	2.279838	1.644807	-0.782854	165.929217	-64.916302	98.308069			
38996	8.349629	3.076620	-1.729791	2.347685	1.680461	-1.219762	165.991019	-65.164086	98.236442			
38997	7.963918	2.867557	-1.683460	2.175635	1.539914	-1.604396	165.960820	-65.444488	98.262203			
38998	7.833403	2.585143	-1.853590	1.885829	1.317423	-1.677030	165.870780	-65.678050	98.349632			
38999	7.884246	1.980511	-2.104987	1.251288	1.128601	-1.586193	165.695678	-65.827700	98.461600			
39000	8.074122	1.147914	-2.415166	0.371074	0.973223	-1.371284	165.485067	-65.876552	98.528295			
39001	8.638478	0.585778	-2.610389	-0.253395	1.065397	-0.835980	165.268568	-65.861232	98.558475			
39002	9.096936	0.583618	-2.754790	-0.311600	1.123397	-0.361519	165.076114	-65.815129	98.570460			
39003	9.532970	1.158609	-2.908834	0.201458	1.116302	0.156990	164.905502	-65.753292	98.581443			
39004	9.971363	1.768724	-2.891579	0.770110	1.263211	0.614629	164.748851	-65.687939	98.606324			
39005	10.602394	2.368782	-2.781290	1.328757	1.572853	1.210833	164.611980	-65.625927	98.648958			
39006	10.952721	2.672374	-2.764016	1.599657	1.713012	1.556136	164.509474	-65.558974	98.728221			
39007	11.421224	2.917666	-3.080408	1.761903	1.615639	2.134336	164.482208	-65.416519	98.837116			
39008	12.043537	3.466007	-3.952248	2.143525	1.072339	3.107661	164.514103	-65.208300	98.956559			
39009	12.500599	4.083807	-5.416247	2.529858	-0.065282	4.182793	164.493323	-65.001631	99.142400			
39010	13.558865	3.945685	-6.680755	2.146380	-0.700782	5.645172	164.335444	-64.805792	99.380795			
39011	15.349236	2.844619	-7.452331	0.794672	-0.517655	7.459497	163.918008	-64.709410	99.745775			
39012	14.791114	2.595417	-8.040490	0.442981	-1.273416	7.168012	163.215006	-64.795443	100.280841			
39013	12.007500	3.355012	-9.577081	1.107553	-3.938356	5.366842	162.309255	-64.884515	100.862178			
39014	10.777102	3.895022	-10.206792	1.523910	-5.111797	4.576232	161.264245	-64.904568	101.368908			
39015	10.565091	3.054827	-9.688947	0.634530	-4.692774	4.058207	160.042042	-64.980124	101.963822			
39016	9.142587	2.633869	-8.597045	0.364769	-4.301786	2.261786	158.707657	-65.121638	102.718282			
39017	7.895456	1.638452	-7.598595	-0.465131	-3.837329	0.570881	157.354442	-65.165498	103.496014			
39018	7.384788	0.233680	-6.840142	-1.773885	-3.202451	-0.433252	156.045001	-65.151119	104.290711			
39019	7.036770	-0.383641	-5.698731	-2.223501	-2.232750	-1.315097	154.872163	-65.080640	105.020727			
39020	6.963726	-1.454311	-5.316432	-3.262185	-1.757549	-1.741652	153.886307	-64.960374	105.567322			
39021	7.682564	-1.834423	-4.839642	-3.677195	-0.948735	-1.363618	153.260128	-64.754357	105.767436			
39022	8.550084	-2.607480	-5.931968	-4.806133	-1.404020	-0.324778	153.007887	-64.482868	105.618386			
39023	9.272526	-2.425504	-6.815708	-4.933772	-1.850696	0.701540	153.159891	-64.198425	105.192397			
39024	9.852448	-1.898871	-7.291537	-4.590458	-2.047025	1.526623	153.641304	-64.002375	104.626567			
39025	10.518400	-0.957897	-7.196680	-3.680978	-1.792261	2.294506	154.469047	-63.964548	104.022678			
39026	10.965871	0.448163	-6.725599	-2.164000	-1.404551	2.797942	155.544503	-64.111791	103.438776			
39027	11.393673	1.605728	-5.965288	-0.795765	-0.747324	3.101858	156.731312	-64.365314	102.860662			
39028	11.663756	1.823401	-5.286868	-0.343362	-0.101249	3.117481	157.892351	-64.701553	102.330719			
39029	11.091073	1.528161	-4.709997	-0.352982	0.155788	2.327369	158.928217	-65.124987	101.913895			
39030	9.510220	0.910954	-4.484700	-0.683654	-0.285924	0.715202	159.816893	-65.580968	101.581515			
39031	7.814592	0.335916	-4.270844	-0.997858	-0.774994	-0.990903	160.558947	-65.970086	101.272861			
39032	6.327576	0.153063	-4.341731	-1.018117	-1.456509	-2.345823	161.129520	-66.235445	100.987318			
39033	5.356470	0.291083	-4.250863	-0.760642	-1.797039	-3.252326	161.516992	-66.394147	100.724470			
39034	4.575817	0.334924	-4.105378	-0.621114	-1.988969	-4.019363	161.731429	-66.517109	100.472663			
39035	4.536427	0.362678	-3.426956	-0.483291	-1.397742	-4.311099	161.833390	-66.639392	100.235542			
39036	5.091460	0.502028	-2.638488	-0.263137	-0.486191	-4.082855	161.880384	-66.754637	100.022099			
39037	5.470139	0.562279	-2.113487	-0.146074	0.124260	-3.924681	161.910948	-66.846050	99.907684			
39038	5.860750	0.586668	-1.709949	-0.081177	0.635323	-3.712993	162.033576	-66.893329	99.782820			
39039	6.128170	0.461986	-1.641017	-0.203044	0.815428	-3.507556	162.325731	-66.888931	99.642949			
39040	6.406965	0.482499	-1.552239	-0.172210	1.010317	-3.282680	162.903968	-66.796689	99.328544			
39041	6.289267	0.046204	-2.039927	-0.642692	0.581187	-3.257736	163.663252	-66.693739	98.883409			
39042	6.063452	-0.292471	-2.603226	-1.008250	0.027695	-3.285032	164.612920	-66.597352	98.286839			
39043	5.956297	-0.265612	-3.006169	-0.985882	-0.373550	-3.219254	165.644517	-66.503695	97.657610			
39044	6.017323	-0.083716	-3.155307	-0.781391	-0.489143	-3.080591	166.622674	-66.389746	97.003660			
39045	6.222385	-0.053518	-3.276158	-0.732894	-0.502974	-2.836739	167.461044	-66.243644	96.419840			
39046	6.964205	0.089544	-3.117176	-0.568172	-0.050625	-2.203521	168.169842	-66.071098	95.908456			
39047	7.862427	0.476100	-2.842530	-0.159035	0.555441	-1.458619	168.729470	-65.898439	95.560994			
39048	8.586689	0.719549	-2.683880	0.094737	0.999550	-0.843626	169.081366	-65.767411	95.387318			
39049	8.953500	0.908377	-2.416105	0.307038	1.394397	-0.604579	169.216561	-65.713052	95.425302			
39050	9.013912	0.791848	-2.302330	0.199679	1.534345	-0.604850	169.157948	-65.743295	95.577759			
39051	9.012941	0.540345	-2.283944	-0.057916	1.558835	-0.630742	168.982024	-65.838380	95.824314			
39052	8.882229	0.403770	-2.442679	-0.217260	1.351071	-0.693968	168.737623	-65.978899	96.097521			
39053	8.739214	0.323393	-2.637916	-0.326388	1.096458	-0.750225	168.445538	-66.122324	96.416664			
39054	8.770198	0.199111	-2.633594	-0.469634	1.097728	-0.731598	168.078344	-66.256725	96.737799			
39055	8.778822	-0.107723	-2.455955	-0.779937	1.260557	-0.817487	167.630051	-66.407242	97.112916			
39056	8.771897	-0.261608	-2.069880	-0.916624	1.599900	-0.986643	167.189945	-66.516490	97.447141			
39057	8.834478	-0.208273	-1.675607	-0.847933	1.969309	-1.077595	166.810432	-66.534815	97.741229			
39058	9.131222	0.051605	-1.546677	-0.611031	2.186988	-0.833946	166.492964	-66.464404	97.942460			
39059	9.500674	0.564688	-1.500074	-0.134729	2.350283	-0.469783	166.226734	-66.327014	98.099827			
39060	9.845220	1.014272	-1.750231	0.248187	2.244955	-0.018867	165.981720	-66.170746	98.213838			
39061	9.986174	1.300141	-2.025713	0.476178	2.045803	0.242433	165.757338	-66.069248	98.348181			
39062	10.231216	0.973504	-2.361847	0.084553	1.872909	0.564637	165.535142	-66.041170	98.471022			
39063	10.162151	0.368401	-2.644073	-0.555600	1.635776	0.551274	165.408405	-66.070562	98.577914			
39064	10.380628	0.079861	-2.767236	-0.872491	1.631554	0.770233	165.423033	-66.077145	98.566718			
39065	10.690142	-0.432844	-2.965190	-1.419637	1.620370	1.078495	165.492294	-66.046924	98.476271			
39066	10.961210	-1.125137	-3.316007	-2.157495	1.479369	1.392964	165.552315	-65.988077	98.310274			
39067	11.054857	-1.561733	-3.888430	-2.657645	1.050298	1.659127	165.627650	-65.923049	98.103784			
39068	11.291529	-1.487952	-4.568200	-2.670442	0.545739	2.151923	165.791774	-65.832218	97.771719			
39069	11.784625	-1.204752	-5.295125	-2.488725	0.088064	2.921735	166.079412	-65.736264	97.374211			
39070	11.975359	-1.015271	-6.147655	-2.387951	-0.593907	3.460534	166.499990	-65.623138	96.943470			
39071	11.601993	-1.707862	-7.193616	-3.150056	-1.603693	3.483037	166.878408	-65.523970	96.664849			
39072	10.558879	-2.332805	-8.387153	-3.825679	-3.034125	2.971454	167.283635	-65.376058	96.523180			
39073	9.929748	-2.091873	-9.531001	-3.633084	-4.325329	2.911599	167.780683	-65.132708	96.476435			
39074	9.948367	-1.432097	-10.180806	-2.974158	-4.909503	3.291503	168.353648	-64.778304	96.401725			
39075	10.232439	-0.907284	-10.448203	-2.405323	-4.992014	3.751368	168.986693	-64.346560	96.260157			
39076	10.673171	0.134796	-10.097663	-1.264079	-4.457558	4.131059	169.708152	-63.928244	96.025928			
39077	10.302378	1.625545	-9.157534	0.413098	-3.794403	3.531708	170.373234	-63.841494	95.857764			
39078	8.756780	2.821266	-8.374377	1.824618	-3.834725	1.880715	170.994217	-64.155457	95.723049			
39079	7.052172	3.500054	-7.776555	2.707548	-4.114268	0.096860	171.652744	-64.643656	95.623127			
39080	5.821648	4.303572	-7.788326	3.651813	-4.712494	-1.007798	172.353348	-64.986915	95.491751			
39081	6.471982	5.427445	-6.991975	4.862455	-3.730129	-0.720186	172.924831	-64.940582	95.369073			
39082	8.122364	4.727223	-6.656307	4.141811	-2.674299	0.594965	172.949907	-64.722572	95.382922			
39083	9.039172	3.435892	-6.221949	2.818458	-1.847382	1.181313	172.632604	-64.694058	95.619460			
39084	9.375513	2.914029	-5.422495	2.276433	-0.982009	1.125709	172.046708	-64.749169	96.004941			
39085	9.919718	2.281631	-5.187560	1.567825	-0.544442	1.490515	171.144593	-64.753670	96.513861			
39086	10.523017	1.458045	-5.048172	0.635571	-0.160320	1.930963	170.011665	-64.775387	97.130617			
39087	10.687905	0.790747	-4.848588	-0.127208	0.088374	1.949134	168.786709	-64.845534	97.855325			
39088	10.816831	0.387009	-4.532168	-0.615968	0.420983	1.897848	167.575902	-64.898909	98.596615			
39089	10.640142	0.422249	-4.192670	-0.638257	0.634679	1.596016	166.433987	-64.911363	99.362690			
39090	9.578706	0.539503	-4.100986	-0.527042	0.247266	0.604665	165.322549	-64.986465	100.220794			
39091	8.202561	0.665440	-4.013676	-0.365313	-0.282090	-0.668241	164.239871	-65.102225	101.188480			
39092	7.058755	0.547778	-4.149023	-0.463942	-0.901220	-1.669427	163.209920	-65.216828	102.180652			
39093	6.298612	0.514822	-4.049811	-0.469237	-1.147496	-2.409892	162.275432	-65.317823	103.167789			
39094	5.570255	0.365285	-3.809725	-0.563271	-1.239658	-3.192943	161.423516	-65.403300	104.100893			
39095	5.161895	0.086196	-3.484762	-0.795928	-1.113392	-3.736264	160.680903	-65.477537	104.962609			
39096	5.198993	0.012583	-2.956099	-0.844694	-0.628517	-3.925446	160.075324	-65.542390	105.700877			
39097	5.378417	0.120145	-2.455621	-0.729712	-0.119099	-3.945391	159.569857	-65.610272	106.386805			
39098	5.787293	0.669172	-1.949808	-0.204399	0.470185	-3.690645	159.167979	-65.683529	106.991821			
39099	6.362902	1.413726	-1.594001	0.477290	0.984659	-3.192371	158.807902	-65.744310	107.551097			
39100	6.955098	2.019275	-1.347232	1.006019	1.414706	-2.653610	158.497599	-65.798490	108.044680			
39101	6.927782	2.692630	-1.472612	1.646582	1.261804	-2.525054	158.210774	-65.872703	108.556819			
39102	6.675454	2.794436	-1.853349	1.732928	0.805805	-2.590978	157.934091	-65.917231	109.045588			
39103	6.713402	2.621190	-2.111572	1.521899	0.591316	-2.482389	157.771263	-65.837627	109.428897			
39104	6.899533	2.447056	-2.479474	1.283735	0.347439	-2.198841	157.729840	-65.640736	109.664449			
39105	7.257054	2.243680	-2.917303	0.989759	0.121044	-1.737097	157.788602	-65.350195	109.760201			
39106	7.779340	2.062847	-3.184936	0.707590	0.127033	-1.187129	157.884570	-65.027612	109.726311			
39107	8.035352	1.707570	-3.606357	0.281360	-0.108346	-0.846226	158.003670	-64.743077	109.634546			
39108	8.371012	1.497704	-3.846083	0.004200	-0.150499	-0.480670	158.153610	-64.523703	109.499944			
39109	8.701634	1.668879	-3.789994	0.131409	0.061476	-0.176995	158.310353	-64.431532	109.394660			
39110	8.804819	1.870297	-3.464413	0.347474	0.401522	-0.182370	158.412565	-64.541751	109.341193			
39111	8.447465	2.157653	-2.917561	0.736935	0.728792	-0.677430	158.534785	-64.815249	109.303048			
39112	8.236326	2.342776	-2.427617	1.007409	1.049701	-1.031913	158.729951	-65.175102	109.199255			
39113	8.211744	2.428930	-2.105575	1.148359	1.288135	-1.164707	159.028283	-65.567924	109.035778			
39114	8.226193	2.530857	-1.976850	1.291540	1.365465	-1.184213	159.402453	-65.954682	108.809578			
39115	8.268910	2.631027	-1.781012	1.434482	1.520194	-1.204541	159.829399	-66.312886	108.541269			
39116	8.382024	2.737482	-1.588772	1.573791	1.706309	-1.158912	160.295883	-66.600385	108.219561			
39117	8.552869	2.675236	-1.413901	1.534472	1.908394	-1.077077	160.744661	-66.807377	107.892814			
39118	8.411988	2.264904	-1.325031	1.177491	1.921699	-1.294028	161.111584	-66.946999	107.626912			
39119	8.553039	1.853538	-1.254705	0.776076	2.030604	-1.243050	161.397795	-67.018286	107.441247			
39120	8.537806	1.297977	-1.333515	0.236309	1.945215	-1.296971	161.561388	-67.073128	107.353854			
39121	8.735107	0.826263	-1.510307	-0.255077	1.847060	-1.106992	161.632970	-67.117742	107.335058			
39122	8.891725	0.529384	-1.853781	-0.578428	1.579690	-0.871237	161.661219	-67.147951	107.347328			
39123	9.149826	0.458403	-2.225799	-0.693578	1.329049	-0.504830	161.660415	-67.120482	107.375521			
39124	9.921181	0.651831	-2.358621	-0.599999	1.500233	0.277263	161.629752	-67.057710	107.409717			
39125	10.754549	1.047271	-2.395704	-0.313011	1.787776	1.105296	161.578909	-67.002376	107.501127			
39126	11.445932	1.546862	-2.371731	0.093001	2.081638	1.792715	161.545768	-66.940475	107.652377			
39127	12.007798	1.950914	-2.413970	0.414373	2.266113	2.373926	161.531710	-66.904355	107.877519			
39128	12.115328	2.242094	-2.380364	0.680064	2.345234	2.496320	161.533175	-66.927608	108.182282			
39129	11.600974	2.746259	-2.667016	1.226845	1.894459	2.193286	161.572958	-66.998887	108.543177			
39130	10.980726	3.274418	-3.501461	1.807526	0.904497	1.997186	161.639925	-67.046429	108.921428			
39131	10.751162	3.089708	-4.692607	1.637031	-0.281954	2.203758	161.637830	-67.028714	109.344697			
39132	11.847057	2.639867	-5.278483	1.039927	-0.422732	3.375332	161.549962	-66.953629	109.818033			
39133	13.092704	2.381209	-5.121544	0.599654	0.184079	4.432513	161.315586	-66.896998	110.359949			
39134	12.714099	3.043328	-5.007470	1.279692	0.188839	4.126881	161.023545	-66.894992	110.897340			
39135	11.408177	3.870234	-5.580704	2.258067	-0.778357	3.247355	160.691482	-66.888517	111.323476			
39136	10.054356	4.083374	-6.672321	2.641226	-2.285078	2.438277	160.281263	-66.902161	111.670372			
39137	8.776305	4.172596	-7.483264	2.884913	-3.514635	1.578441	159.862787	-66.885283	111.961145			
39138	8.094185	3.748586	-7.664809	2.522120	-3.953519	0.972736	159.520671	-66.676050	112.090108			
39139	7.902113	2.981844	-7.921110	1.738242	-4.271456	0.808586	159.242271	-66.329683	112.160460			
39140	8.136914	2.407177	-7.556590	1.079829	-3.830508	0.829992	158.918738	-65.995673	112.299130			
39141	8.052204	0.973350	-7.588498	-0.386389	-3.932934	0.567728	158.309136	-65.803464	112.662050			
39142	7.687014	-0.179780	-7.153923	-1.527016	-3.715918	-0.109030	157.571968	-65.712171	113.169345			
39143	7.535149	-1.285855	-7.102153	-2.658547	-3.772929	-0.454846	156.811273	-65.620647	113.639164			
39144	8.070261	-1.945750	-7.231164	-3.470528	-3.697621	-0.040927	156.224800	-65.415526	113.869105			
39145	8.837278	-2.345055	-7.285583	-4.065513	-3.426598	0.599126	155.792627	-65.169012	113.900782			
39146	9.067673	-2.562580	-7.236183	-4.375549	-3.254224	0.742697	155.498603	-65.029298	113.881076			
39147	9.154299	-1.898205	-6.625568	-3.739261	-2.613635	0.698703	155.468396	-64.965046	113.766784			
39148	9.288010	-0.890253	-6.100595	-2.738944	-2.041252	0.799021	155.804117	-64.956606	113.517033			
39149	9.516049	0.199353	-5.477757	-1.634228	-1.344615	0.963294	156.481496	-64.992664	113.155882			
39150	9.808455	1.084240	-4.804490	-0.716948	-0.570857	1.124592	157.439657	-65.009529	112.642520			
39151	10.198308	1.462555	-4.301529	-0.312040	0.088358	1.347144	158.564601	-64.972574	111.999607			
39152	10.414247	1.477878	-3.976653	-0.239476	0.514270	1.418155	159.773605	-64.922787	111.298467			
39153	9.844999	1.299197	-3.885431	-0.239869	0.399778	0.840501	160.982313	-64.958273	110.612620			
39154	8.675131	1.124591	-3.964510	-0.153022	-0.129969	-0.210653	162.100142	-65.088126	109.965295			
39155	7.453756	1.138974	-4.296288	0.113956	-0.913731	-1.183344	163.042158	-65.236994	109.361237			
39156	6.717261	1.254092	-4.461179	0.389824	-1.345582	-1.773178	163.792538	-65.308404	108.784591			
39157	6.496231	1.629178	-4.386828	0.827184	-1.332547	-1.961604	164.307839	-65.319640	108.257859			
39158	6.505961	2.028240	-4.084486	1.234952	-1.024772	-2.031361	164.530988	-65.369840	107.841141			
39159	6.541810	2.270596	-3.539268	1.469175	-0.509378	-2.193021	164.550516	-65.471350	107.518576			
39160	6.564040	2.176903	-3.025782	1.369963	-0.055904	-2.389688	164.500750	-65.567546	107.248007			
39161	6.980417	1.920780	-2.609245	1.066564	0.464491	-2.205424	164.586809	-65.580249	106.928737			
39162	7.718863	1.444740	-2.275244	0.515278	1.042995	-1.720007	164.835888	-65.511255	106.525995			
39163	8.013757	0.740973	-2.461123	-0.199723	0.970593	-1.455387	165.239044	-65.457926	106.041578			
39164	7.835030	0.003726	-2.699678	-0.885243	0.661308	-1.599595	165.757887	-65.442600	105.469554			
39165	7.490008	-0.545459	-3.292863	-1.361702	-0.033976	-1.726575	166.342113	-65.474254	104.854618			
39166	6.855840	-0.626230	-3.630153	-1.341951	-0.595168	-2.169549	166.928275	-65.524919	104.221775			
39167	6.454982	-0.772701	-3.822194	-1.418829	-0.930344	-2.464603	167.453205	-65.524102	103.588568			
39168	6.639169	-0.568099	-3.815323	-1.211064	-0.827499	-2.275678	167.911929	-65.449041	102.998778			
39169	7.109018	-0.274022	-3.696389	-0.944883	-0.497892	-1.866886	168.248923	-65.339990	102.506331			
39170	7.440855	-0.095760	-3.631414	-0.785713	-0.277794	-1.574477	168.455884	-65.246670	102.148766			
39171	7.863066	0.051800	-3.450312	-0.667897	0.081881	-1.252178	168.573042	-65.154553	101.889573			
39172	8.162948	-0.031558	-3.508966	-0.775901	0.163481	-0.962897	168.576676	-65.094202	101.736462			
39173	8.382605	-0.081788	-3.552437	-0.848089	0.221006	-0.750322	168.510783	-65.075557	101.651729			
39174	8.579292	-0.173970	-3.440806	-0.960481	0.400881	-0.626261	168.370812	-65.119212	101.616459			
39175	8.845041	-0.094858	-3.262070	-0.907888	0.666173	-0.452304	168.199265	-65.189090	101.613450			
39176	8.909389	0.103157	-3.242878	-0.724298	0.698047	-0.384422	167.969265	-65.300055	101.657944			
39177	8.920922	0.435395	-3.152461	-0.403174	0.767500	-0.380893	167.685089	-65.435997	101.755016			
39178	8.855897	0.785148	-2.956863	-0.058564	0.897063	-0.486479	167.323355	-65.573788	101.932008			
39179	8.869925	0.882544	-2.732925	0.025170	1.081833	-0.552437	166.890421	-65.699143	102.177566			
39180	9.013327	0.708620	-2.495677	-0.174891	1.330057	-0.529861	166.408203	-65.823508	102.485570			
39181	9.339164	0.428071	-2.040718	-0.489490	1.849844	-0.436861	165.914116	-65.963024	102.818994			
39182	9.368805	0.144997	-1.716261	-0.783193	2.127224	-0.560528	165.396033	-66.157276	103.174224			
39183	8.901556	-0.383084	-1.904484	-1.294500	1.737375	-0.962988	164.870838	-66.353820	103.498555			
39184	8.763563	-0.964411	-2.098983	-1.888274	1.482904	-1.073625	164.400584	-66.471714	103.734220			
39185	8.946436	-1.038211	-2.152038	-1.998209	1.493863	-0.895100	164.051614	-66.519339	103.870626			
39186	9.031664	-0.902436	-2.421470	-1.899149	1.272862	-0.701052	163.812500	-66.533305	103.951735			
39187	9.207223	-0.459739	-2.658107	-1.499024	1.114386	-0.402007	163.665152	-66.536591	103.990391			
39188	9.489910	0.000795	-2.626765	-1.072921	1.241465	-0.103625	163.554671	-66.562263	104.027684			
39189	9.634344	0.154784	-2.487688	-0.930441	1.412831	-0.005990	163.394687	-66.640499	104.104422			
39190	9.482484	-0.092955	-2.414774	-1.163577	1.411209	-0.199580	163.206974	-66.732581	104.219252			
39191	9.134076	-0.379159	-2.318468	-1.413627	1.360605	-0.587677	163.095142	-66.775909	104.305060			
39192	9.142996	-0.366048	-2.197284	-1.397065	1.476329	-0.624376	163.108185	-66.714857	104.304129			
39193	9.371802	-0.564092	-2.437599	-1.632281	1.365509	-0.348981	163.227799	-66.544896	104.209480			
39194	9.599536	-0.450642	-2.872331	-1.567331	1.085551	0.034614	163.463197	-66.305112	104.046640			
39195	9.913184	-0.288539	-3.735742	-1.483691	0.453964	0.670758	163.757117	-66.070162	103.806989			
39196	10.288570	0.118500	-4.908264	-1.174471	-0.437738	1.518181	164.105097	-65.864527	103.531050			
39197	10.579502	0.485472	-6.114124	-0.890039	-1.391978	2.304000	164.470033	-65.698282	103.253802			
39198	11.181157	0.648877	-6.845047	-0.805440	-1.780819	3.167056	164.786817	-65.526311	102.991780			
39199	11.377546	0.128972	-7.695843	-1.371853	-2.428041	3.637727	165.025986	-65.358453	102.804824			
39200	10.808564	-0.375237	-8.883837	-1.867602	-3.701063	3.555277	165.267212	-65.229158	102.751863			
39201	10.464564	-0.221677	-9.834190	-1.696825	-4.679973	3.658982	165.620954	-65.087854	102.693893			
39202	10.153471	0.113617	-9.973481	-1.292271	-4.907026	3.484946	165.985371	-64.974596	102.612219			
39203	9.857671	0.286276	-9.722154	-1.026208	-4.773522	3.146323	166.463918	-64.879814	102.413093			
39204	9.393356	1.458117	-8.601960	0.290535	-3.915302	2.391429	167.133949	-64.798656	102.024406			
39205	9.026674	2.464668	-7.579653	1.429313	-3.108939	1.732777	167.832488	-64.800605	101.550125			
39206	8.602814	3.028599	-7.124197	2.106203	-2.863353	1.200928	168.527706	-64.924067	101.020994			
39207	8.005273	3.584512	-6.818535	2.781574	-2.842520	0.560743	169.199595	-65.133467	100.545193			
39208	7.949476	3.967219	-6.220266	3.237075	-2.338014	0.270935	169.753049	-65.338223	100.151950			
39209	8.187695	4.016603	-5.533854	3.325449	-1.636284	0.190251	170.158113	-65.539969	99.889056			
39210	8.193763	3.748653	-4.946050	3.097401	-1.129748	-0.077022	170.384954	-65.782329	99.774500			
39211	8.264841	3.354174	-4.270287	2.723432	-0.521294	-0.320348	170.421843	-65.977587	99.754646			
39212	8.659366	2.622330	-3.922750	1.969083	-0.084190	-0.150142	170.240727	-66.066784	99.772672			
39213	9.067319	1.971064	-3.942024	1.272648	0.031508	0.188322	169.831080	-66.113086	99.881058			
39214	9.268168	1.576958	-4.052118	0.828373	-0.010353	0.391181	169.220695	-66.124058	100.062794			
39215	9.546692	1.223035	-4.173411	0.402493	-0.019959	0.670148	168.469541	-66.062014	100.335732			
39216	9.675667	0.879945	-4.314713	-0.015801	-0.093592	0.817468	167.628618	-65.955189	100.697407			
39217	9.423152	0.784028	-4.427153	-0.166580	-0.288704	0.622764	166.715518	-65.844371	101.219817			
39218	8.987843	0.761352	-4.469619	-0.229596	-0.494715	0.239207	165.758883	-65.730859	101.850091			
39219	8.568667	0.826574	-4.575384	-0.207182	-0.754164	-0.095315	164.832838	-65.604952	102.532138			
39220	8.128677	0.811591	-4.706876	-0.257966	-1.044714	-0.446235	163.971246	-65.490798	103.178673			
39221	7.764977	0.790127	-4.832074	-0.312245	-1.303341	-0.731296	163.191778	-65.425708	103.804022			
39222	7.306505	0.750175	-4.830528	-0.355662	-1.494752	-1.157006	162.473149	-65.462632	104.389702			
39223	7.006822	0.774667	-4.614114	-0.322741	-1.438187	-1.517326	161.830709	-65.568793	104.960396			
39224	6.972505	0.885700	-4.147036	-0.202449	-1.055143	-1.722956	161.258470	-65.734095	105.508475			
39225	7.038555	1.169907	-3.602090	0.092091	-0.570530	-1.840807	160.731683	-65.940645	106.083480			
39226	7.337940	1.456324	-3.054934	0.364981	0.002358	-1.740175	160.191557	-66.200174	106.649195			
39227	7.559280	1.866442	-2.481999	0.771998	0.558980	-1.696163	159.662710	-66.501971	107.209268			
39228	7.576818	2.202033	-1.943686	1.126772	1.004564	-1.827950	159.098498	-66.814821	107.764937			
39229	7.541250	2.320171	-1.716998	1.248576	1.150312	-1.918426	158.554391	-67.101953	108.312818			
39230	7.195804	2.532906	-1.741099	1.483390	0.952957	-2.189177	158.043909	-67.338730	108.827396			
39231	6.939987	2.487544	-1.794689	1.450528	0.780308	-2.405987	157.585905	-67.481708	109.257198			
39232	6.893494	2.322873	-1.953694	1.266030	0.603079	-2.412258	157.247276	-67.499770	109.538155			
39233	6.963580	2.186396	-2.312881	1.079374	0.297776	-2.238557	157.053718	-67.392237	109.659558			
39234	7.299111	1.953466	-2.599820	0.769854	0.173189	-1.860996	156.981078	-67.215197	109.614092			
39235	7.726060	1.618845	-2.861428	0.351678	0.119411	-1.424455	156.991799	-67.015835	109.465864			
39236	8.290201	1.457366	-2.959770	0.104261	0.267551	-0.894779	157.077848	-66.845406	109.238313			
39237	8.600452	1.415412	-3.018032	0.018282	0.350214	-0.595492	157.210583	-66.774135	109.018471			
39238	8.683327	1.461511	-2.987597	0.065149	0.413492	-0.523625	157.397548	-66.810406	108.778454			
39239	8.547922	1.283896	-2.925465	-0.069665	0.419034	-0.697140	157.651903	-66.942283	108.515115			
39240	8.381653	1.267457	-2.770165	-0.025996	0.485424	-0.907860	158.001345	-67.111168	108.188483			
39241	8.436851	1.335971	-2.589017	0.082176	0.655651	-0.911478	158.466182	-67.260206	107.778757			
39242	8.590202	1.532300	-2.312808	0.316788	0.950374	-0.841348	158.983470	-67.378212	107.318296			
39243	8.593398	1.693601	-2.085960	0.530428	1.150534	-0.898608	159.535300	-67.469174	106.851457			
39244	8.518442	1.876126	-1.925290	0.766882	1.264763	-1.003452	160.094996	-67.523461	106.379941			
39245	8.540375	2.001979	-1.825559	0.928959	1.365506	-1.006386	160.642106	-67.542941	105.928979			
39246	8.478152	1.978495	-1.720232	0.949229	1.449049	-1.109133	161.141861	-67.542784	105.511012			
39247	8.416853	1.874784	-1.692280	0.880113	1.463687	-1.192652	161.588915	-67.549698	105.141061			
39248	8.346296	1.784479	-1.872798	0.807029	1.278535	-1.206503	161.994818	-67.561738	104.797997			
39249	8.174985	1.710786	-2.254695	0.743438	0.869329	-1.237587	162.371855	-67.546333	104.449144			
39250	8.403634	1.669618	-2.576664	0.676085	0.666660	-0.916266	162.707159	-67.487575	104.092358			
39251	8.596875	1.527107	-2.735617	0.520933	0.609211	-0.697899	162.984080	-67.422277	103.774886			
39252	8.735523	1.507438	-2.895797	0.490160	0.527777	-0.514916	163.223340	-67.339622	103.485236			
39253	8.841847	1.463158	-3.197030	0.424070	0.307873	-0.311875	163.409860	-67.233376	103.252467			
39254	9.185461	1.438395	-3.311055	0.365990	0.352986	0.043588	163.528319	-67.115403	103.108366			
39255	9.684276	1.681436	-3.061927	0.584262	0.784730	0.435758	163.611228	-67.001474	103.050657			
39256	10.018767	1.735990	-2.680045	0.636679	1.282181	0.604732	163.643536	-66.910692	103.085435			
39257	10.462472	1.832787	-2.345710	0.713084	1.774135	0.895660	163.638710	-66.825840	103.202125			
39258	10.893297	1.851089	-2.137903	0.697021	2.142984	1.213774	163.552177	-66.782061	103.432145			
39259	11.089351	1.752681	-2.131115	0.564751	2.231493	1.380557	163.395935	-66.780538	103.787621			
39260	11.037308	1.972036	-2.121055	0.765279	2.215878	1.354862	163.194520	-66.767456	104.239349			
39261	11.138955	2.195555	-2.400566	0.930906	1.996265	1.580633	162.938424	-66.729506	104.760048			
39262	11.099003	2.547273	-2.899027	1.220735	1.521080	1.775101	162.600189	-66.693070	105.371547			
39263	11.088626	2.762192	-3.411081	1.367205	1.046451	1.988090	162.145271	-66.654706	106.048348			
39264	11.510773	2.580711	-3.812901	1.071759	0.832427	2.510232	161.528071	-66.664062	106.828385			
39265	11.703380	2.589932	-3.892171	0.999234	0.813638	2.723861	160.826522	-66.711242	107.689346			
39266	11.761274	2.601442	-3.889234	0.944425	0.815238	2.783515	160.102748	-66.737370	108.557022			
39267	11.572116	2.572794	-4.204042	0.865068	0.436536	2.727963	159.429254	-66.708248	109.357351			
39268	11.020254	2.564381	-5.207128	0.827207	-0.708083	2.594985	158.812204	-66.657698	110.038722			
39269	10.698650	3.369093	-6.030615	1.581163	-1.586441	2.723787	158.334301	-66.571883	110.527172			
39270	10.699019	4.094834	-6.473441	2.235340	-1.983396	3.001810	157.970450	-66.454255	110.796946			
39271	10.164199	4.359557	-7.074557	2.503739	-2.728414	2.783064	157.695449	-66.337987	110.923696			
39272	9.536686	4.275162	-7.357364	2.457481	-3.215128	2.310835	157.444148	-66.202713	111.003834			
39273	8.931607	3.552320	-7.381418	1.790341	-3.456958	1.664328	157.151734	-66.084585	111.121602			
39274	8.318070	2.487632	-7.081801	0.804791	-3.408361	0.829951	156.729870	-66.008124	111.367051			
39275	7.568781	1.289485	-6.741329	-0.290178	-3.377962	-0.174237	156.195034	-65.960573	111.706079			
39276	6.986305	0.460046	-6.366562	-1.043774	-3.252079	-0.987297	155.589648	-65.905320	112.052743			
39277	6.822914	-0.160333	-5.903248	-1.652093	-2.880054	-1.422110	154.890381	-65.839336	112.356787			
39278	7.151338	-0.829893	-5.477226	-2.389142	-2.345384	-1.409045	154.187905	-65.771066	112.561275			
39279	7.629950	-1.481514	-5.247692	-3.141513	-1.922470	-1.188069	153.613630	-65.711578	112.637690			
39280	8.232949	-1.529950	-5.103102	-3.311899	-1.542350	-0.712345	153.264006	-65.695754	112.615608			
39281	8.929784	-1.173442	-4.993113	-3.080721	-1.182592	-0.057698	153.137468	-65.749203	112.544462			
39282	9.578119	-0.617312	-4.661934	-2.597146	-0.662804	0.515455	153.260379	-65.883168	112.455087			
39283	10.047057	-0.211983	-4.218771	-2.196693	-0.115876	0.861918	153.648566	-66.064767	112.347585			
39284	9.976830	0.320153	-4.074956	-1.598954	-0.054974	0.849624	154.294707	-66.250066	112.182333			
39285	9.679198	1.050104	-4.334933	-0.795046	-0.442764	0.805819	155.108287	-66.380171	111.909353			
39286	9.217407	1.491967	-4.585286	-0.243072	-0.857416	0.551520	155.903171	-66.484031	111.580604			
39287	8.322931	1.588751	-4.670550	0.038355	-1.265545	-0.220711	156.618855	-66.559637	111.203868			
39288	7.297397	1.824433	-4.611922	0.471117	-1.584506	-1.145646	157.247965	-66.584347	110.821581			
39289	6.728165	2.039595	-4.427872	0.811118	-1.610620	-1.702071	157.807873	-66.536645	110.396750			
39290	6.500407	1.975667	-4.184001	0.818067	-1.446210	-2.008614	158.312040	-66.395446	109.935691			
39291	6.639976	1.834672	-3.782872	0.698546	-0.990618	-2.047636	158.768341	-66.184858	109.476025			
39292	7.114211	1.694468	-3.500951	0.524205	-0.513031	-1.737927	159.182364	-65.955702	109.036251			
39293	7.578735	1.507900	-3.215134	0.305633	-0.035481	-1.448878	159.536639	-65.776514	108.622859			
39294	8.175063	1.258439	-2.908682	0.012981	0.505799	-1.059420	159.895033	-65.674864	108.190626			
39295	8.639146	0.943861	-2.996372	-0.341296	0.623252	-0.647593	160.295415	-65.678685	107.700946			
39296	8.482420	0.909861	-3.216156	-0.338113	0.359934	-0.708898	160.746713	-65.793395	107.168629			
39297	8.017161	0.956771	-3.473847	-0.214759	-0.070550	-1.025956	161.265438	-65.955565	106.554918			
39298	7.824714	0.901773	-3.688421	-0.220763	-0.350041	-1.125202	161.904869	-66.040661	105.819998			
39299	7.676679	0.922197	-4.008743	-0.161318	-0.697249	-1.132854	162.678199	-66.046479	105.006847			
39300	7.556221	1.025112	-4.416875	-0.026595	-1.105309	-1.070062	163.487539	-65.993759	104.204869			
39301	7.847083	1.298719	-4.444431	0.259127	-0.999183	-0.760028	164.248612	-65.926588	103.455558			
39302	7.783904	1.162983	-4.330955	0.177994	-0.900431	-0.876454	164.892768	-65.899947	102.797313			
39303	7.726898	1.058963	-3.988951	0.133354	-0.594657	-1.073889	165.410900	-65.861296	102.211224			
39304	7.865590	0.812303	-3.738670	-0.085238	-0.292383	-1.071281	165.758081	-65.807106	101.715993			
39305	8.145610	0.730185	-3.292649	-0.148153	0.242627	-1.001057	165.945989	-65.749553	101.313749			
39306	8.244195	0.530446	-2.871291	-0.320557	0.681813	-1.099203	165.956234	-65.721802	101.021903			
39307	8.156289	0.472807	-2.715174	-0.359792	0.795486	-1.247729	165.855344	-65.705606	100.816985			
39308	8.036595	0.482199	-2.810178	-0.353068	0.663189	-1.318454	165.692171	-65.679863	100.677948			
39309	8.035558	0.544165	-3.062521	-0.320132	0.434121	-1.213014	165.505461	-65.641721	100.575115			
39310	8.209569	0.802979	-3.101145	-0.090446	0.460844	-1.012782	165.296830	-65.614339	100.511103			
39311	8.384860	0.674888	-3.146971	-0.248075	0.496194	-0.848480	165.027904	-65.622811	100.495469			
39312	8.526044	0.608498	-2.917507	-0.317514	0.760007	-0.818407	164.734711	-65.669720	100.530206			
39313	8.699927	0.482473	-2.624584	-0.440664	1.093731	-0.789412	164.424681	-65.745608	100.591659			
39314	8.791584	0.293814	-2.465561	-0.630789	1.272506	-0.788272	164.130934	-65.845287	100.662547			
39315	8.740285	0.093027	-2.380598	-0.826411	1.325953	-0.889272	163.888644	-65.958127	100.700496			
39316	8.388533	0.010898	-2.373165	-0.886578	1.180928	-1.220896	163.701938	-66.069133	100.705008			
39317	8.133728	-0.005453	-2.406990	-0.890808	1.038102	-1.441310	163.576689	-66.131444	100.632250			
39318	8.238140	-0.044984	-2.498451	-0.949727	0.994996	-1.314498	163.496786	-66.152931	100.493977			
39319	8.484726	-0.062503	-2.711094	-1.010926	0.901716	-1.008742	163.435202	-66.151753	100.317951			
39320	8.852700	0.057974	-2.963652	-0.949926	0.810650	-0.560802	163.376368	-66.148447	100.141309			
39321	9.337802	0.171231	-3.085714	-0.888863	0.883167	-0.056898	163.292156	-66.176028	99.984985			
39322	9.712062	0.200599	-3.027426	-0.879267	1.075573	0.266981	163.189507	-66.256463	99.847109			
39323	9.992960	0.238069	-2.845358	-0.835929	1.334876	0.460155	163.098932	-66.370644	99.700517			
39324	10.012883	0.309299	-2.658759	-0.736239	1.488490	0.417895	163.080248	-66.479074	99.513876			
39325	10.124988	0.366570	-2.559208	-0.663388	1.606193	0.491649	163.144931	-66.531131	99.252513			
39326	10.151520	0.317678	-2.591444	-0.705149	1.592090	0.523552	163.271060	-66.521773	98.940573			
39327	10.131821	0.279576	-2.761431	-0.750686	1.447096	0.565163	163.491233	-66.428308	98.557613			
39328	10.325629	0.180873	-3.243765	-0.912093	1.123588	0.914793	163.798899	-66.274726	98.089855			
39329	10.560765	0.341394	-3.866063	-0.833922	0.670443	1.387652	164.263037	-66.098933	97.500692			
39330	11.350555	1.074153	-4.112986	-0.148395	0.717328	2.285602	164.895249	-65.929986	96.776938			
39331	11.994707	1.426171	-4.338260	0.193016	0.769881	2.997348	165.663228	-65.805179	95.943547			
39332	12.323711	1.382445	-4.587474	0.172080	0.709301	3.389458	166.521812	-65.769239	95.065000			
39333	12.025522	0.767392	-5.304003	-0.450455	0.024956	3.345213	167.444149	-65.801460	94.204385			
39334	11.470206	0.473892	-6.185915	-0.767897	-0.964974	3.169385	168.410149	-65.845068	93.425742			
39335	10.826237	0.188364	-7.115767	-1.085095	-2.040893	2.936187	169.234835	-65.896902	92.811961			
39336	10.656035	-0.357602	-7.514492	-1.608021	-2.408861	2.905720	169.857719	-65.887666	92.357873			
39337	10.613254	-1.305815	-7.811133	-2.534222	-2.564791	2.929346	170.331078	-65.742484	91.999788			
39338	10.755554	-1.413482	-7.788227	-2.595693	-2.429710	3.059562	170.789339	-65.487949	91.638825			
39339	10.703311	-0.772052	-7.650188	-1.901830	-2.348536	3.014993	171.187299	-65.267500	91.257653			
39340	9.885270	0.263648	-7.252535	-0.786202	-2.425790	2.182508	171.487740	-65.247588	90.893418			
39341	8.653272	1.156989	-6.646590	0.204983	-2.512759	0.866210	171.694122	-65.391649	90.579770			
39342	7.606282	1.581796	-6.216101	0.697488	-2.647089	-0.246926	171.849813	-65.638906	90.351301			
39343	6.479989	2.376715	-5.461568	1.600364	-2.571519	-1.548688	172.023499	-65.953099	90.232318			
39344	5.686603	3.235691	-4.885728	2.542978	-2.519273	-2.473487	172.167462	-66.274642	90.215458			
39345	5.331452	3.814923	-4.690040	3.154340	-2.584756	-2.859731	172.228352	-66.531134	90.284098			
39346	5.706868	3.971260	-4.271921	3.364456	-2.095324	-2.679765	172.087899	-66.691767	90.429689			
39347	6.517005	3.263666	-3.964470	2.683865	-1.429569	-2.093038	171.666999	-66.757204	90.603222			
39348	7.217679	2.323486	-3.684517	1.753163	-0.795516	-1.605217	171.052636	-66.709423	90.753679			
39349	7.740134	1.441056	-3.334064	0.885325	-0.150271	-1.309998	170.341481	-66.532740	90.845867			
39350	8.401065	0.699788	-3.556412	0.071180	0.046668	-0.663476	169.668212	-66.226709	90.864042			
39351	9.286028	0.390771	-4.235631	-0.393783	-0.104242	0.393051	169.125925	-65.844154	90.801406			
39352	9.779564	0.062168	-4.977911	-0.890821	-0.447781	1.115660	168.688708	-65.524442	90.727663			
39353	9.752471	-0.105419	-5.295120	-1.147422	-0.659685	1.205848	168.385675	-65.332609	90.703927			
39354	9.537181	0.057556	-5.390070	-1.025963	-0.832939	1.062402	168.220777	-65.258425	90.735819			
39355	9.128764	0.130065	-5.315363	-0.948722	-0.941825	0.666684	168.134602	-65.257377	90.844339			
39356	8.601666	0.481404	-5.180894	-0.578134	-1.109282	0.162147	168.084495	-65.316179	91.046176			
39357	8.269357	0.619146	-4.915509	-0.391792	-1.049163	-0.238056	167.974885	-65.412456	91.359135			
39358	7.968103	0.801686	-4.421383	-0.124099	-0.782712	-0.699296	167.752065	-65.541363	91.814728			
39359	7.571359	1.082152	-3.910614	0.236627	-0.557165	-1.243969	167.413789	-65.701126	92.383459			
39360	7.312015	1.391392	-3.483331	0.601570	-0.351418	-1.624302	166.961877	-65.855958	93.009619			
39361	7.347768	1.614762	-3.150731	0.851990	-0.091597	-1.701592	166.387805	-65.984899	93.669512			
39362	7.424321	1.854030	-2.954231	1.084685	0.062164	-1.682196	165.683279	-66.097437	94.380133			
39363	7.472077	1.927036	-2.856941	1.129433	0.140081	-1.663328	164.849688	-66.202831	95.144051			
39364	7.426730	1.909505	-2.778929	1.079579	0.177802	-1.730136	163.943523	-66.269367	95.925713			
39365	7.383753	1.841261	-2.825966	0.955503	0.116840	-1.752335	163.046092	-66.279634	96.666884			
39366	7.337425	1.668479	-2.844105	0.736660	0.101960	-1.802861	162.224578	-66.263984	97.327193			
39367	7.409497	1.575440	-2.741023	0.619639	0.234967	-1.784201	161.551235	-66.238626	97.864005			
39368	7.470749	1.502201	-2.555791	0.548023	0.436050	-1.805800	161.061986	-66.221046	98.270622			
39369	7.781487	1.383740	-2.467636	0.409882	0.659198	-1.569331	160.801252	-66.181982	98.501496			
39370	8.139151	1.547808	-2.330705	0.566781	0.904787	-1.272559	160.782674	-66.137635	98.571958			
39371	8.428495	1.650603	-2.288096	0.659922	1.049810	-1.011449	160.917113	-66.107234	98.526809			
39372	8.610570	1.757276	-2.181708	0.783235	1.207021	-0.872922	161.140183	-66.109266	98.418246			
39373	8.557597	1.812835	-2.048271	0.880330	1.297424	-0.966449	161.415536	-66.163551	98.283948			
39374	8.635994	1.847294	-2.059440	0.923950	1.307065	-0.886768	161.710877	-66.248860	98.134362			
39375	8.678479	1.895674	-2.292944	0.943203	1.094394	-0.752897	162.001800	-66.366545	97.989312			
39376	8.718238	1.890929	-2.436335	0.928555	0.965689	-0.662595	162.282779	-66.497829	97.837952			
39377	8.872004	1.921112	-2.399120	0.975127	1.038509	-0.532091	162.543171	-66.633055	97.676155			
39378	8.869990	1.930483	-2.332024	1.013842	1.076615	-0.557701	162.767287	-66.795788	97.536315			
39379	8.690416	1.979208	-2.133674	1.122086	1.155842	-0.790602	162.969629	-66.973236	97.404458			
39380	8.563452	2.089151	-2.122723	1.253185	1.075498	-0.897757	163.164736	-67.153386	97.271897			
39381	8.512598	2.121109	-2.297116	1.270560	0.867902	-0.875544	163.347695	-67.320526	97.134013			
39382	8.522155	2.131432	-2.399557	1.275555	0.753510	-0.827526	163.512016	-67.472870	96.997080			
39383	8.822549	2.190854	-2.469904	1.319589	0.776552	-0.517890	163.661539	-67.571800	96.860345			
39384	9.208716	2.090217	-2.572120	1.194527	0.833326	-0.134674	163.759821	-67.609321	96.746771			
39385	9.825040	1.853978	-2.558409	0.941903	1.111232	0.404557	163.795097	-67.595054	96.682638			
39386	10.279608	1.605457	-2.489789	0.688222	1.384937	0.772924	163.730749	-67.570052	96.726350			
39387	10.711844	1.371797	-2.334197	0.457844	1.726984	1.090606	163.560374	-67.559158	96.863602			
39388	10.892235	1.188884	-2.275816	0.263449	1.870963	1.217436	163.250464	-67.590221	97.127317			
39389	10.886245	1.294153	-2.485910	0.305301	1.649388	1.302669	162.836341	-67.648722	97.502940			
39390	10.807469	1.382278	-2.798090	0.308556	1.303618	1.356316	162.327133	-67.726114	97.974710			
39391	10.822266	1.541183	-2.806885	0.425313	1.257966	1.394978	161.780645	-67.800906	98.513591			
39392	11.050089	1.602571	-2.952309	0.405523	1.180320	1.669082	161.184618	-67.875432	99.153304			
39393	11.553080	1.416122	-3.068443	0.123551	1.264509	2.157270	160.522743	-67.959426	99.922249			
39394	12.270485	1.109409	-2.965676	-0.262403	1.637755	2.750724	159.793930	-68.061945	100.835932			
39395	12.280110	1.061046	-2.951551	-0.370652	1.623848	2.751700	159.045516	-68.184595	101.839112			
39396	11.143897	1.636607	-3.417136	0.147179	0.665939	1.937901	158.417864	-68.322300	102.762523			
39397	9.919511	2.348683	-4.295906	0.765720	-0.707954	1.200042	157.978473	-68.425413	103.452963			
39398	9.170193	3.058321	-5.308363	1.346994	-2.015794	0.945874	157.739911	-68.473965	103.899610			
39399	9.183254	3.778535	-6.111410	1.923910	-2.836641	1.332304	157.723792	-68.411970	104.087563			
39400	9.110235	4.436079	-6.575763	2.511993	-3.346006	1.519121	157.861959	-68.297445	104.095817			
39401	8.587818	4.667720	-6.749402	2.774489	-3.689280	1.131899	158.059872	-68.179024	104.052563			
39402	7.743116	4.488882	-6.522839	2.727538	-3.733638	0.250798	158.251851	-68.074486	104.045245			
39403	7.233831	3.587518	-6.198050	1.949412	-3.489535	-0.451210	158.389158	-67.914314	104.048727			
39404	7.170106	2.526633	-5.630999	0.999097	-2.842622	-0.844764	158.448499	-67.693781	104.079671			
39405	7.292821	1.182048	-5.503087	-0.325914	-2.501944	-0.952646	158.362373	-67.414481	104.152515			
39406	7.674324	0.231543	-5.460551	-1.314745	-2.179244	-0.741383	158.126968	-67.107451	104.229320			
39407	8.380718	-0.753930	-5.539567	-2.402871	-1.831755	-0.202167	157.741064	-66.813673	104.270582			
39408	9.159303	-1.490484	-5.531486	-3.249283	-1.392136	0.395906	157.300915	-66.583537	104.275073			
39409	9.853704	-1.586799	-5.705157	-3.485421	-1.225547	1.073627	156.944897	-66.449557	104.255734			
39410	10.439546	-1.203813	-5.863328	-3.222889	-1.164371	1.722871	156.797171	-66.429460	104.198671			
39411	10.609014	-0.719425	-5.802552	-2.754739	-1.108078	1.931327	156.917803	-66.541999	104.113475			
39412	10.604097	-0.215372	-5.459162	-2.167590	-0.889649	1.883698	157.378356	-66.741747	103.945820			
39413	10.399219	0.377175	-5.043867	-1.435229	-0.700391	1.640503	158.120250	-66.979105	103.669538			
39414	10.128443	0.881006	-4.572613	-0.764799	-0.467124	1.298865	158.970508	-67.216692	103.306474			
39415	9.864098	1.158542	-4.206164	-0.339715	-0.293200	0.963796	159.781352	-67.455982	102.915150			
39416	9.431403	1.222176	-3.832068	-0.122243	-0.145846	0.438813	160.530851	-67.666133	102.495772			
39417	8.668756	1.120165	-3.727437	-0.092328	-0.342439	-0.316905	161.215874	-67.810964	102.062004			
39418	8.308720	1.361561	-3.496565	0.249783	-0.293169	-0.704111	161.865709	-67.881462	101.603107			
39419	8.026064	1.425125	-3.411666	0.383321	-0.324271	-0.990218	162.473138	-67.910323	101.097938			
39420	7.457292	1.201137	-3.488094	0.225494	-0.583245	-1.516324	162.994651	-67.947176	100.597178			
39421	6.763379	1.024532	-3.644858	0.105713	-0.968055	-2.123110	163.486253	-67.977870	100.109863			
39422	6.528969	0.850960	-3.658625	-0.028887	-1.049744	-2.353849	163.965070	-67.982985	99.630625			
39423	6.770032	0.619883	-3.524922	-0.235473	-0.811725	-2.201624	164.377273	-67.974571	99.197565			
39424	6.639200	0.448739	-3.337587	-0.355734	-0.668904	-2.406891	164.742123	-67.998286	98.809885			
39425	6.499449	0.339102	-3.031319	-0.401466	-0.427345	-2.657068	165.107660	-68.023684	98.424262			
39426	6.487265	0.049194	-2.805358	-0.642788	-0.196255	-2.776684	165.494990	-68.054502	98.013221			
39427	6.634521	-0.039348	-2.529585	-0.684953	0.122105	-2.746351	165.945540	-68.066586	97.569905			
39428	6.574979	0.048952	-2.302255	-0.545111	0.303182	-2.874098	166.438870	-68.078484	97.099834			
39429	6.409990	0.120339	-2.188513	-0.431197	0.344072	-3.060822	166.930878	-68.050881	96.646351			
39430	6.309956	0.190487	-2.196561	-0.338361	0.302729	-3.144065	167.396742	-67.946244	96.239053			
39431	6.588730	0.483741	-2.236702	-0.045958	0.362428	-2.847441	167.822134	-67.742360	95.884974			
39432	7.125056	0.488723	-2.472042	-0.075400	0.378464	-2.265023	168.123060	-67.478109	95.619007			
39433	7.677890	0.289303	-2.592506	-0.300138	0.534420	-1.726961	168.269291	-67.210216	95.465714			
39434	8.338175	0.167523	-2.593557	-0.444789	0.837810	-1.130529	168.272986	-66.956421	95.434795			
39435	8.884075	-0.005386	-2.579350	-0.642234	1.115672	-0.651761	168.126798	-66.745373	95.523420			
39436	9.258864	-0.107929	-2.626332	-0.778858	1.258055	-0.302355	167.857440	-66.595388	95.708411			
39437	9.471065	-0.118966	-2.731314	-0.832577	1.265424	-0.072012	167.482226	-66.512435	95.970393			
39438	9.456871	-0.142168	-2.801192	-0.890478	1.204908	-0.063100	167.028646	-66.495726	96.296262			
39439	9.253156	-0.058838	-2.740070	-0.821493	1.168513	-0.268475	166.521954	-66.525984	96.686141			
39440	9.080890	0.121008	-2.608008	-0.650364	1.193010	-0.462149	165.986348	-66.579471	97.128639			
39441	8.961715	0.362049	-2.404447	-0.412114	1.295026	-0.626951	165.433157	-66.637475	97.606361			
39442	8.844794	0.473524	-2.138732	-0.293588	1.466609	-0.824276	164.872929	-66.700424	98.109544			
39443	8.822876	0.445688	-1.859448	-0.315168	1.703352	-0.952751	164.323744	-66.743963	98.610173			
39444	8.841838	0.446663	-1.739805	-0.329682	1.811294	-0.980079	163.840355	-66.753710	99.054183			
39445	8.814188	0.448690	-1.942304	-0.379860	1.612923	-0.929112	163.455259	-66.717774	99.398878			
39446	8.864145	0.544291	-2.258837	-0.352864	1.339788	-0.754427	163.195476	-66.624987	99.609913			
39447	9.180668	0.926658	-2.638102	-0.062391	1.095611	-0.278610	163.088548	-66.474307	99.650122			
39448	9.551883	1.285460	-2.919100	0.222739	0.975228	0.207854	163.133105	-66.297288	99.510862			
39449	9.927958	1.556733	-3.166759	0.435436	0.901586	0.676048	163.310959	-66.127391	99.222724			
39450	10.433924	1.494140	-3.182884	0.355463	1.123982	1.134467	163.638135	-66.011774	98.795959			
39451	10.857403	1.397801	-3.093852	0.277609	1.405041	1.472596	164.091365	-65.964463	98.264245			
39452	11.239641	1.195919	-3.082369	0.100621	1.601530	1.792722	164.647324	-65.965608	97.635677			
39453	11.902457	1.138657	-3.095007	0.060604	1.866452	2.396181	165.272975	-66.002716	96.915134			
39454	12.319253	1.046642	-3.351230	-0.025487	1.803753	2.869411	165.908982	-66.107617	96.136916			
39455	12.465568	0.984092	-3.971262	-0.118032	1.282864	3.243713	166.546269	-66.278319	95.287791			
39456	13.018202	1.297969	-4.246300	0.200081	1.174587	3.890197	167.168695	-66.506117	94.371832			
39457	13.015066	1.282599	-4.289368	0.246547	1.074902	3.906594	167.716560	-66.815388	93.427291			
39458	12.154360	0.987150	-4.249810	0.040666	0.737903	3.079827	168.209800	-67.170719	92.525093			
39459	11.026975	0.080404	-4.405273	-0.815850	0.223892	2.031762	168.596907	-67.477350	91.743180			
39460	10.171249	-1.075435	-4.947704	-2.009532	-0.461544	1.360464	168.892634	-67.662936	91.137152			
39461	10.061690	-1.999438	-5.775018	-3.044820	-1.117925	1.503915	169.163866	-67.679961	90.659428			
39462	9.949171	-2.606015	-6.601798	-3.769184	-1.792278	1.673909	169.491882	-67.531028	90.258244			
39463	9.843504	-2.984647	-7.261537	-4.237378	-2.323252	1.813980	169.780642	-67.251625	89.975604			
39464	9.375657	-2.735077	-7.646994	-4.039415	-2.841418	1.565771	170.017550	-66.990822	89.794620			
39465	8.824588	-2.022188	-7.618078	-3.314843	-3.108322	1.111952	170.216135	-66.834814	89.644095			
39466	8.229097	-1.177348	-7.178957	-2.390777	-3.066532	0.459711	170.447820	-66.810546	89.439071			
39467	7.995029	0.096581	-6.528273	-1.000192	-2.782668	0.076926	170.848084	-66.896765	89.132377			
39468	7.210382	1.228196	-6.100614	0.219930	-2.911444	-0.746795	171.405523	-67.119248	88.796516			
39469	6.341855	2.204605	-6.044040	1.232573	-3.384371	-1.527985	172.042539	-67.358982	88.510794			
39470	6.553413	3.246809	-5.692969	2.371522	-3.161894	-1.429553	172.616395	-67.504317	88.324348			
39471	7.753600	3.633233	-4.993901	2.915202	-2.123463	-0.579586	172.945709	-67.545906	88.270584			
39472	9.054295	2.998166	-4.752905	2.356849	-1.313797	0.496462	172.999725	-67.588872	88.381790			
39473	10.619488	2.806084	-4.345766	2.239764	-0.324929	1.780895	172.798042	-67.667637	88.649763			
39474	11.504986	2.236720	-4.360910	1.648531	0.044999	2.583483	172.172761	-67.890825	89.093978			
39475	11.663547	1.860304	-4.193319	1.236596	0.253293	2.656826	171.179353	-68.165077	89.707952			
39476	11.127276	1.668881	-4.324717	0.936563	-0.095763	2.204687	169.922573	-68.365284	90.455398			
39477	10.151075	1.328849	-4.161730	0.533734	-0.288881	1.221849	168.574788	-68.450431	91.286918			
39478	9.530357	1.195854	-3.923915	0.361065	-0.282694	0.552835	167.392099	-68.363038	92.057523			
39479	9.607713	1.323760	-4.222043	0.352666	-0.538939	0.745288	166.334020	-68.300611	92.794746			
39480	8.876711	1.220340	-4.322708	0.172640	-0.895277	0.093836	165.253741	-68.455798	93.617421			
39481	7.644827	0.979059	-3.982323	-0.031762	-1.030450	-1.198886	164.193193	-68.716283	94.497107			
39482	6.685066	0.747356	-3.819124	-0.247211	-1.226205	-2.179246	163.294101	-68.948962	95.346443			
39483	6.084014	0.802097	-3.653765	-0.173759	-1.329604	-2.797673	162.554798	-69.134376	96.145576			
39484	5.872800	0.792302	-3.374505	-0.142827	-1.168448	-3.095615	161.936622	-69.262363	96.874575			
39485	5.823335	1.048704	-2.979949	0.170623	-0.882571	-3.248921	161.411333	-69.349045	97.532063			
39486	5.935442	1.427267	-2.677337	0.579606	-0.638465	-3.202764	160.954697	-69.388238	98.094406			
39487	6.055899	1.985464	-2.394412	1.159372	-0.433683	-3.118142	160.512911	-69.391865	98.579194			
39488	6.277024	2.406483	-2.207165	1.578448	-0.254791	-2.920133	160.065995	-69.348480	98.981144			
39489	6.602011	2.564996	-2.219117	1.692731	-0.176353	-2.588163	159.619593	-69.270404	99.307928			
39490	6.897652	2.663809	-2.356457	1.722954	-0.212741	-2.248793	159.191483	-69.189048	99.588166			
39491	7.152947	2.516654	-2.447150	1.522992	-0.179187	-1.993795	158.751648	-69.123967	99.836663			
39492	7.187830	2.217748	-2.545866	1.185324	-0.204921	-1.962992	158.309328	-69.064155	100.078392			
39493	7.209233	1.843275	-2.599432	0.785197	-0.176796	-1.971774	157.925359	-68.978262	100.267987			
39494	7.465821	1.533191	-2.566574	0.454330	0.010727	-1.783374	157.642590	-68.831738	100.352513			
39495	7.943328	1.219841	-2.557230	0.105687	0.266827	-1.384077	157.497043	-68.647771	100.299896			
39496	8.541204	1.090607	-2.522832	-0.059701	0.563032	-0.858044	157.460501	-68.461474	100.129943			
39497	9.235414	1.054251	-2.530089	-0.144124	0.838846	-0.216793	157.469341	-68.339693	99.916689			
39498	9.967982	1.244043	-2.341074	0.040080	1.250354	0.425669	157.506526	-68.352722	99.731781			
39499	10.313888	1.523026	-2.262063	0.313839	1.373752	0.762141	157.474433	-68.560137	99.679101			
39500	10.448972	1.719791	-1.840682	0.600530	1.711185	0.781534	157.357493	-68.963853	99.772848			
39501	10.723391	1.785478	-1.756486	0.671304	1.780423	1.033635	157.134901	-69.535901	100.012581			
39502	10.564652	1.823246	-1.954305	0.674225	1.415883	0.971310	156.842273	-70.240247	100.389654			
39503	10.140729	1.960107	-2.156239	0.789952	0.926970	0.667813	156.536832	-70.993115	100.817449			
39504	8.980448	1.953886	-2.361026	0.813989	0.239153	-0.361783	156.237005	-71.724169	101.255063			
39505	8.043613	1.983027	-2.377654	0.902917	-0.174505	-1.243034	155.987455	-72.331811	101.602578			
39506	7.440851	2.162757	-2.211443	1.156885	-0.311557	-1.844096	155.731820	-72.807315	101.888171			
39507	6.966963	2.310718	-1.622595	1.460818	0.014521	-2.438654	155.358220	-73.192939	102.182858			
39508	6.850216	2.321470	-1.003284	1.613376	0.514387	-2.709621	155.003997	-73.470214	102.416060			
39509	6.905162	2.459190	-0.502692	1.854537	0.942591	-2.766145	154.830590	-73.600811	102.481300			
39510	7.284447	2.212276	-0.519468	1.588010	1.072478	-2.426538	154.834580	-73.547168	102.322939			
39511	7.777648	2.110788	-0.590394	1.446626	1.182005	-1.951019	155.082309	-73.267406	101.904171			
39512	8.666992	2.154962	-0.969697	1.354410	1.120020	-1.002940	155.475201	-72.797104	101.305577			
39513	9.511904	2.002578	-1.309246	1.083158	1.158553	-0.133605	155.821977	-72.261956	100.737423			
39514	10.104164	1.556717	-1.427773	0.593272	1.413292	0.395440	156.129548	-71.709645	100.244130			
39515	10.472821	1.262212	-1.411387	0.294339	1.704871	0.688317	156.399241	-71.165504	99.858281			
39516	10.921104	1.091294	-1.819086	0.003866	1.608932	1.195535	156.613093	-70.641293	99.597266			
39517	11.387048	1.120652	-2.422508	-0.147699	1.298474	1.809732	156.733852	-70.168739	99.499617			
39518	12.162734	0.984996	-2.745081	-0.414286	1.381495	2.611362	156.734605	-69.768460	99.587135			
39519	12.895255	0.761066	-2.959801	-0.748666	1.555662	3.326806	156.592301	-69.473287	99.949045			
39520	13.488362	0.728493	-2.843606	-0.823542	1.920668	3.832286	156.306676	-69.295726	100.554571			
39521	13.143009	1.179783	-2.766099	-0.392255	1.798631	3.543686	155.866849	-69.237897	101.379809			
39522	11.561213	1.996657	-3.168724	0.372809	0.723179	2.312782	155.439761	-69.210548	102.194166			
39523	10.386479	2.928620	-3.921387	1.166921	-0.537379	1.597066	155.193375	-69.095805	102.748328			
39524	9.980748	3.805315	-5.078203	1.780781	-1.869566	1.729293	155.094667	-68.920277	103.064029			
39525	9.865275	4.613141	-6.182579	2.329917	-3.022884	2.114694	155.120733	-68.694671	103.198782			
39526	10.116870	5.627213	-6.539510	3.218129	-3.380872	2.637002	155.225521	-68.428403	103.191894			
39527	9.812024	6.050836	-6.884967	3.582015	-3.820482	2.551132	155.294913	-68.200499	103.228484			
39528	9.406658	5.888528	-6.725587	3.489904	-3.740074	2.113153	155.303758	-67.967256	103.283088			
39529	8.761250	4.580036	-6.568434	2.291389	-3.564662	1.274380	155.163757	-67.723987	103.395393			
39530	7.983195	3.084452	-6.232349	0.951417	-3.247624	0.219006	154.981831	-67.413853	103.488682			
39531	7.391128	1.779434	-6.087951	-0.269783	-3.062588	-0.571173	154.684482	-67.005628	103.557581			
39532	7.218443	0.442413	-6.145495	-1.617429	-2.885010	-0.917260	154.256684	-66.542237	103.589593			
39533	7.544336	-1.036593	-6.191800	-3.157918	-2.459632	-0.851291	153.718495	-66.092027	103.569526			
39534	8.813841	-2.364833	-5.525277	-4.470103	-1.021525	-0.180532	153.184973	-65.710595	103.460408			
39535	8.742212	-2.878734	-4.705662	-4.811320	-0.119988	-0.664331	152.561633	-65.395252	103.384431			
39536	8.978895	-3.075884	-4.664186	-5.041795	0.143417	-0.517778	152.602048	-65.139694	102.812616			
39537	6.523589	-1.086286	-6.952120	-3.479115	-3.268958	-1.489348	153.629476	-64.953050	102.576523			
39538	14.525685	2.849924	-5.770123	-0.008260	0.395483	6.069734	155.101686	-64.449518	101.328315			
39539	11.935992	-0.334902	-9.121186	-3.557199	-3.129304	4.446285	155.521849	-65.633919	101.865109			
39540	10.113651	4.007260	-4.520793	2.028306	-0.720214	1.769503	156.906894	-66.060153	101.212928			
39541	12.044144	1.230721	-5.838788	-0.970488	-0.711950	3.574491	158.315436	-66.423013	100.312871			
39542	9.839531	1.973788	-3.080797	0.612305	0.701118	0.643667	159.277363	-67.139842	99.833962			
39543	6.636530	1.450121	-1.857553	0.613974	0.581539	-2.821173	159.492463	-67.726338	99.556267			
39544	6.010863	0.747714	-2.637533	-0.171546	-0.277406	-3.214224	159.897813	-67.641265	98.987818			
39545	7.279693	1.689549	-3.729127	0.468485	-0.926219	-1.525507	160.389073	-67.381841	98.466124			
39546	7.220871	2.306554	-3.993036	1.031150	-1.269754	-1.402577	160.482691	-67.334818	98.195367			
39547	6.453427	1.808455	-3.825962	0.611811	-1.329114	-2.235464	160.261755	-67.379652	98.021923			
39548	6.621003	1.158332	-3.621566	-0.006370	-0.972502	-2.239753	160.041960	-67.400766	97.792576			
39549	6.814469	0.975039	-3.190280	-0.114001	-0.476056	-2.241298	159.911350	-67.397816	97.483712			
39550	6.878880	0.875769	-3.120912	-0.204971	-0.365558	-2.219902	159.906566	-67.347219	97.060870			
39551	7.228884	0.930660	-3.172477	-0.179702	-0.276611	-1.870479	160.070683	-67.240760	96.524818			
39552	7.702179	0.753840	-3.314582	-0.397291	-0.172784	-1.404919	160.319688	-67.193947	96.015205			
39553	7.831522	0.230197	-3.486249	-0.936025	-0.168306	-1.290062	160.630772	-67.308569	95.583698			
39554	7.795925	-0.013826	-3.516643	-1.154934	-0.181836	-1.340597	161.064330	-67.569642	95.171866			
39555	7.803944	-0.191216	-3.371376	-1.260396	-0.050408	-1.403593	161.612173	-67.886456	94.713888			
39556	7.688905	-0.618651	-3.156753	-1.585264	0.148056	-1.631499	162.185361	-68.187906	94.209628			
39557	7.329397	-0.874408	-2.856673	-1.720130	0.305277	-2.093035	162.725281	-68.423888	93.703056			
39558	6.807476	-0.889035	-2.709803	-1.660332	0.225300	-2.624669	163.216366	-68.594711	93.217159			
39559	6.996528	-0.873549	-2.511447	-1.578976	0.460250	-2.510851	163.674444	-68.628870	92.734805			
39560	7.218667	-0.679347	-2.349604	-1.336908	0.648301	-2.337150	163.993614	-68.593439	92.374953			
39561	7.235697	-0.643037	-2.391790	-1.299623	0.618627	-2.301514	164.189502	-68.495816	92.180739			
39562	7.844516	-0.140055	-2.265664	-0.785307	0.862340	-1.730057	164.197829	-68.368314	92.180885			
39563	8.251335	-0.100473	-2.067317	-0.714506	1.196773	-1.420691	163.834668	-68.306273	92.419833			
39564	8.430366	-0.206663	-1.642836	-0.742494	1.676642	-1.419227	163.172562	-68.277824	92.845076			
39565	8.726885	-0.149325	-1.442501	-0.677373	1.961368	-1.212938	162.367950	-68.219940	93.374685			
39566	8.922660	-0.049797	-1.807174	-0.717055	1.694946	-0.896688	161.545392	-68.114399	93.958396			
39567	8.774654	-0.013071	-2.224040	-0.828148	1.272602	-0.888812	160.758361	-67.994153	94.593595			
39568	9.356532	0.178805	-2.314712	-0.725994	1.384167	-0.299991	160.150987	-67.837797	95.134928			
39569	9.756988	0.316078	-2.214759	-0.618984	1.611330	0.047547	159.626340	-67.737553	95.650629			
39570	9.762339	0.436925	-2.052013	-0.492517	1.739849	0.007456	159.240471	-67.702873	96.097995			
39571	9.319938	0.793964	-2.112837	-0.171377	1.438145	-0.333340	158.938805	-67.695409	96.508356			
39572	9.325483	1.325456	-2.003162	0.349221	1.416513	-0.293988	158.687979	-67.715918	96.871174			
39573	9.663730	1.382398	-2.165619	0.334514	1.391603	0.083783	158.634650	-67.613711	96.953807			
39574	9.745844	0.836838	-2.834315	-0.367901	0.962759	0.319085	158.782893	-67.485437	96.856747			
39575	10.127327	0.545106	-3.126047	-0.723284	0.936734	0.733938	159.290841	-67.337758	96.510543			
39576	9.859468	1.225619	-2.602047	0.111463	1.182897	0.388787	159.886252	-67.229426	96.145557			
39577	9.821291	1.039375	-2.430819	0.008057	1.381689	0.263905	160.397620	-67.162482	95.804300			
39578	10.841989	0.899264	-1.904193	-0.010033	2.280579	0.993892	160.769524	-67.233206	95.519632			
39579	10.890431	0.543831	-1.578623	-0.254226	2.636552	0.881844	160.960979	-67.510482	95.332447			
39580	10.767153	0.374859	-1.146143	-0.286965	2.960226	0.605571	161.132150	-67.843253	95.052435			
39581	10.710417	0.626030	-1.487555	-0.097867	2.521474	0.720595	161.422232	-68.142564	94.629355			
39582	10.673500	1.198053	-2.343658	0.280532	1.562203	1.065374	161.844679	-68.377927	94.084148			
39583	11.142449	1.704388	-3.239958	0.576025	0.775032	1.875927	162.350147	-68.543999	93.466394			
39584	11.857050	1.743893	-3.902889	0.479175	0.398844	2.775974	162.943813	-68.668779	92.828078			
39585	12.354197	1.521952	-4.308245	0.208597	0.238540	3.355560	163.635524	-68.783734	92.193723			
39586	12.603638	1.276502	-4.270989	0.036846	0.395423	3.550113	164.366792	-68.882083	91.569140			
39587	12.236624	0.592353	-4.812683	-0.695841	-0.094297	3.330918	165.052420	-68.973909	91.045699			
39588	11.936647	-0.198755	-5.678853	-1.615845	-0.830120	3.282048	165.657222	-69.031693	90.672668			
39589	11.810100	-1.196425	-6.151456	-2.649570	-1.099920	3.245648	166.112971	-69.042255	90.468730			
39590	12.001789	-2.163003	-6.577167	-3.656046	-1.213324	3.496774	166.369683	-68.977327	90.403453			
39591	10.979936	-2.221312	-7.040287	-3.797765	-1.987376	2.704747	166.442940	-68.931173	90.523285			
39592	10.149650	-1.556730	-6.943046	-3.122897	-2.340749	1.952222	166.307938	-68.934297	90.733028			
39593	9.579359	-1.173949	-7.346046	-2.845607	-2.998455	1.589875	166.148494	-68.959566	90.930527			
39594	9.105950	-0.278030	-7.287448	-1.961962	-3.319560	1.197929	166.065194	-69.099977	91.070234			
39595	7.986156	0.942858	-6.760559	-0.647352	-3.542746	0.056568	165.947840	-69.520684	91.274742			
39596	7.048434	1.741855	-6.250568	0.257235	-3.646955	-0.957353	165.925006	-70.055060	91.436544			
39597	6.020536	2.676278	-5.807769	1.294600	-3.847958	-2.024468	166.175799	-70.467608	91.446029			
39598	5.701759	3.554872	-5.397385	2.282871	-3.777094	-2.409933	166.749422	-70.570282	91.269017			
39599	6.679354	3.823725	-5.206120	2.628824	-3.303168	-1.535231	167.413669	-70.357697	90.989692			
39600	8.170352	3.592875	-5.205451	2.435995	-2.701587	-0.141750	167.866251	-70.009172	90.717225			
39601	9.506502	3.231709	-4.420256	2.250343	-1.403813	0.832563	167.951125	-69.808474	90.588667			
39602	10.074340	2.750049	-3.005708	2.049925	0.192414	0.857369	167.623386	-69.859957	90.713494			
39603	9.540510	2.056496	-2.111848	1.529247	0.936352	0.010493	167.054706	-70.032541	91.074917			
39604	9.197142	1.996300	-2.209162	1.421393	0.719597	-0.277765	166.454949	-70.051802	91.469482			
39605	9.245046	1.940209	-2.875197	1.189264	0.138704	-0.011244	165.749273	-69.913101	91.843705			
39606	9.154600	1.313547	-3.418525	0.413036	-0.248025	0.035462	164.874979	-69.775925	92.308981			
39607	8.360367	0.908487	-3.514533	-0.045801	-0.513862	-0.712873	163.955594	-69.720107	92.907815			
39608	7.490140	0.672517	-3.732611	-0.361179	-0.960759	-1.480031	163.053754	-69.698103	93.583069			
39609	7.048992	0.597964	-3.953138	-0.521105	-1.294630	-1.829870	162.226123	-69.631830	94.292387			
39610	6.863309	0.616770	-4.075752	-0.566812	-1.468272	-1.962850	161.448462	-69.558990	95.046441			
39611	6.926505	0.727909	-4.026548	-0.484078	-1.420804	-1.909125	160.722809	-69.515661	95.833369			
39612	7.094400	0.876108	-3.719020	-0.301930	-1.111867	-1.837619	160.133505	-69.482283	96.578010			
39613	7.314876	1.238282	-3.469461	0.078076	-0.879886	-1.670355	159.710497	-69.434472	97.198791			
39614	7.299970	1.354019	-3.326330	0.207532	-0.775257	-1.716806	159.343325	-69.416505	97.732612			
39615	7.269882	1.371513	-3.202210	0.238635	-0.677208	-1.783317	158.965055	-69.432674	98.237227			
39616	7.238278	1.677168	-3.066418	0.551404	-0.629422	-1.818425	158.558334	-69.458499	98.740267			
39617	7.274436	1.816630	-3.136767	0.650782	-0.712812	-1.742667	158.156156	-69.463034	99.198147			
39618	7.411773	1.953947	-2.970909	0.795469	-0.541552	-1.648589	157.760889	-69.447177	99.625194			
39619	7.436197	1.721412	-2.883496	0.569283	-0.407028	-1.683416	157.396751	-69.420580	100.021239			
39620	7.751033	1.679260	-2.602931	0.557186	-0.028295	-1.484278	157.157551	-69.360351	100.315673			
39621	8.095117	1.528845	-2.448347	0.412771	0.269930	-1.232511	157.007512	-69.293885	100.510423			
39622	8.482187	1.592881	-2.283637	0.480232	0.551237	-0.915201	156.961138	-69.247980	100.622798			
39623	8.429062	1.789646	-2.183242	0.694683	0.592424	-0.970464	156.955457	-69.237812	100.710728			
39624	8.707145	2.124768	-2.090974	1.023849	0.713129	-0.694334	157.033004	-69.235237	100.706037			
39625	8.915276	2.279430	-2.097904	1.164795	0.750216	-0.476758	157.173121	-69.269721	100.635342			
39626	9.276005	2.748722	-1.882062	1.657253	0.978245	-0.146333	157.396898	-69.383312	100.526773			
39627	9.309425	2.931347	-1.909525	1.842846	0.908417	-0.082165	157.597190	-69.600406	100.420051			
39628	9.170941	2.967485	-1.967960	1.892649	0.764824	-0.188875	157.825116	-69.870240	100.287012			
39629	8.901071	2.923598	-2.078031	1.863095	0.541176	-0.414254	158.071739	-70.134176	100.116515			
39630	8.538878	2.629676	-2.208180	1.590189	0.317345	-0.753209	158.314858	-70.369357	99.909603			
39631	8.359672	2.339129	-2.197180	1.338093	0.291336	-0.963519	158.570268	-70.554467	99.643414			
39632	8.072762	2.065210	-2.206228	1.102224	0.214998	-1.266294	158.826561	-70.703713	99.317897			
39633	8.002801	2.038425	-2.048958	1.131110	0.326441	-1.385813	159.164803	-70.786285	98.880695			
39634	8.016615	2.055157	-1.846822	1.207921	0.501272	-1.434732	159.440201	-70.888390	98.475151			
39635	8.409693	1.988718	-1.781440	1.155868	0.685585	-1.092288	159.728054	-70.990170	98.029112			
39636	8.600284	1.705507	-1.680413	0.913018	0.880119	-0.975880	160.061552	-71.076823	97.548680			
39637	8.798864	1.481675	-1.756567	0.691746	0.907101	-0.790520	160.468265	-71.130612	97.055265			
39638	9.095292	1.250148	-1.912978	0.442998	0.900183	-0.488521	160.890987	-71.136818	96.587730			
39639	9.113361	0.800754	-2.246215	-0.047927	0.695965	-0.418363	161.298792	-71.050254	96.178877			
39640	9.502781	0.612830	-2.398691	-0.258708	0.746030	-0.024507	161.719851	-70.831948	95.787459			
39641	10.035829	0.488470	-2.373264	-0.374576	1.014227	0.454719	162.066505	-70.551571	95.468863			
39642	10.328918	0.510734	-2.223868	-0.318442	1.292729	0.681133	162.226890	-70.314631	95.304092			
39643	10.512373	0.564309	-2.128207	-0.250399	1.467610	0.824091	162.177865	-70.165710	95.333444			
39644	10.749893	0.780277	-1.901594	-0.006162	1.732814	0.993903	162.000913	-70.099315	95.509546			
39645	10.622908	1.350085	-1.959455	0.524848	1.528989	0.952770	161.745963	-70.101574	95.833924			
39646	9.902437	1.919385	-2.398899	0.987889	0.768760	0.479546	161.442659	-70.102730	96.319697			
39647	10.468044	2.259432	-2.675387	1.218900	0.651198	1.138698	161.256506	-70.012340	96.757959			
39648	10.936778	2.011572	-3.033720	0.863704	0.547120	1.668497	161.061284	-69.929831	97.254951			
39649	11.173084	2.029178	-3.223291	0.810835	0.467004	1.954614	160.815603	-69.868062	97.840134			
39650	11.387708	2.291774	-3.374759	1.002512	0.366560	2.236448	160.494693	-69.833206	98.498130			
39651	11.396821	2.929150	-3.722745	1.529579	-0.052262	2.434103	160.123628	-69.820616	99.155142			
39652	11.088113	3.930106	-4.442746	2.360619	-0.984372	2.499438	159.746340	-69.822588	99.715474			
39653	11.071288	4.847222	-5.250898	3.080243	-1.879662	2.860900	159.433100	-69.763805	100.061717			
39654	11.660714	5.692262	-5.883605	3.724177	-2.383217	3.731373	159.198560	-69.618917	100.190357			
39655	11.722966	6.360071	-6.323183	4.258304	-2.852470	4.028960	159.026485	-69.443376	100.152130			
39656	11.222547	6.822292	-6.287526	4.717651	-3.046494	3.621772	158.932130	-69.250487	99.967656			
39657	9.832645	4.691665	-7.043752	2.525589	-3.858800	2.313231	158.630382	-69.164749	99.840053			
39658	9.026140	4.535693	-6.224880	2.551179	-3.358116	1.278177	158.448834	-69.035043	99.714104			
39659	8.178018	3.369137	-6.213098	1.426737	-3.426747	0.338927	158.107639	-68.918157	99.639629			
39660	7.577404	2.318209	-6.076468	0.424198	-3.304652	-0.399201	157.841852	-68.766119	99.451520			
39661	7.134449	0.951800	-5.928393	-0.891801	-3.041287	-1.043017	157.505790	-68.665931	99.150613			
39662	6.787478	-0.703227	-5.785076	-2.495460	-2.670595	-1.647410	157.107213	-68.667521	98.753543			
39663	6.691066	-1.759387	-5.506712	-3.493332	-2.192851	-1.991089	156.647108	-68.803024	98.348649			
39664	7.101759	-2.316770	-5.659715	-4.136965	-2.027591	-1.651254	156.357731	-69.006375	97.839779			
39665	7.915624	-1.929882	-5.534581	-3.794462	-1.701973	-0.884168	156.462904	-69.205275	97.102561			
39666	8.968219	-1.087608	-5.462542	-3.006435	-1.480932	0.198273	156.991629	-69.404166	96.179665			
39667	9.483250	-0.194218	-5.269726	-2.077166	-1.383727	0.747148	157.820760	-69.644959	95.200990			
39668	9.549323	0.333589	-4.772277	-1.365540	-1.088761	0.724145	158.914628	-69.873927	94.110391			
39669	9.710173	0.948969	-3.949583	-0.460491	-0.488559	0.691398	160.225628	-70.027791	92.916159			
39670	9.555282	1.722116	-3.900203	0.381697	-0.723729	0.618542	161.611842	-70.119983	91.678432			
39671	9.310713	2.478251	-3.965997	1.171491	-1.075963	0.484382	162.903405	-70.125237	90.403712			
39672	9.181805	2.746030	-4.222581	1.422677	-1.421262	0.465062	163.974434	-70.058062	89.118400			
39673	9.031830	2.765077	-4.583964	1.380726	-1.799422	0.438552	164.756082	-69.976817	87.877797			
39674	8.489463	2.525644	-5.069490	1.015652	-2.355388	0.065075	165.182972	-69.934939	86.765336			
39675	7.947180	2.294332	-5.196907	0.731172	-2.592585	-0.422623	165.414829	-69.895086	85.679790			
39676	7.605205	2.124809	-5.153716	0.544257	-2.625647	-0.772533	165.550391	-69.878531	84.583962			
39677	6.981125	1.716538	-4.962978	0.163532	-2.544310	-1.457248	165.645118	-69.884291	83.435793			
39678	6.646769	1.174860	-4.684669	-0.298271	-2.228337	-1.910068	165.786846	-69.867074	82.195673			
39679	6.572210	0.740042	-4.290758	-0.591168	-1.744506	-2.147221	165.993297	-69.839181	80.897630			
39680	6.620368	0.533567	-3.924371	-0.654917	-1.321563	-2.240422	166.325207	-69.815392	79.523968			
39681	6.750079	0.316595	-3.661285	-0.743482	-0.955224	-2.222985	166.763119	-69.800611	78.107787			
39682	6.713085	0.247958	-3.368301	-0.679169	-0.683430	-2.359898	167.333456	-69.803943	76.627730			
39683	6.832974	0.276475	-3.265903	-0.582579	-0.565481	-2.277909	168.027382	-69.797865	75.088069			
39684	6.711475	0.438675	-3.369062	-0.471066	-0.763222	-2.343922	168.795947	-69.790827	73.518520			
39685	6.344401	0.593577	-3.534500	-0.423026	-1.091596	-2.620617	169.582973	-69.742076	71.942522			
39686	6.105706	0.744324	-3.708985	-0.378891	-1.376550	-2.773387	170.321048	-69.594529	70.378170			
39687	6.213137	0.829560	-3.945828	-0.388044	-1.553428	-2.581021	170.969562	-69.309897	68.855350			
39688	6.629228	0.920502	-4.233885	-0.380656	-1.656436	-2.077643	171.465710	-68.941466	67.418987			
39689	7.097895	0.919020	-4.519742	-0.448613	-1.678377	-1.528103	171.760076	-68.549578	66.094961			
39690	7.414936	0.750184	-4.574630	-0.569354	-1.469410	-1.211080	171.876186	-68.160518	64.868073			
39691	7.694919	0.519983	-4.721217	-0.795692	-1.296729	-0.898823	171.815114	-67.768603	63.742955			
39692	8.091434	0.665174	-4.680682	-0.590583	-1.138521	-0.529527	171.663202	-67.366999	62.674677			
39693	8.337105	0.805426	-4.672567	-0.432981	-1.053774	-0.289530	171.413522	-66.972361	61.650134			
39694	8.474620	0.944065	-4.688127	-0.313414	-1.026506	-0.141256	171.102996	-66.602268	60.650198			
39695	8.406538	0.977622	-4.756473	-0.354779	-1.049084	-0.167854	170.718884	-66.277718	59.696327			
39696	8.305937	0.958180	-4.713983	-0.386804	-0.974992	-0.271844	170.261180	-65.986437	58.778501			
39697	8.239424	0.987144	-4.741520	-0.420999	-0.967443	-0.313691	169.757828	-65.692702	57.884430			
39698	8.214810	0.980811	-4.826769	-0.509883	-0.956740	-0.296021	169.247459	-65.380090	56.996546			
39699	8.025858	0.998037	-5.130930	-0.761202	-1.153286	-0.334986	168.750138	-65.060399	56.102915			
39700	8.089058	0.861594	-5.299516	-0.980089	-1.058229	-0.211700	168.261906	-64.736688	55.153249			
39701	7.964747	0.789401	-5.371027	-1.130433	-1.003543	-0.293099	167.812088	-64.400959	54.114759			
39702	8.267629	0.669133	-5.321470	-1.111090	-0.684035	-0.044566	167.432067	-63.998757	52.940722			
39703	8.717757	0.725705	-5.389112	-0.995341	-0.504692	0.401135	167.122698	-63.566925	51.647482			
39704	9.060366	1.028007	-5.349778	-0.662094	-0.497589	0.726786	166.894202	-63.152113	50.244079			
39705	9.485194	1.054913	-5.387781	-0.526381	-0.304891	1.129857	166.723714	-62.759211	48.751019			
39706	9.718425	1.017443	-5.565607	-0.578598	-0.206387	1.415894	166.642057	-62.404996	47.177046			
39707	9.778555	0.900470	-5.927215	-0.863607	-0.190792	1.623227	166.637784	-62.088351	45.545981			
39708	9.623510	0.692685	-6.294324	-1.273081	-0.165802	1.635523	166.688249	-61.816394	43.852069			
39709	9.247772	0.505616	-6.480362	-1.609134	-0.137810	1.374948	166.750515	-61.580169	42.130004			
39710	8.850253	0.306245	-6.478279	-1.814761	-0.017053	1.008339	166.793193	-61.360770	40.390929			
39711	8.469337	0.157606	-6.314707	-1.860066	0.137117	0.586867	166.786335	-61.136715	38.655632			
39712	8.264825	0.050661	-6.152644	-1.817917	0.311098	0.324502	166.727746	-60.912858	36.926042			
39713	8.097740	0.121217	-6.050978	-1.732506	0.317918	0.142163	166.610506	-60.681746	35.223034			
39714	8.040313	0.529761	-6.152356	-1.647391	-0.013786	0.190512	166.425427	-60.453609	33.540784			
39715	8.032815	1.069384	-6.410297	-1.652820	-0.491967	0.374904	166.169206	-60.222320	31.895815			
39716	8.222625	1.738301	-6.786605	-1.666394	-1.060372	0.807536	165.874733	-59.981671	30.270563			
39717	8.639459	2.202732	-7.209458	-1.718547	-1.379388	1.439489	165.551285	-59.747849	28.665281			
39718	8.912107	2.324007	-7.611054	-1.930751	-1.393755	1.895573	165.242111	-59.551236	27.040365			
39719	8.835394	2.249653	-7.907705	-2.262609	-1.274239	1.973439	165.007249	-59.394219	25.365397			
39720	8.308597	2.134658	-7.962983	-2.598271	-1.176971	1.539027	164.896290	-59.261175	23.605456			
39721	7.752295	1.963256	-7.669319	-2.649798	-0.993541	0.899993	164.861993	-59.118159	21.765100			
39722	7.432435	1.650605	-7.166600	-2.415484	-0.620117	0.341422	164.852217	-58.958648	19.858524			
39723	7.003262	1.217335	-6.854053	-2.389030	-0.165239	-0.233017	164.836362	-58.770298	17.908494			
39724	6.552870	0.976512	-6.512927	-2.306282	0.094432	-0.813618	164.820104	-58.549558	15.940834			
39725	6.329866	1.027875	-6.142456	-2.056779	0.089740	-1.174726	164.791134	-58.281608	13.988706			
39726	6.729990	1.357866	-5.885956	-1.587179	-0.125230	-0.910680	164.744567	-58.001715	12.078611			
39727	7.194120	1.794035	-5.737851	-1.200823	-0.456493	-0.525803	164.625581	-57.799171	10.296456			
39728	7.375739	2.340215	-5.625394	-1.041035	-0.939110	-0.349218	164.429072	-57.751142	8.672674			
39729	7.477379	2.693172	-5.223550	-0.713288	-1.288571	-0.416930	164.147571	-57.809743	7.195382			
39730	7.336225	2.928375	-4.900260	-0.597738	-1.541219	-0.665283	163.839180	-57.899459	5.819511			
39731	7.063085	2.954282	-4.788340	-0.708795	-1.558058	-0.946302	163.483060	-57.945051	4.542069			
39732	6.959410	2.855177	-5.118756	-1.063890	-1.338485	-0.876062	163.091726	-57.887561	3.299621			
39733	7.018173	2.858436	-5.593856	-1.444471	-1.154390	-0.577048	162.684695	-57.724095	2.039123			
39734	7.449359	2.802221	-5.893007	-1.442131	-0.930989	-0.059441	162.233582	-57.456520	0.717295			
39735	8.451146	2.658956	-5.920317	-0.864444	-0.697795	0.784827	161.728056	-57.153859	-0.626912			
39736	8.966861	2.490683	-5.984862	-0.558453	-0.445581	1.228859	161.180076	-56.940053	-1.927215			
39737	9.421671	2.411950	-5.954764	-0.238037	-0.320629	1.584012	160.627800	-56.798394	-3.174656			
39738	9.607354	2.198907	-5.906208	-0.011078	-0.089654	1.676932	160.169905	-56.729145	-4.409683			
39739	9.428135	2.221990	-5.902786	-0.103530	-0.062429	1.529937	159.874037	-56.697550	-5.658880			
39740	9.211712	2.260832	-6.021395	-0.319987	-0.008393	1.417704	159.741620	-56.689464	-6.962169			
39741	9.206189	2.188468	-6.214627	-0.437378	0.160654	1.498713	159.704410	-56.739216	-8.288020			
39742	9.111270	2.100484	-6.059780	-0.354798	0.189825	1.322222	159.696373	-56.894820	-9.596282			
39743	8.776479	2.326349	-5.722566	-0.432580	-0.119488	0.910399	159.671346	-57.171383	-10.832111			
39744	8.412407	2.677811	-5.109982	-0.418739	-0.661712	0.357732	159.589577	-57.523712	-12.004728			
39745	8.198806	2.990913	-4.540032	-0.364097	-1.159408	-0.050501	159.405247	-57.928393	-13.103590			
39746	7.931380	3.342013	-3.962091	-0.373429	-1.681030	-0.495626	159.104196	-58.365445	-14.135481			
39747	7.638932	3.531364	-3.521152	-0.419464	-1.983952	-0.918353	158.671554	-58.777557	-15.106788			
39748	7.402932	3.698238	-3.216350	-0.519061	-2.196147	-1.225972	158.141726	-59.125358	-16.058569			
39749	7.345103	3.652630	-3.330889	-0.683212	-2.013932	-1.218307	157.513519	-59.402856	-16.991221			
39750	7.241901	3.298270	-3.562011	-0.744462	-1.504161	-1.257332	156.838448	-59.642786	-17.915700			
39751	7.129778	2.934164	-3.852953	-0.810943	-0.946881	-1.284297	156.163934	-59.858542	-18.823795			
39752	7.090788	2.615619	-3.974480	-0.737859	-0.548351	-1.323187	155.553911	-60.051199	-19.750271			
39753	6.944986	2.560220	-3.941442	-0.774676	-0.437757	-1.474198	155.045703	-60.228652	-20.712775			
39754	6.838503	2.630813	-3.889947	-0.862570	-0.447956	-1.574178	154.701307	-60.374790	-21.775208			
39755	7.102679	2.553591	-4.140924	-0.851016	-0.224898	-1.248741	154.537210	-60.490528	-22.964818			
39756	7.425505	2.455623	-4.510984	-0.858052	0.071930	-0.825159	154.539442	-60.607832	-24.254837			
39757	7.958495	2.479121	-4.718097	-0.766899	0.117923	-0.265854	154.683070	-60.738706	-25.613806			
39758	8.659099	2.491029	-5.022891	-0.654885	0.194227	0.480415	154.938938	-60.907242	-27.022814			
39759	9.150155	2.479182	-5.195935	-0.563220	0.229940	0.980789	155.218363	-61.159358	-28.403095			
39760	9.232730	2.528312	-5.120642	-0.584385	0.139481	1.026838	155.483294	-61.491547	-29.739592			
39761	8.992885	2.612378	-5.030923	-0.769743	0.102852	0.789348	155.728569	-61.853675	-31.047914			
39762	8.769877	2.821689	-4.968009	-1.058727	0.015967	0.600390	155.990364	-62.192926	-32.367252			
39763	8.439552	3.113160	-4.981194	-1.485814	-0.022906	0.361866	156.234658	-62.490320	-33.672107			
39764	8.207404	3.336408	-4.878241	-1.762246	-0.126688	0.145644	156.440620	-62.772198	-34.938155			
39765	7.984543	3.427894	-4.654841	-1.872773	-0.244357	-0.137798	156.560358	-63.055999	-36.110084			
39766	7.859353	3.429458	-4.476892	-1.890859	-0.298932	-0.330703	156.629147	-63.327356	-37.209602			
39767	7.948273	3.318912	-4.353590	-1.757026	-0.309230	-0.327920	156.636670	-63.579203	-38.228956			
39768	8.141334	3.196056	-4.162108	-1.546540	-0.404044	-0.259475	156.620276	-63.810917	-39.212103			
39769	8.209247	2.920948	-4.094995	-1.295315	-0.294300	-0.277074	156.571130	-64.030962	-40.153617			
39770	8.167801	2.651704	-4.030877	-1.081160	-0.165274	-0.389521	156.553354	-64.226684	-41.118323			
39771	8.096976	2.462995	-4.129332	-0.998519	0.062454	-0.449052	156.556071	-64.404002	-42.089579			
39772	7.936682	2.301452	-4.235090	-0.962845	0.302915	-0.582051	156.607248	-64.561895	-43.090961			
39773	7.845676	2.151658	-4.307635	-0.896946	0.483655	-0.663836	156.706382	-64.703076	-44.110481			
39774	7.732700	1.987223	-4.382435	-0.821447	0.670374	-0.766958	156.896476	-64.829832	-45.165770			
39775	7.672743	1.981119	-4.383881	-0.848096	0.707463	-0.824115	157.163281	-64.942661	-46.232877			
39776	7.682788	1.941639	-4.339472	-0.813078	0.690180	-0.841136	157.517963	-65.046134	-47.332045			
39777	7.772808	2.016118	-4.131569	-0.817930	0.459149	-0.830970	157.919295	-65.158492	-48.422602			
39778	7.871259	1.961249	-3.898131	-0.704810	0.246952	-0.843808	158.384651	-65.283043	-49.527378			
39779	8.052707	1.922473	-3.755311	-0.616861	0.079533	-0.743102	158.890425	-65.416376	-50.631543			
39780	8.103958	1.915907	-3.754761	-0.636407	0.066113	-0.700413	159.422548	-65.550665	-51.736769			
39781	8.288518	1.885001	-3.791434	-0.609215	0.050244	-0.525388	159.949901	-65.675273	-52.814187			
39782	8.359204	2.070907	-3.878156	-0.826420	0.044921	-0.404185	160.488445	-65.776851	-53.878777			
39783	8.463985	2.064052	-4.037351	-0.869221	0.153429	-0.251288	161.018193	-65.853966	-54.922345			
39784	8.611810	2.214938	-4.179730	-1.045072	0.181791	-0.044677	161.574681	-65.903228	-55.971776			
39785	8.778141	2.323310	-4.246018	-1.158258	0.146648	0.143167	162.126000	-65.919896	-57.001008			
39786	8.913008	2.441968	-4.287117	-1.281422	0.093992	0.293416	162.646712	-65.908052	-57.997705			
39787	8.994727	2.348004	-4.293293	-1.202002	0.087435	0.355797	163.087137	-65.881572	-58.923450			
39788	9.076794	2.171496	-4.290106	-1.036746	0.093086	0.406171	163.448581	-65.846923	-59.779328			
39789	9.243454	2.031498	-4.204550	-0.867812	-0.014433	0.506873	163.715987	-65.814275	-60.545832			
39790	9.372585	1.750724	-4.047782	-0.555908	-0.137216	0.529801	163.897824	-65.801490	-61.236323			
39791	9.420853	1.446944	-3.924784	-0.241427	-0.192537	0.490452	163.973324	-65.819610	-61.837854			
39792	9.269286	1.188974	-3.899226	-0.024382	-0.097693	0.312881	164.001730	-65.857215	-62.392793			
39793	9.051018	0.894274	-4.036728	0.194145	0.175562	0.134539	164.007081	-65.885365	-62.928086			
39794	8.843483	0.698335	-4.090498	0.336666	0.341190	-0.055778	164.045363	-65.896093	-63.483347			
39795	8.760314	0.549614	-3.947433	0.486325	0.269520	-0.204449	164.091367	-65.912189	-64.029668			
39796	8.548172	0.364229	-3.659278	0.663822	0.119110	-0.531557	164.184152	-65.959211	-64.584488			
39797	8.237561	0.369324	-3.364392	0.632317	-0.036411	-0.929458	164.353744	-66.024383	-65.158681			
39798	7.971472	0.426310	-3.102738	0.545895	-0.188623	-1.267544	164.647022	-66.088239	-65.798668			
39799	7.771075	0.373884	-2.847839	0.570656	-0.340667	-1.554491	165.034813	-66.155972	-66.497836			
39800	7.653058	0.202685	-2.703381	0.707467	-0.406347	-1.734758	165.519678	-66.203800	-67.253787			
39801	7.732993	0.157062	-2.622827	0.743215	-0.513492	-1.695612	166.051643	-66.210227	-68.040140			
39802	7.922962	0.085315	-2.837373	0.788581	-0.395712	-1.442936	166.591730	-66.166940	-68.849623			
39803	8.208711	-0.009568	-3.074548	0.871239	-0.297266	-1.095559	167.095817	-66.076733	-69.642401			
39804	8.570132	-0.205842	-3.557033	1.042851	-0.001518	-0.590199	167.604319	-65.907287	-70.449210			
39805	9.262282	-0.320688	-3.966862	1.191240	0.068203	0.197537	168.120971	-65.625986	-71.269601			
39806	10.191409	-0.387950	-4.293283	1.332884	-0.063260	1.172140	168.613118	-65.287684	-72.097808			
39807	10.800547	-0.417122	-4.329817	1.420563	-0.349534	1.738606	169.009303	-64.978200	-72.878224			
39808	11.013540	-0.523996	-4.444014	1.529026	-0.396782	1.969760	169.327257	-64.697600	-73.600032			
39809	11.159688	-0.630004	-4.618499	1.627588	-0.359355	2.165937	169.588085	-64.434070	-74.272992			
39810	11.275851	-0.630857	-4.630972	1.630746	-0.463481	2.275084	169.801792	-64.218818	-74.911946			
39811	11.027197	-0.775481	-4.461361	1.746248	-0.548992	1.966670	169.943476	-64.089978	-75.497262			
39812	10.687083	-0.840891	-4.406654	1.766507	-0.487385	1.632016	170.071967	-63.998500	-76.069374			
39813	10.516485	-0.917688	-4.404229	1.814012	-0.441055	1.472285	170.201636	-63.943504	-76.649340			
39814	10.229489	-0.818811	-4.334811	1.674038	-0.411677	1.193290	170.383536	-63.942019	-77.271676			
39815	9.761289	-0.652051	-4.111275	1.449022	-0.435393	0.690704	170.619462	-63.996575	-77.946591			
39816	9.325964	-0.551762	-3.914242	1.287462	-0.436765	0.224789	170.925935	-64.076020	-78.678584			
39817	8.988584	-0.269820	-3.541397	0.952511	-0.640575	-0.216271	171.308771	-64.194638	-79.450518			
39818	8.748728	0.029113	-3.028293	0.603465	-1.005936	-0.629257	171.771159	-64.333637	-80.253051			
39819	8.469597	0.178665	-2.740574	0.393511	-1.139810	-0.990979	172.287851	-64.471503	-81.070890			
39820	8.274845	0.569684	-2.348588	-0.052660	-1.413488	-1.309008	172.864495	-64.576556	-81.896668			
39821	8.178313	0.755305	-2.222631	-0.288299	-1.482479	-1.439256	173.427743	-64.651594	-82.695174			
39822	8.239632	0.744497	-2.100775	-0.316934	-1.613439	-1.436812	173.947346	-64.690143	-83.467267			
39823	8.395415	0.561688	-2.119536	-0.166117	-1.657116	-1.296986	174.390913	-64.705154	-84.193454			
39824	8.631930	0.464499	-2.227548	-0.095024	-1.663669	-1.042795	174.795771	-64.656183	-84.909199			
39825	9.137348	0.711199	-2.333138	-0.356158	-1.796807	-0.534488	175.144492	-64.564695	-85.590313			
39826	9.622784	1.011913	-2.604143	-0.668132	-1.772611	0.026768	175.366901	-64.483977	-86.213906			
39827	9.574126	0.949999	-2.906032	-0.622967	-1.483654	0.108103	175.413710	-64.460934	-86.722771			
39828	9.361785	0.766905	-3.285545	-0.443282	-1.049548	0.073056	175.324757	-64.472893	-87.102387			
39829	9.184329	0.390561	-3.748740	-0.049140	-0.555362	0.099257	175.098231	-64.524141	-87.324971			
39830	9.309787	-0.154018	-4.249072	0.537184	-0.163046	0.406669	174.754556	-64.614585	-87.415565			
39831	9.188534	-0.720212	-4.501689	1.142566	0.114749	0.380168	174.295098	-64.780297	-87.378699			
39832	8.787707	-1.384518	-4.616343	1.841932	0.382712	0.031698	173.744978	-64.978606	-87.253912			
39833	8.489645	-2.085525	-4.514687	2.570418	0.403269	-0.323956	173.148725	-65.182109	-87.068278			
39834	8.301764	-2.418167	-4.277855	2.922156	0.264759	-0.622606	172.540896	-65.360790	-86.844428			
