// General information: 
//  MT Manager version: 2022.0.0 
//  XDA version: 2022.0.0 build 7085 rev 119802 built on 2022-11-08
// Device information: 
//  DeviceId: 00B492A5
//  ProductCode: MTW2-3A7G6
//  Firmware Version: 4.6.0
//  Hardware Version: 2.0.0
// Device settings: 
//  Filter Profile: human(46.1)
//  Option Flags: Orientation Smoother Disabled, Position/Velocity Smoother Disabled, Continuous Zero Rotation Update Disabled, AHS Disabled, ICC Disabled
// Coordinate system: ENU
PacketCounter	Acc_X	Acc_Y	Acc_Z	FreeAcc_E	FreeAcc_N	FreeAcc_U	Roll	Pitch	Yaw	Vel_E	Vel_N	Vel_U
38738	9.118249	-1.007971	-2.309876	0.372792	-0.042343	-0.360004	-148.590050	-75.625794	107.728199			
38739	9.034796	-1.069733	-2.301905	0.334791	-0.103315	-0.434635	-148.551186	-75.627156	107.660304			
38740	9.092355	-0.957703	-1.860990	0.077045	0.269913	-0.486777	-148.485603	-75.642422	107.551612			
38741	8.825002	-1.185844	-1.932828	0.004716	-0.009861	-0.701014	-148.376382	-75.673068	107.353823			
38742	9.160505	-1.460477	-2.071122	-0.091757	-0.221851	-0.311121	-148.180959	-75.680634	107.120738			
38743	9.834550	-1.421109	-1.980141	-0.170844	0.026460	0.317909	-147.812463	-75.686079	106.789869			
38744	9.771368	-1.336404	-2.156805	0.039287	-0.033121	0.282596	-147.345018	-75.691585	106.365895			
38745	9.654165	-1.350962	-2.574442	0.369243	-0.327909	0.257658	-146.892157	-75.671326	106.018951			
38746	9.602723	-0.819607	-2.530066	0.704806	0.092850	0.126119	-146.542828	-75.622997	105.858604			
38747	9.710494	-0.193073	-2.322282	0.960109	0.728271	0.100523	-146.360812	-75.560073	105.833812			
38748	9.729879	0.074895	-2.230755	1.065649	1.003136	0.062054	-146.302657	-75.495864	105.844626			
38749	9.676211	-0.221503	-2.278135	0.909073	0.750713	0.060409	-146.308138	-75.444365	105.853242			
38750	9.789067	-0.775112	-2.289198	0.545391	0.365858	0.248910	-146.324106	-75.415834	105.851535			
38751	10.539860	-1.319743	-1.961965	-0.105788	0.345194	0.983114	-146.205708	-75.465912	105.700470			
38752	9.923356	-1.937087	-1.911248	-0.492983	-0.242560	0.462343	-145.909640	-75.581084	105.356271			
38753	9.237459	-2.399545	-1.883679	-0.754394	-0.747272	-0.142674	-145.603821	-75.678481	104.988273			
38754	9.316816	-2.534389	-1.829184	-0.870599	-0.807978	-0.057624	-145.229538	-75.795603	104.669856			
38755	9.214116	-1.854321	-1.282102	-0.809984	-0.002504	-0.361440	-144.824303	-75.929083	104.444743			
38756	9.025207	-1.318499	-1.314220	-0.404722	0.314278	-0.611744	-144.425948	-76.050757	104.223395			
38757	8.856519	-1.239775	-1.422173	-0.243197	0.252647	-0.764232	-144.009845	-76.145018	104.011546			
38758	9.029788	-0.997515	-1.314545	-0.161815	0.532070	-0.650219	-143.604324	-76.208776	103.875710			
38759	9.375172	-0.677078	-1.268240	0.003255	0.876539	-0.368516	-143.218091	-76.252265	103.732504			
38760	9.564786	-0.873887	-1.386714	-0.027943	0.695848	-0.133494	-142.791449	-76.294806	103.462544			
38761	9.403589	-1.115960	-1.512282	-0.060952	0.395603	-0.231476	-142.409642	-76.334399	103.215523			
38762	9.469935	-1.077919	-1.341699	-0.157183	0.540238	-0.204090	-142.067188	-76.376213	102.994716			
38763	9.412118	-1.112224	-1.264754	-0.221111	0.542529	-0.269032	-141.731069	-76.431778	102.721048			
38764	9.266279	-1.251395	-1.384943	-0.194547	0.323411	-0.367820	-141.399709	-76.494620	102.452856			
38765	9.364391	-0.976819	-1.140098	-0.200591	0.695629	-0.356385	-141.034016	-76.560484	102.220116			
38766	9.487549	-0.496761	-0.614870	-0.295936	1.397795	-0.400090	-140.601773	-76.652631	101.955641			
38767	9.612142	-0.072748	-0.054695	-0.454456	2.072988	-0.437310	-140.120745	-76.784171	101.632254			
38768	9.947142	0.290028	0.473276	-0.636297	2.723403	-0.250687	-139.599417	-76.938990	101.248533			
38769	10.351717	0.540924	0.891676	-0.803076	3.231357	0.044240	-139.017287	-77.128004	100.767656			
38770	10.603475	0.782588	1.495729	-1.108796	3.803206	0.166758	-138.362642	-77.355539	100.158496			
38771	10.765490	0.870444	2.085014	-1.486636	4.221627	0.235605	-137.632176	-77.628850	99.385973			
38772	10.870960	0.761268	2.398200	-1.756559	4.303564	0.331374	-136.806056	-77.968736	98.393813			
38773	10.847019	0.785038	2.624644	-1.855879	4.398259	0.305269	-135.774378	-78.408016	97.087602			
38774	10.887386	0.890143	2.902562	-1.933456	4.587929	0.334425	-134.575263	-78.925385	95.582264			
38775	11.141282	1.312835	3.138412	-1.772774	5.015549	0.550760	-133.121630	-79.570957	93.843880			
38776	11.448109	2.274264	3.975261	-1.714892	6.202304	0.704972	-131.222515	-80.425110	91.554775			
38777	11.833842	3.114821	5.119472	-1.923382	7.468332	0.979401	-128.792104	-81.454407	88.478158			
38778	11.910280	3.938691	5.962192	-1.852060	8.467762	1.039701	-125.561207	-82.498332	84.407770			
38779	12.684320	4.355166	6.221532	-1.532224	8.857813	1.923844	-120.594718	-83.574947	78.364366			
38780	13.026092	3.398542	6.191108	-1.871057	7.944003	2.554024	-110.948002	-84.656606	67.693631			
38781	12.409415	2.292805	5.034943	-1.548401	6.048438	2.254146	-96.654014	-85.451088	52.615644			
38782	12.276646	1.362233	3.261811	-0.724464	3.905784	2.329144	-81.042712	-85.791219	36.383497			
38783	13.149860	1.179297	1.790018	0.393358	2.561524	3.256072	-67.262950	-85.873426	21.974237			
38784	14.897445	1.765449	0.350052	2.079143	1.748234	4.944858	-53.018550	-85.629033	6.718286			
38785	16.099613	0.642807	1.341050	0.862287	1.383328	6.272661	-38.596666	-84.934620	-8.474274			
38786	16.272961	2.682853	4.363318	0.557009	4.618021	6.600413	-27.207961	-83.978186	-20.907889			
38787	14.459045	-0.828965	-0.342847	1.063079	-1.494670	4.557324	-20.313883	-83.161324	-29.176421			
38788	13.563625	-1.232441	-3.036407	2.405920	-4.016298	3.332100	-16.210714	-82.473605	-34.980138			
38789	10.908990	-5.802733	-6.845608	0.808329	-9.853945	0.275865	-12.439137	-81.709315	-40.136051			
38790	10.135457	-5.754671	-4.465726	-0.786751	-8.060706	-0.316006	-7.563559	-80.742293	-45.522561			
38791	9.482926	-4.377091	-1.782888	-1.365317	-5.242279	-0.707051	-3.241952	-79.463390	-50.198507			
38792	9.539935	-2.673072	0.490820	-1.292738	-2.667918	-0.346843	0.114329	-78.069075	-53.721646			
38793	9.103325	-0.443751	1.520723	-0.104728	-0.692368	-0.599351	2.679147	-76.797832	-56.265782			
38794	9.026392	0.919392	0.833715	1.414844	-0.599669	-0.832020	4.606155	-75.816414	-58.037686			
38795	9.373355	2.053814	1.378375	2.073143	0.272594	-0.346747	6.274470	-75.012517	-59.362912			
38796	8.950587	1.790773	0.788716	2.159357	-0.376835	-0.916857	7.726348	-74.242932	-60.555378			
38797	8.348083	1.104393	-0.290203	2.168114	-1.590093	-1.827439	9.311948	-73.499582	-61.874613			
38798	7.737795	1.524920	0.347991	2.039517	-0.808123	-2.229393	11.071536	-72.807417	-63.314583			
38799	7.472865	0.757000	-0.496635	1.879277	-1.937869	-2.785914	12.690501	-72.148821	-64.814269			
38800	7.154135	0.553640	-0.249450	1.507492	-1.879942	-3.049333	14.354850	-71.566823	-66.380397			
38801	7.158078	0.792269	-0.076646	1.566953	-1.695586	-2.990621	15.815889	-71.004539	-67.861990			
38802	6.997443	1.599774	0.543761	1.794948	-0.789218	-2.886376	16.997461	-70.420392	-69.126396			
38803	6.551837	2.411562	1.072901	2.061428	0.137631	-3.058116	17.775348	-69.804808	-70.143952			
38804	5.933254	2.738355	1.077752	2.250334	0.449636	-3.600049	18.192340	-69.199902	-70.951381			
38805	5.618555	2.482575	1.321795	1.881979	0.505024	-3.839326	18.258770	-68.620820	-71.592947			
38806	5.859572	2.196197	1.717824	1.475439	0.476009	-3.511514	18.111525	-68.095079	-72.132400			
38807	5.714828	1.440942	1.937952	0.748666	0.200379	-3.657183	17.753623	-67.607156	-72.573535			
38808	5.887688	0.834159	1.978283	0.276735	-0.216206	-3.555630	17.266297	-67.204978	-72.969654			
38809	6.014369	0.161210	2.064960	-0.291210	-0.592136	-3.485983	16.764730	-66.914660	-73.377711			
38810	6.121379	-0.425575	2.062345	-0.754767	-0.956701	-3.454960	16.274355	-66.703168	-73.782973			
38811	6.155369	-0.701719	2.125204	-1.007736	-1.064836	-3.429267	15.844058	-66.546995	-74.211311			
38812	6.277638	-0.686383	2.335561	-1.080080	-0.936606	-3.233106	15.499022	-66.425614	-74.666643			
38813	6.394872	-0.621451	2.733905	-1.200967	-0.632692	-2.963440	15.260689	-66.334509	-75.148724			
38814	6.597947	-0.572615	3.410184	-1.455282	-0.148045	-2.508553	15.096082	-66.263260	-75.596498			
38815	6.525477	-0.789965	3.951955	-1.899233	0.215734	-2.385023	14.970950	-66.207495	-75.954361			
38816	6.401920	-1.112768	4.468966	-2.426175	0.537336	-2.328076	14.861036	-66.187926	-76.196762			
38817	6.177933	-1.571495	4.678935	-2.940089	0.597331	-2.496410	14.737740	-66.198021	-76.360737			
38818	6.378659	-0.814772	5.739607	-2.731071	1.727822	-1.822062	14.773952	-66.282662	-76.515185			
38819	6.686708	-0.991120	5.590054	-2.789667	1.426652	-1.619674	14.756057	-66.372908	-76.678589			
38820	7.149278	-0.477868	6.055234	-2.517234	1.870828	-0.971319	15.126484	-66.564290	-76.890019			
38821	8.209460	0.682479	7.238316	-1.955713	2.954473	0.565195	15.308294	-66.686887	-77.119999			
38822	8.257764	0.220818	6.841097	-2.200327	2.427204	0.400402	15.586093	-66.820811	-77.333231			
38823	9.352351	1.918545	8.510477	-1.387649	4.136614	2.209719	15.790283	-66.934179	-77.524217			
38824	8.835258	0.444254	7.765860	-2.410486	3.087683	1.287919	15.844091	-67.034857	-77.612057			
38825	9.940008	2.307200	9.916835	-1.663751	5.265832	3.301174	15.963132	-67.165929	-77.675038			
38826	9.256560	1.021571	9.247798	-2.540180	4.424527	2.279464	15.652881	-67.164759	-77.652897			
38827	8.500152	0.767805	9.075279	-2.716713	4.473802	1.492502	15.513551	-67.198316	-77.676356			
38828	8.521981	0.706696	8.583348	-2.517349	4.053776	1.324060	15.264981	-67.173843	-77.734338			
38829	8.029240	0.360542	7.470364	-2.336665	3.193020	0.422037	15.088059	-67.155302	-77.816666			
38830	8.453855	1.330213	7.569366	-1.454255	3.547757	0.949791	14.944193	-67.166601	-77.924224			
38831	8.421374	0.812120	6.296808	-1.339493	2.304653	0.391388	14.781116	-67.168822	-78.029969			
38832	8.863252	0.425960	4.865473	-1.018406	0.803262	0.223703	14.807051	-67.162374	-78.127749			
38833	11.203840	1.838759	6.720533	-0.347550	2.022473	3.220394	14.541028	-66.974357	-78.094331			
38834	13.453267	-0.769633	5.894341	-2.133874	-0.680566	4.723782	14.623062	-66.727377	-77.886838			
38835	18.518723	-0.710916	10.977528	-3.808675	1.421813	11.339718	14.162329	-66.268680	-77.419955			
38836	17.354328	-1.973527	16.150658	-7.135889	5.247130	12.265283	13.514235	-65.092402	-76.667598			
38837	2.907900	1.063779	7.803222	-2.081177	5.548543	-3.866302	12.855450	-64.959918	-76.636484			
38838	1.791350	-1.401814	-1.662406	-0.401140	-2.667771	-9.000508	12.896210	-65.293586	-77.128594			
38839	4.738489	-0.153423	-0.279918	0.405027	-2.206589	-5.626769	13.381587	-65.791757	-77.696010			
38840	7.322348	0.121153	-0.688390	1.018706	-3.419886	-3.380616	13.822007	-66.314819	-78.121841			
38841	8.975797	-1.669141	-1.539455	-0.142091	-5.439948	-2.322253	14.361010	-67.045444	-78.446404			
38842	11.146176	-3.740543	-2.898783	-1.293212	-8.162759	-0.962412	14.774725	-67.749674	-78.606714			
38843	8.801488	-7.085784	-6.215404	-3.056745	-11.390368	-4.595300	15.222799	-68.173206	-78.725028			
38844	5.721009	-6.130945	-2.220962	-4.093584	-6.575124	-5.906207	17.090880	-68.629489	-79.324731			
38845	6.695778	0.828300	4.719753	-1.066434	1.876229	-1.867045	20.200880	-69.526406	-80.593089			
38846	12.466440	5.579817	1.038078	4.943802	-0.638161	2.944922	23.625404	-70.706597	-82.093503			
38847	14.490538	5.263813	-2.768008	6.497901	-4.065838	3.846049	27.810049	-71.950349	-83.733087			
38848	13.514986	5.405285	-0.998650	5.354343	-1.787447	3.639952	32.923935	-73.187898	-85.950704			
38849	12.119364	9.479578	-0.286723	7.850807	1.952439	3.277573	37.027163	-74.103592	-88.607364			
38850	9.564058	4.426955	-0.525300	3.836631	-0.331398	0.011512	37.939019	-74.818859	-90.299253			
38851	8.904112	-1.173806	-1.191571	-0.261725	-3.886591	-1.633135	39.160559	-75.456666	-92.267825			
38852	8.414722	-1.198830	-0.235393	-0.938189	-2.936164	-1.888207	41.754871	-76.197703	-94.688257			
38853	9.246925	1.246609	0.102811	0.706436	-1.314094	-0.601738	44.859601	-77.049254	-97.167387			
38854	9.672871	2.759686	-0.033777	1.897045	-0.457520	0.054976	47.132568	-77.874123	-99.090022			
38855	9.378177	2.505865	-1.053470	2.294029	-1.185853	-0.396275	48.626348	-78.696858	-100.613294			
38856	8.999098	1.937983	-1.925864	2.375843	-1.991702	-0.933767	50.237075	-79.579160	-102.312219			
38857	9.235730	1.723584	-2.486548	2.516304	-2.453744	-0.751922	52.527343	-80.522510	-104.726374			
38858	9.708168	1.286074	-2.813129	2.312468	-2.888846	-0.319507	55.809696	-81.462927	-108.171933			
38859	9.730661	1.029581	-2.925281	2.126574	-2.972630	-0.276360	60.172512	-82.280204	-112.606477			
38860	9.402577	1.354460	-2.341718	1.985598	-2.113857	-0.468551	66.238162	-83.024187	-118.584476			
38861	9.491277	2.146669	-1.814448	2.219466	-1.057311	-0.224270	73.978890	-83.698880	-126.245352			
38862	9.353695	2.459833	-1.187482	2.028867	-0.183272	-0.283799	83.393815	-84.305778	-135.793119			
38863	9.354654	1.398875	-1.009108	1.026929	-0.506301	-0.369663	94.942727	-84.780852	-147.706943			
38864	9.747280	0.216126	-0.952370	-0.029524	-1.006936	-0.068709	107.580839	-85.023652	-160.773907			
38865	9.835258	-0.730890	-0.954896	-0.845239	-1.385126	-0.038138	120.769174	-84.999532	-174.318727			
38866	9.888334	-1.661942	-0.954440	-1.655247	-1.738146	-0.030699	133.595370	-84.651180	172.701180			
38867	10.109541	-1.754093	-0.749298	-1.938714	-1.418624	0.190606	144.302414	-83.989682	161.947532			
38868	10.036867	-2.151630	-0.313955	-2.579023	-1.096471	0.067043	153.094890	-83.125780	153.295344			
38869	10.006262	-2.192365	-0.798172	-2.391902	-1.307282	0.093624	159.720315	-82.153197	147.047339			
38870	9.361599	-1.295200	-0.172462	-2.039392	-0.130994	-0.584063	164.897889	-81.077401	142.546017			
38871	9.034563	0.069706	-0.595426	-0.741815	0.530958	-0.804567	169.580408	-79.819230	138.730367			
38872	9.159733	1.631364	-0.916447	0.566715	1.488894	-0.600818	173.201116	-78.492622	135.897199			
38873	8.992405	2.418141	-1.910898	1.724964	1.432141	-0.575202	176.198813	-77.334113	133.569815			
38874	8.255207	2.460970	-1.339732	1.439517	1.981009	-1.446128	178.693575	-76.138612	131.612061			
38875	9.104382	1.882451	-0.686322	0.380163	2.446588	-0.825492	-178.875179	-74.913680	129.749500			
38876	9.286622	1.323759	-1.287008	0.233448	1.887709	-0.537557	-177.048216	-73.691650	128.307732			
38877	9.604012	0.491283	-1.886438	-0.132120	1.174585	-0.084547	-175.529586	-72.631728	127.052395			
38878	8.868414	-0.112577	-1.571688	-0.701785	0.992348	-0.887867	-174.264346	-71.714979	126.151924			
38879	8.404190	-0.028554	-1.385664	-0.712726	1.202403	-1.410555	-173.034958	-70.813325	125.456460			
38880	8.609975	0.005711	-1.557923	-0.657102	1.302547	-1.185498	-171.768611	-69.864059	124.808902			
38881	8.930101	-0.004172	-1.048230	-1.100374	1.877949	-1.088809	-170.544373	-68.946224	124.227247			
38882	8.675218	0.016095	-0.965861	-1.130510	2.008170	-1.393659	-169.365558	-68.055279	123.723699			
38883	8.524794	0.411893	-0.928972	-0.882391	2.389984	-1.614377	-168.242253	-67.146614	123.344845			
38884	9.292273	1.097993	-0.684529	-0.775908	3.409387	-1.106814	-167.185804	-66.234151	123.097792			
38885	9.637410	2.162252	0.326491	-0.855822	5.037800	-1.354120	-166.313548	-65.404781	123.000365			
38886	10.139259	2.726367	1.031741	-1.143694	6.159781	-1.324530	-165.604260	-64.626694	122.980935			
38887	11.394583	2.243955	1.422207	-2.126074	6.607079	-0.393637	-164.945709	-63.895727	122.907813			
38888	11.829320	1.324723	0.771885	-2.475443	5.824926	0.297934	-164.279045	-63.345790	122.654715			
38889	11.953976	0.587594	-0.650157	-2.049902	4.613880	1.058122	-163.434565	-62.889782	122.235172			
38890	12.373013	0.959892	-1.653031	-1.208310	4.581213	1.775954	-162.382872	-62.473695	121.779354			
38891	12.060529	1.444320	-1.597117	-0.841346	4.947756	1.363363	-161.250458	-62.170634	121.291490			
38892	11.604535	1.617860	-0.139580	-1.648016	5.774645	0.249082	-160.336553	-61.900829	120.951464			
38893	13.072849	1.250838	0.305366	-2.575821	6.402924	1.364269	-159.377687	-61.608623	120.702076			
38894	13.863522	1.591130	0.429378	-2.646542	7.097093	1.915068	-158.616921	-61.509455	120.449109			
38895	13.789264	1.303538	0.800448	-3.067515	7.066100	1.726127	-158.138691	-61.558360	120.153718			
38896	14.998106	1.309061	0.165989	-2.853120	7.240371	3.076104	-157.596440	-61.693446	119.856400			
38897	16.415348	2.032290	0.108526	-2.627600	8.314941	4.243004	-156.749436	-62.016671	119.454835			
38898	17.473348	2.889990	1.631404	-3.385390	10.127323	4.410767	-155.934929	-62.434302	119.017621			
38899	17.813188	3.102597	3.322041	-4.510077	11.212911	4.040092	-155.182734	-62.955207	118.581440			
38900	16.748737	4.155375	5.629497	-5.302683	12.677600	2.046343	-154.249722	-63.483598	118.112128			
38901	17.596174	7.223148	9.956918	-6.863977	17.447234	0.647394	-153.631528	-64.243453	117.788027			
38902	18.136366	6.797896	13.633370	-9.875407	19.079557	0.158426	-153.224482	-65.610107	116.839200			
38903	12.414148	1.659150	8.656470	-7.787172	10.368463	-1.835586	-152.886557	-67.108985	115.243434			
38904	11.922960	-2.451636	1.475307	-4.538448	3.092114	1.149991	-152.291165	-68.305076	113.527660			
38905	13.718206	-3.117328	-1.875176	-2.461211	1.108067	4.120176	-150.750912	-69.869932	111.523220			
38906	13.399248	-3.248820	-6.178706	1.080630	-1.901175	5.136112	-148.017384	-71.583803	109.475805			
38907	15.111263	-1.592110	-8.162505	3.888771	-1.601458	6.914541	-144.937170	-73.212673	107.664286			
38908	16.556481	-1.888367	-9.047412	4.712390	-2.240606	8.416016	-142.017513	-74.803356	105.979603			
38909	16.053109	-2.976449	-9.235715	4.673357	-3.662421	7.980028	-139.393687	-76.444548	104.605277			
38910	15.649501	-2.750107	-7.064685	3.402251	-2.728774	7.019993	-137.482699	-78.058605	103.865504			
38911	16.161104	-1.153697	-4.070781	2.020821	-0.089331	6.769715	-136.102376	-79.610776	103.079087			
38912	15.473950	-0.059870	-3.021615	1.954243	0.849763	5.808406	-134.032431	-81.189974	100.680820			
38913	13.811930	0.541748	-5.150007	4.290513	-0.475861	4.291664	-130.289651	-82.771481	96.202376			
38914	12.785235	2.075997	-4.483519	4.787140	0.614121	3.015558	-124.577107	-84.320003	89.734020			
38915	13.061846	2.977401	-2.339641	3.725754	2.183863	3.082368	-114.187225	-85.864090	78.539581			
38916	12.425933	2.113829	-2.271047	3.330251	1.075788	2.506704	-94.708079	-87.149026	58.368911			
38917	12.356958	1.911597	-3.802172	4.569988	-0.384929	2.424910	-59.453696	-87.808528	22.520598			
38918	12.630480	1.429791	-4.076657	4.602546	-1.332572	2.645947	-22.028163	-87.383281	-15.996380			
38919	12.255281	-0.499661	-5.214838	4.346487	-3.982270	2.140021	-1.703371	-86.102188	-37.767947			
38920	10.875284	-2.231596	-5.585259	3.460793	-5.903245	0.560676	7.263824	-84.521904	-47.999104			
38921	9.741966	-2.381745	-4.676068	2.597422	-5.681580	-0.679947	12.273025	-82.890803	-53.933109			
38922	8.552702	-2.939315	-5.349751	2.634335	-6.692185	-2.152749	15.438923	-81.300577	-57.775551			
38923	7.764247	-2.716837	-5.166147	2.579474	-6.525045	-3.095716	17.760456	-79.783596	-60.550090			
38924	7.412381	-2.711433	-4.375715	1.972421	-6.126306	-3.486933	19.137133	-78.316244	-62.470734			
38925	6.639002	-2.589420	-3.480394	1.329615	-5.461236	-4.218202	19.955066	-76.908967	-63.907608			
38926	6.330571	-1.970938	-4.094331	2.146839	-5.511770	-4.739965	20.331451	-75.564005	-64.980945			
38927	5.360451	-1.431670	-3.844001	2.225902	-4.869843	-5.703162	20.462778	-74.301263	-65.838548			
38928	4.480795	-0.929065	-4.081254	2.619996	-4.568418	-6.672494	20.367721	-73.185773	-66.542745			
38929	3.837461	-0.551014	-4.415078	3.003143	-4.456233	-7.436906	20.095021	-72.230498	-67.163963			
38930	3.517782	-0.940591	-4.914291	2.951530	-5.044807	-8.010781	19.723535	-71.434601	-67.692588			
38931	3.122038	-0.937545	-4.366758	2.488397	-4.604155	-8.294965	19.270708	-70.741679	-68.113826			
38932	2.671536	-1.108469	-3.941459	1.971811	-4.322882	-8.661635	18.694540	-70.190975	-68.490365			
38933	2.497955	-2.159334	-4.018667	1.120244	-5.014460	-9.005339	18.047758	-69.749897	-68.799195			
38934	2.407286	-2.582611	-4.174605	0.800569	-5.375720	-9.219014	17.515578	-69.403982	-69.087013			
38935	1.959712	-3.631642	-4.046722	-0.231360	-5.774458	-9.729405	17.098940	-69.148249	-69.389232			
38936	1.966758	-4.631530	-4.989254	-0.536972	-7.056886	-10.164217	16.962826	-68.994318	-69.738838			
38937	1.880214	-4.439329	-4.580420	-0.665063	-6.610466	-10.099909	17.335886	-68.913537	-70.156321			
38938	1.859612	-3.725082	-3.966346	-0.449208	-5.732677	-9.842616	18.038336	-68.948797	-70.692644			
38939	2.691372	-3.436966	-2.838655	-0.765940	-5.018980	-8.656258	18.962151	-69.035850	-71.297714			
38940	2.917201	-2.554551	-1.989288	-0.519204	-3.957047	-8.061909	20.197430	-69.146198	-71.950720			
38941	3.500545	-1.117251	0.584074	-0.858245	-1.427934	-6.485887	21.214079	-69.322923	-72.669459			
38942	5.326714	-1.247464	2.055271	-1.685935	-1.048433	-4.316100	22.124062	-69.582144	-73.484466			
38943	10.115882	-0.065585	6.721672	-3.175811	1.467081	1.818195	23.082481	-69.859822	-74.285225			
38944	18.265091	2.935034	12.441146	-3.648996	4.698439	11.672611	23.916159	-69.739314	-74.892872			
38945	24.657363	6.004754	16.193330	-3.127196	6.846762	19.334968	25.262147	-68.947441	-75.582680			
38946	21.503767	7.616316	19.176260	-4.291459	10.539072	17.730445	26.942387	-68.082362	-76.261815			
38947	12.914966	10.403277	21.555124	-4.694123	16.640375	11.180200	27.983191	-67.545309	-76.939586			
38948	7.222523	7.142995	17.186533	-4.904052	13.604061	3.951140	28.325869	-67.433349	-77.807161			
38949	6.654818	4.683404	12.953790	-4.059867	9.395575	1.556640	28.654339	-67.464708	-78.707192			
38950	6.597516	1.923837	8.640420	-3.424997	4.755945	-0.456656	28.577728	-67.416616	-79.180023			
38951	7.472246	0.761266	5.388331	-2.206626	1.447933	-0.953663	28.334280	-67.349408	-79.335375			
38952	12.918916	-0.743556	2.619534	-1.274263	-3.461512	2.864354	28.139754	-67.394510	-79.277029			
38953	14.297731	-0.213046	0.848818	0.349750	-4.904658	3.641412	27.863651	-67.520704	-78.864354			
38954	10.492103	-0.625395	-10.363482	6.627083	-11.612827	-3.560558	28.455555	-69.000465	-79.592523			
38955	8.723761	-7.297411	-13.263531	3.035920	-16.942281	-6.813923	29.218122	-70.862388	-80.124048			
38956	11.163531	-4.347834	0.548100	-3.134195	-5.780289	0.216883	29.733246	-71.475402	-80.669981			
38957	20.979513	6.670251	18.645187	-5.417589	10.967485	16.314494	30.626792	-71.003089	-81.056705			
38958	21.791083	15.373887	11.890495	5.679817	10.876912	16.682843	29.532948	-70.606716	-80.559752			
38959	12.065980	1.992771	3.377876	0.283047	-0.276066	2.868150	24.856268	-70.524652	-78.812694			
38960	12.072295	-8.573494	1.414487	-7.179918	-7.295284	0.975873	19.993332	-71.783934	-78.705018			
38961	12.800512	-25.794691	-27.800947	-7.598637	-39.267437	-8.281289	18.779090	-72.551967	-78.823677			
38962	-0.253550	-14.537080	-15.470273	-4.672480	-19.761467	-16.002575	22.713387	-72.135182	-80.679714			
38963	-4.206150	-5.342265	-5.500326	-1.697554	-5.952265	-15.990196	27.283572	-73.069200	-83.135215			
38964	1.017998	-0.122372	-3.097992	1.705420	-2.772265	-9.584486	35.719346	-74.733453	-89.135650			
38965	22.093136	6.098877	-13.646959	12.864866	-12.089021	10.175384	51.437185	-76.613396	-100.762102			
38966	18.346041	19.860773	-5.855400	17.815870	4.443529	10.877505	53.972420	-76.522605	-100.498471			
38967	3.861467	14.654069	2.629908	8.680952	10.713601	-2.999121	54.016236	-77.131110	-101.405598			
38968	7.033512	5.222910	-3.053961	5.572832	-0.267007	-2.400041	56.850441	-78.719458	-105.588461			
38969	13.230245	0.958052	-5.186948	3.388641	-5.571214	2.849413	59.607477	-80.411756	-109.759773			
38970	10.966018	-3.300276	-4.229127	-0.464634	-6.935630	0.222663	58.744882	-81.359594	-110.327220			
38971	7.996478	-3.678470	-1.201674	-2.555521	-4.241438	-2.437319	59.292347	-82.209221	-111.743653			
38972	7.740412	-2.648586	-0.638407	-2.113245	-2.995267	-2.471247	65.490629	-83.150774	-117.968702			
38973	8.797615	-0.305926	-1.330906	0.036382	-2.061729	-1.152050	77.505149	-83.863214	-129.172980			
38974	9.444032	2.548079	-1.215504	2.047375	-0.052300	-0.171116	90.257731	-84.177028	-140.979218			
38975	9.228448	4.500495	0.687561	2.259531	2.873122	-0.193574	101.409934	-84.419868	-151.717436			
38976	8.261767	3.585489	1.352328	1.151881	3.033999	-1.303510	115.247046	-84.498949	-165.798464			
38977	8.897487	2.268452	-0.321842	1.084837	1.082116	-0.753821	129.460600	-84.151379	179.447564			
38978	9.228473	0.811254	-1.532818	0.603850	-0.582533	-0.460415	139.840278	-83.564029	168.473751			
38979	8.905452	-0.659221	-1.010738	-0.901897	-0.920927	-0.918915	147.243584	-82.957885	160.676910			
38980	8.747280	-1.524403	-0.473888	-1.948713	-0.875390	-1.181523	153.508274	-82.245327	154.181799			
38981	9.126642	-2.228962	-1.320255	-2.096509	-1.785670	-0.734128	158.797173	-81.432654	148.846296			
38982	9.348021	-2.116099	-1.024414	-2.264874	-1.302741	-0.534555	163.338290	-80.603895	144.642037			
38983	9.362868	-1.011115	-0.047211	-2.037642	0.298403	-0.623306	167.206855	-79.723875	141.375673			
38984	9.553594	-0.049599	0.160026	-1.496749	1.230949	-0.456324	170.428820	-78.866335	138.816881			
38985	9.547726	0.296719	-0.060945	-1.145868	1.429201	-0.437554	173.197684	-78.051544	136.618927			
38986	9.346888	0.237704	-0.635041	-0.853610	1.075860	-0.542523	175.497960	-77.206286	134.895623			
38987	9.274657	0.936842	-1.687184	0.301955	0.884467	-0.385711	177.540314	-76.395229	133.636569			
38988	9.271299	1.759744	-1.868484	0.988576	1.446135	-0.353608	179.387471	-75.647017	132.510317			
38989	8.834047	1.457485	-0.602649	-0.023216	2.212622	-1.116123	-178.923954	-74.980162	131.300623			
38990	8.415904	0.514780	-0.865882	-0.514339	1.426349	-1.473511	-177.526923	-74.215924	130.240536			
38991	7.746521	-0.402725	-1.265736	-0.853697	0.506630	-2.016162	-176.109507	-73.240621	129.401450			
38992	8.530800	-0.380290	-2.115922	-0.474237	0.254087	-1.031788	-174.624165	-72.127661	128.862881			
38993	9.124319	0.715748	-2.122105	0.136703	1.327125	-0.512924	-173.267419	-71.055684	128.493217			
38994	9.611984	1.899457	-1.544265	0.409968	2.844006	-0.319353	-171.997598	-70.118452	127.986079			
38995	9.943352	2.418406	0.021198	-0.434480	4.472076	-0.618734	-170.768966	-69.322225	127.335434			
38996	10.102681	2.766555	1.564789	-1.352041	5.874395	-1.104755	-169.713419	-68.618373	126.792474			
38997	10.043466	3.086726	1.863896	-1.387299	6.375862	-1.369022	-168.765152	-68.023036	126.349479			
38998	9.956184	3.120913	2.062574	-1.536095	6.579179	-1.598450	-167.923778	-67.534580	125.938572			
38999	10.304385	2.308525	1.142300	-1.558763	5.607314	-0.927756	-167.108372	-67.100870	125.480578			
39000	10.971242	1.048532	-0.217338	-1.622038	4.153474	0.268575	-166.234797	-66.741388	124.967428			
39001	10.722079	0.261649	-0.963939	-1.562784	3.120141	0.374690	-165.286832	-66.511014	124.412116			
39002	10.250108	0.392330	-0.534264	-1.660647	3.373182	-0.254042	-164.325031	-66.307628	123.871397			
39003	10.438061	0.563320	0.088078	-2.025467	3.976335	-0.359423	-163.428091	-66.093569	123.414775			
39004	10.939603	0.405626	-0.153047	-2.067943	3.942787	0.189342	-162.398459	-65.834451	123.095141			
39005	11.547600	1.691310	-0.564796	-1.083845	4.940791	0.720123	-161.454857	-65.642031	122.931883			
39006	12.756988	1.526635	-0.758978	-1.327214	5.172970	1.897400	-160.683276	-65.570962	122.751072			
39007	13.716037	1.490378	-0.578912	-1.695879	5.605077	2.693035	-159.708029	-65.592020	122.593316			
39008	13.887354	3.376123	1.105927	-1.832677	8.020007	1.926165	-158.914692	-65.785695	122.467694			
39009	15.028284	5.045537	2.648833	-2.235529	10.499141	2.149478	-158.582698	-65.994790	122.377650			
39010	18.342918	6.584635	6.075711	-4.537540	14.596709	3.717902	-158.625471	-66.404588	121.833092			
39011	17.051898	4.948936	9.025610	-7.223982	14.462936	1.821032	-158.678669	-67.063197	120.638506			
39012	15.663596	3.983558	7.649890	-6.201183	12.504858	1.363300	-158.227533	-67.834627	119.468246			
39013	18.189872	4.939383	9.279109	-6.928344	14.908871	3.266632	-157.535589	-69.070141	117.916403			
39014	16.253008	2.433781	4.543264	-4.300140	9.478482	3.691548	-156.247726	-70.792524	115.867337			
39015	13.861142	1.365311	1.556162	-2.093943	5.920752	2.715743	-154.647812	-72.435042	113.907608			
39016	15.066032	-0.622704	-0.822938	-1.497028	3.041106	4.902795	-152.850030	-73.964082	111.814494			
39017	15.100713	-1.454896	-3.652836	0.341446	0.342891	5.783469	-150.726109	-75.548685	109.761998			
39018	15.348681	-1.819984	-6.845945	2.772724	-2.229322	6.712542	-148.230702	-77.135755	107.894938			
39019	16.641804	-1.663672	-8.469210	4.362432	-3.212357	8.133654	-145.574605	-78.748162	106.256989			
39020	17.033302	-2.170952	-8.368705	4.298363	-3.832176	8.399831	-142.955432	-80.362430	104.668999			
39021	16.610540	-2.479038	-6.843776	3.236597	-3.602620	7.663535	-140.916136	-81.943885	103.443240			
39022	17.552264	-0.506292	-3.224006	1.762978	-0.158398	7.951918	-138.860820	-83.453485	101.723181			
39023	18.122484	0.432713	-1.366191	1.053985	1.303814	8.288216	-133.979918	-85.048845	96.140435			
39024	16.264852	-0.528840	-2.996835	2.006808	-1.095821	6.574909	-121.430859	-86.596333	82.294309			
39025	14.677922	-0.832229	-4.443715	3.124530	-2.803104	4.960290	-94.178753	-87.716376	54.103228			
39026	13.371237	1.101525	-3.910091	4.082690	-1.437937	3.474198	-50.038009	-87.963411	9.411804			
39027	12.788931	2.048698	-4.542616	5.275461	-1.526447	2.765651	-16.090871	-87.210739	-25.217745			
39028	12.524338	0.082107	-3.383210	3.184192	-2.610406	2.489604	-0.305175	-85.930135	-41.743039			
39029	12.942458	0.113057	-3.916362	3.685033	-3.357716	2.756628	7.594907	-84.421230	-50.956494			
39030	12.655738	-1.934878	-3.913856	2.278567	-5.242263	2.292663	10.313877	-82.650576	-55.589040			
39031	11.054650	-4.605973	-3.665376	0.054067	-7.126619	0.485528	11.791296	-80.897175	-58.690094			
39032	10.114846	-5.163485	-4.084578	-0.188877	-7.948103	-0.733132	13.114259	-79.193059	-60.872441			
39033	9.378613	-3.677283	-3.386204	0.386244	-6.566278	-1.465539	14.393586	-77.572291	-62.612145			
39034	9.247269	-3.565841	-3.842236	0.767673	-7.021076	-1.869253	15.236094	-75.981705	-64.036041			
39035	8.593211	-3.563434	-3.753258	0.644429	-7.013326	-2.669807	15.935992	-74.478468	-65.186309			
39036	8.078839	-2.920407	-3.505364	0.918106	-6.466121	-3.222832	16.547328	-73.099954	-66.214121			
39037	7.618491	-2.738543	-3.484286	0.984583	-6.361732	-3.792975	17.088672	-71.815623	-67.153877			
39038	7.088870	-1.970938	-3.490451	1.503356	-5.861355	-4.362755	17.370143	-70.619435	-67.944573			
39039	6.435836	-1.908491	-4.066237	1.798475	-6.151185	-5.282494	17.289758	-69.466091	-68.522291			
39040	5.128846	-1.564794	-4.241907	1.968963	-5.734739	-6.653338	16.895157	-68.325630	-68.872606			
39041	3.944645	-1.865967	-4.299996	1.560107	-5.613841	-7.920197	16.389544	-67.253870	-69.108938			
39042	3.242502	-1.974666	-3.769981	1.026217	-5.078430	-8.477936	16.015892	-66.293138	-69.286061			
39043	2.875329	-2.309970	-3.448948	0.491497	-4.923273	-8.803686	15.881014	-65.450675	-69.484127			
39044	2.668490	-2.141147	-2.682998	0.152561	-4.206942	-8.725501	15.968801	-64.759606	-69.732400			
39045	2.673432	-2.862869	-3.285632	-0.102427	-5.061999	-9.102689	16.318628	-64.203442	-70.051828			
39046	2.729316	-2.325713	-2.843050	0.103515	-4.471734	-8.846364	16.991272	-63.780954	-70.456141			
39047	2.582928	-2.322377	-3.414090	0.419862	-4.820025	-9.254179	17.684217	-63.461638	-70.878984			
39048	2.442308	-1.975337	-2.974142	0.448559	-4.254574	-9.172624	18.494430	-63.247943	-71.306947			
39049	1.777348	-1.541459	-2.997941	0.735041	-3.738406	-9.730786	19.233192	-63.129874	-71.685985			
39050	1.444404	-0.858300	-2.122880	0.747729	-2.589609	-9.558898	19.972630	-63.100447	-72.005939			
39051	1.675407	-0.530016	-1.156607	0.487191	-1.827473	-8.891474	20.589339	-63.163199	-72.304840			
39052	2.660167	-1.291806	-1.686504	0.337277	-3.058792	-8.356816	21.210318	-63.220166	-72.427190			
39053	3.016755	0.494800	0.779592	0.331149	-0.466259	-6.710056	21.679484	-63.429132	-72.557120			
39054	4.650762	0.810867	2.271649	-0.113292	0.064513	-4.575289	21.837275	-63.861556	-72.798441			
39055	7.252692	0.546646	3.060716	-0.486427	-0.592321	-1.959005	22.132024	-64.443795	-73.084117			
39056	9.997517	1.226249	4.649296	-0.617236	-0.135739	1.262929	22.484550	-65.066694	-73.424067			
39057	12.261430	2.738904	6.065565	-0.091404	0.940857	4.106366	23.062211	-65.597312	-73.798093			
39058	13.913578	3.042131	6.421033	0.022414	0.814813	5.788783	23.683124	-66.029096	-74.296404			
39059	14.687635	2.851646	6.472631	-0.184823	0.497021	6.480590	24.614385	-66.258173	-74.790602			
39060	12.863186	4.061230	8.697992	-0.925659	3.498486	5.824232	25.285138	-66.335831	-75.148590			
39061	11.070298	4.909184	9.780751	-1.207973	5.461794	4.713976	25.695465	-66.425226	-75.356156			
39062	9.642493	5.708478	10.134283	-0.994346	6.770657	3.657182	25.706315	-66.595217	-75.370011			
39063	8.797999	5.058101	9.857959	-1.382196	6.554008	2.649351	25.162079	-66.788649	-75.093767			
39064	8.932032	3.971769	9.223853	-1.741153	5.474321	2.337805	24.360023	-67.092750	-74.741955			
39065	10.396851	1.898538	8.486503	-2.649612	3.249329	3.076805	23.179794	-67.340824	-74.207987			
39066	16.299412	-0.547084	12.118295	-6.000355	2.206689	9.473190	21.798450	-66.990179	-73.203865			
39067	7.038165	-1.593926	7.822965	-5.130213	2.013965	-0.707814	20.443292	-67.032132	-72.411116			
39068	7.831104	-4.585114	-3.895693	-0.489472	-8.316127	-4.510155	19.308039	-68.945576	-72.286906			
39069	12.845506	-12.423737	-11.694535	-1.853110	-20.114553	-2.882167	17.813511	-71.090448	-71.226595			
39070	18.116180	-13.968224	2.038489	-10.598178	-11.993872	6.657883	17.654947	-72.272212	-70.768592			
39071	14.122569	-3.731099	12.596402	-9.084609	3.139497	6.909681	19.805910	-72.213925	-71.432195			
39072	11.113120	12.551961	14.372791	1.821970	14.995055	6.292864	25.212528	-72.181211	-74.846742			
39073	17.853123	17.642462	4.228303	11.811077	8.970113	10.870935	31.580605	-72.440322	-79.453216			
39074	15.910961	7.343563	5.542893	2.732114	3.928064	7.933163	31.255636	-72.633893	-80.382652			
39075	13.770470	-7.450883	2.508733	-6.706753	-6.625991	2.935122	27.198746	-73.447486	-80.225685			
39076	10.950071	-21.145432	-13.510755	-8.875045	-25.497134	-5.274456	24.220869	-74.048041	-79.662819			
39077	0.759975	-16.581580	-13.701379	-5.590333	-20.251997	-14.482017	28.828653	-74.054504	-82.172506			
39078	1.700998	-2.865712	-4.310162	0.444713	-5.423134	-9.551146	35.127021	-75.019364	-85.335794			
39079	5.979515	2.330240	-5.668008	5.542343	-4.095198	-4.733155	44.967282	-76.052356	-91.654438			
39080	18.479588	15.932926	-10.214564	18.106445	-0.328452	9.460760	54.652225	-76.273534	-96.783825			
39081	8.881494	23.973176	1.002252	14.933750	15.879688	3.581779	54.197110	-76.260438	-95.612355			
39082	4.047989	9.693138	-6.769067	11.408330	1.594800	-4.968698	54.615007	-77.199873	-97.713741			
39083	8.296476	4.594479	-8.987750	9.383649	-4.584747	-1.961365	57.289784	-78.565924	-101.686112			
39084	13.302415	0.144630	-4.690378	2.862049	-5.626638	2.801569	59.140372	-79.548060	-104.574573			
39085	11.534595	-1.547078	-1.313209	-0.731851	-3.946600	1.189656	59.732934	-80.171989	-106.287388			
39086	9.126278	-2.168002	-1.155710	-1.243923	-3.728273	-1.217598	61.335629	-80.806809	-108.884279			
39087	9.225578	-2.067528	-1.051839	-1.321173	-3.466763	-1.053347	64.908049	-81.499724	-112.999550			
39088	10.070485	-1.248536	-0.219127	-1.391010	-2.272795	-0.018895	69.822014	-82.201223	-118.058485			
39089	10.177418	-0.623603	1.105690	-1.866157	-0.717718	0.246678	74.777767	-82.962398	-123.199910			
39090	9.669582	-1.173139	0.883191	-2.119052	-1.009974	-0.318284	80.601707	-83.749498	-129.415830			
39091	9.160301	-1.943012	-0.617696	-1.701823	-2.420141	-0.906960	88.861781	-84.376934	-137.923119			
39092	8.216611	-1.841179	-0.588947	-1.621816	-2.119848	-1.804955	99.394726	-84.628100	-148.278437			
39093	8.299059	-0.734102	-0.108932	-1.180951	-0.909695	-1.615058	111.261819	-84.468059	-159.551934			
39094	8.726255	0.419616	-0.249647	-0.366090	-0.133253	-1.081618	122.164044	-84.002767	-169.604950			
39095	9.628780	1.387993	-0.253650	0.134856	0.645211	-0.103590	130.880056	-83.419776	-177.449703			
39096	10.051786	1.634018	-0.624342	0.405531	0.697211	0.358093	138.066593	-82.904417	176.092884			
39097	9.784335	0.696413	-1.255658	0.128313	-0.258161	0.072131	144.394037	-82.450191	170.236648			
39098	9.251879	-0.423867	-1.691965	-0.340670	-1.228095	-0.484569	149.869906	-81.990782	165.143195			
39099	8.886061	-0.850490	-1.614361	-0.681896	-1.360405	-0.869842	154.839471	-81.469153	160.721486			
39100	8.781733	-0.384243	-1.811947	-0.238548	-1.038739	-0.901344	159.557513	-80.842933	156.793001			
39101	9.179057	0.710712	-1.717713	0.342454	-0.003719	-0.453684	164.073796	-80.131452	153.233569			
39102	9.649013	1.818753	-1.664991	0.917551	1.057292	0.047362	168.037763	-79.394481	150.226048			
39103	9.629830	2.791830	-1.833071	1.615972	1.852815	0.078756	171.356655	-78.684704	147.748579			
39104	9.749634	3.776374	-2.206132	2.458569	2.528453	0.274136	173.888201	-78.246558	145.748176			
39105	8.799961	3.751440	-0.776191	1.506945	3.426203	-0.975015	175.882179	-77.765873	143.803885			
39106	8.531385	2.425211	-0.507188	0.459472	2.657861	-1.348257	177.774982	-76.952584	141.762387			
39107	9.332729	1.201264	-1.261950	0.013767	1.503356	-0.438676	179.699092	-75.896062	139.949359			
39108	10.000728	0.317108	-0.966718	-0.985008	1.278633	0.109108	-178.640885	-74.991171	138.647481			
39109	9.835886	0.362380	0.365995	-1.986485	2.242138	-0.429988	-177.457927	-74.227982	137.864428			
39110	10.017565	0.673082	0.532364	-2.017319	2.726018	-0.347713	-176.280540	-73.503778	137.017894			
39111	10.355458	0.565579	0.627752	-2.282183	2.875152	-0.092948	-175.098050	-72.882437	136.068799			
39112	10.168044	0.305347	0.265266	-2.177021	2.520125	-0.197008	-174.027260	-72.338173	135.195221			
39113	9.612660	0.013444	-0.794103	-1.478150	1.637694	-0.422994	-172.869009	-71.881198	134.363970			
39114	8.852473	-0.202138	-1.419744	-1.001173	1.019087	-0.959367	-171.828291	-71.384007	133.733533			
39115	8.618156	-0.290235	-1.382125	-1.055540	1.000044	-1.201516	-170.791421	-70.889879	133.224825			
39116	8.654346	0.317294	-0.242380	-1.581245	2.210215	-1.586439	-169.985128	-70.375894	132.884169			
39117	9.192391	0.741735	0.028585	-1.689725	2.897378	-1.221966	-169.371498	-69.897276	132.575977			
39118	9.102686	1.032410	-0.380052	-1.216414	2.940938	-1.213850	-168.801360	-69.499974	132.261747			
39119	9.153525	1.284694	-1.109812	-0.548844	2.814012	-0.955553	-168.179519	-69.136312	131.988756			
39120	9.180553	1.472437	-1.671895	-0.038939	2.728514	-0.768400	-167.475425	-68.815390	131.740541			
39121	9.099542	1.427037	-2.419345	0.507021	2.338508	-0.595032	-166.697897	-68.501587	131.458001			
39122	9.529967	1.112525	-2.378373	0.167690	2.300095	-0.200429	-165.894087	-68.155103	131.167180			
39123	10.434799	0.834382	-2.138870	-0.420427	2.530878	0.559068	-165.082232	-67.816934	130.871857			
39124	10.998526	0.363162	-1.807889	-1.103370	2.552179	0.987148	-164.225351	-67.533442	130.571303			
39125	11.262056	-0.031507	-1.494630	-1.643801	2.528141	1.140619	-163.336485	-67.311143	130.251191			
39126	11.132225	-0.148299	-1.200617	-1.902678	2.591929	0.913515	-162.436850	-67.169954	129.859186			
39127	10.799436	-0.354801	-1.143840	-1.961890	2.393098	0.602972	-161.612693	-67.081181	129.407283			
39128	10.954481	-0.785216	-0.759626	-2.522337	2.303027	0.652876	-160.803904	-66.990462	129.008028			
39129	10.984603	-0.136598	-0.194445	-2.611596	3.144074	0.385952	-159.976828	-66.946091	128.643337			
39130	12.172861	0.628518	-0.144581	-2.511699	4.192378	1.354663	-159.167457	-66.934951	128.245548			
39131	14.019900	1.575482	0.517251	-2.971003	5.874781	2.675999	-158.391055	-66.966069	127.855961			
39132	15.411796	3.174285	1.669851	-3.371517	8.173228	3.310536	-157.776758	-67.099351	127.423212			
39133	15.036537	4.048955	3.339914	-4.126810	9.534977	2.257914	-157.421921	-67.338025	126.895303			
39134	14.940327	4.233295	6.277614	-6.302534	10.978632	1.154915	-157.151206	-67.718348	126.258722			
39135	15.322542	3.332121	8.699251	-8.668707	11.455061	0.919929	-156.770643	-68.383695	125.273470			
39136	15.709616	2.531569	7.849516	-8.250874	10.499548	1.870175	-156.170705	-69.256149	124.064889			
39137	15.708835	1.357661	6.347968	-7.386753	8.757333	2.742781	-155.217468	-70.375491	122.422179			
39138	14.118494	-0.163091	2.692649	-4.659945	5.132526	2.778490	-153.572088	-71.790748	120.206262			
39139	12.444601	-1.963180	-0.731089	-2.318587	1.282361	2.525280	-151.227940	-73.287963	117.890845			
39140	12.889504	-1.364008	-2.665811	-0.170913	0.679223	3.401140	-148.557567	-74.663630	115.763471			
39141	14.464046	-0.537560	-3.608164	1.191693	1.020594	5.021078	-145.507917	-76.133473	113.410086			
39142	15.309067	-0.491314	-4.137697	1.911402	0.709618	5.921237	-142.231820	-77.640086	110.945871			
39143	15.786577	-0.571928	-4.601988	2.561658	0.206714	6.438442	-138.736668	-79.205946	108.409575			
39144	15.884440	0.364618	-4.217539	3.004448	0.902378	6.323633	-135.298868	-80.740074	106.058778			
39145	16.465130	1.948334	-3.354319	3.251988	2.449773	6.605524	-131.933145	-82.221634	103.342159			
39146	15.950803	2.271435	-4.829621	4.925998	1.627158	6.186895	-128.184503	-83.608623	99.769632			
39147	14.903377	3.228147	-6.443744	7.002927	1.250072	5.135163	-123.590483	-84.948498	95.187894			
39148	14.347230	4.923461	-6.827333	8.297203	2.153627	4.442181	-117.938414	-86.353404	89.354555			
39149	14.711815	6.420335	-4.720227	7.333349	4.040202	4.672130	-101.186338	-87.899235	71.691007			
39150	14.717654	4.027654	-2.612068	4.563576	2.474512	4.770753	-47.510929	-88.430204	16.473147			
39151	14.772507	-0.491045	-2.193459	2.111844	-1.652179	4.886664	-10.237368	-87.336223	-22.645031			
39152	14.090621	-3.029101	-2.387506	1.017938	-4.283276	4.116564	1.243090	-85.670736	-36.246175			
39153	12.693734	-4.281633	-2.471818	0.356530	-5.655681	2.574723	5.684058	-83.823076	-42.825751			
39154	11.732711	-3.802288	-3.121319	1.109139	-5.932170	1.386557	8.150702	-81.928099	-47.304611			
39155	10.758422	-4.071677	-2.324766	0.247692	-5.848085	0.358717	9.272393	-80.141555	-50.043595			
39156	10.539807	-4.174817	-2.901859	0.605458	-6.525597	-0.118372	10.491389	-78.510127	-52.354209			
39157	10.820593	-3.461487	-2.330323	0.731842	-5.929868	0.126629	11.562503	-76.810439	-54.310808			
39158	10.161161	-3.522458	-2.635963	0.861806	-6.309801	-0.755010	12.371939	-75.178641	-55.938340			
39159	9.516649	-3.437856	-2.451993	0.726863	-6.219243	-1.494975	13.012241	-73.594774	-57.270911			
39160	8.651013	-3.023135	-2.947443	1.248243	-6.246710	-2.595868	13.656839	-72.144755	-58.516724			
39161	7.633034	-2.448000	-2.741817	1.357675	-5.608757	-3.610388	14.186065	-70.759262	-59.647117			
39162	6.542295	-2.107491	-3.209579	1.730751	-5.513581	-4.898763	14.565610	-69.415589	-60.614243			
39163	5.419064	-1.595698	-3.054845	1.793687	-4.826968	-5.975253	14.812741	-68.188864	-61.435355			
39164	4.659340	-1.751118	-3.670765	1.929509	-5.174231	-7.028226	14.952920	-67.010766	-62.057755			
39165	3.830767	-1.657928	-3.038599	1.424781	-4.462950	-7.642925	15.168513	-65.954547	-62.580896			
39166	3.541180	-1.573002	-2.283713	0.944485	-3.842858	-7.675022	15.321074	-65.062141	-62.997992			
39167	3.493153	-2.005508	-2.618897	0.816769	-4.357512	-7.961343	15.497052	-64.337661	-63.349949			
39168	3.682860	-2.201135	-2.937420	0.905261	-4.787846	-7.997831	15.840104	-63.787427	-63.652456			
39169	3.850320	-1.699324	-2.865225	1.273418	-4.499212	-7.798349	16.103100	-63.369593	-63.909598			
39170	3.958256	-2.141893	-3.901903	1.611439	-5.513350	-8.235824	16.375694	-63.088704	-64.155954			
39171	4.147250	-2.038414	-4.190241	1.910796	-5.716306	-8.204708	16.727624	-62.908539	-64.384337			
39172	4.039391	-2.398139	-4.069503	1.551360	-5.828266	-8.311629	17.164219	-62.830341	-64.634722			
39173	3.946398	-2.364911	-4.107951	1.599885	-5.790236	-8.414257	17.903592	-62.856952	-64.970852			
39174	4.131944	-1.831190	-3.388336	1.602028	-5.052722	-7.860645	18.945117	-62.979951	-65.399775			
39175	4.161844	-1.358539	-2.068847	1.120155	-3.912225	-7.188486	20.063032	-63.222457	-65.977682			
39176	4.733667	-1.932428	-2.494452	1.090213	-4.783675	-6.933100	21.431384	-63.525460	-66.648887			
39177	4.513591	-0.222506	-0.627041	1.044345	-2.379076	-6.062424	22.913788	-63.799255	-67.303479			
39178	4.177807	0.539327	-0.265321	1.262961	-1.491213	-6.071505	24.195958	-64.096707	-67.962772			
39179	4.398242	1.604026	0.169211	1.717370	-0.570066	-5.491634	25.477698	-64.418917	-68.616618			
39180	5.415062	3.187465	0.869628	2.439600	0.565692	-3.984579	26.710301	-64.861305	-69.366429			
39181	8.172105	3.507117	2.465276	1.862221	0.697923	-0.801329	27.811494	-65.408799	-70.114649			
39182	11.304445	3.724730	5.187537	0.399860	1.340934	3.095220	28.703272	-66.079547	-70.800051			
39183	14.612223	3.152687	5.554054	0.051288	0.040547	6.133954	29.361206	-66.858730	-71.365037			
39184	15.324927	3.274417	5.746925	-0.028947	0.142099	6.877994	29.680708	-67.437986	-71.561484			
39185	12.322308	3.320062	7.565300	-1.709122	2.491739	4.711949	29.249872	-67.768365	-71.463689			
39186	9.353140	1.980352	8.653473	-3.716124	3.388112	2.061443	28.485672	-68.096892	-71.394274			
39187	8.311569	1.336774	9.281779	-4.680033	3.825567	1.163707	28.078183	-68.557478	-71.521828			
39188	8.619910	2.098995	9.087103	-3.965590	4.257510	1.475808	28.038670	-69.148541	-71.741961			
39189	9.952604	3.057826	8.807515	-2.982051	4.427534	2.736382	28.215844	-69.810662	-71.975232			
39190	12.247111	3.679214	8.737986	-2.296996	4.198856	4.917293	28.124170	-70.361969	-71.894886			
39191	13.422517	3.466360	7.609823	-1.532807	3.086676	5.621376	27.508965	-70.809679	-71.482660			
39192	12.380705	1.931505	6.022154	-1.560550	1.438992	3.926730	26.526992	-71.128448	-71.016449			
39193	11.962808	-0.138028	5.214900	-2.456886	-0.287995	3.001478	25.608874	-71.368380	-70.735916			
39194	13.222260	-2.065507	7.586470	-5.262082	-0.359152	4.638237	24.387886	-71.070546	-70.066917			
39195	6.032844	-3.077951	4.182202	-4.408363	-1.083562	-3.274234	23.645333	-71.307075	-70.047222			
39196	8.234513	-4.780740	-1.080581	-1.946286	-6.305362	-2.864556	23.119984	-72.903486	-70.525008			
39197	12.547270	-11.891933	-7.805504	-2.563599	-16.646295	-1.090383	22.211211	-74.401112	-70.530482			
39198	12.625255	-9.338565	0.418849	-6.143031	-9.005055	1.498955	22.916868	-74.593184	-70.687315			
39199	12.307335	0.231289	7.940695	-4.131295	2.589054	4.000262	26.318707	-74.442141	-72.347436			
39200	18.117590	11.103623	13.216595	0.035656	11.968558	12.162374	31.174479	-74.604483	-75.191058			
39201	18.269129	8.552956	6.712434	2.332409	5.807991	10.504621	32.953031	-74.864196	-76.410455			
39202	12.093617	-1.009836	5.323438	-3.765200	-0.171934	2.891819	31.801822	-75.230547	-76.931148			
39203	10.023663	-7.486490	-0.740362	-4.371745	-8.035013	-1.246168	31.408406	-75.805623	-78.396624			
39204	7.839361	-8.503547	-7.274288	-0.950537	-12.662286	-4.768587	33.714954	-76.446533	-80.518307			
39205	5.960100	-3.900687	-9.198181	3.744799	-10.414582	-6.228071	38.909507	-77.158978	-83.965665			
39206	5.093368	0.580669	-8.555697	6.649238	-6.457200	-6.130806	46.044764	-77.666524	-88.423862			
39207	6.664632	4.562539	-6.714598	8.043393	-2.326338	-3.473100	54.024485	-77.832009	-93.234945			
39208	11.407686	12.641819	-3.101122	10.005364	5.465906	3.208273	59.057417	-77.694212	-95.579105			
39209	8.182239	15.739964	1.239018	8.179847	11.353120	1.161228	60.144960	-78.134149	-96.908734			
39210	8.611934	6.709391	-5.654232	8.310187	0.150020	-0.753455	61.939404	-79.113020	-100.042600			
39211	10.401811	3.279323	-6.043442	6.388270	-3.057705	0.449564	64.141277	-80.052052	-103.337613			
39212	11.058233	0.426422	-3.018325	2.135691	-3.379522	0.938737	65.369709	-80.689734	-105.619563			
39213	10.436701	-0.695755	-1.080270	-0.097600	-2.781430	0.327751	66.331454	-81.339608	-107.606549			
39214	9.544811	-1.478868	-1.486683	-0.316084	-3.383358	-0.650148	67.833630	-81.989249	-110.105551			
39215	8.914624	-1.618700	-1.733716	-0.253133	-3.457783	-1.264306	70.790601	-82.577581	-113.566079			
39216	9.255971	-0.502373	-0.606093	-0.398471	-1.815755	-0.711276	75.781928	-83.054390	-118.416364			
39217	9.946579	1.202956	-0.010802	0.212394	-0.130008	0.203208	81.473387	-83.408926	-123.738358			
39218	9.571248	2.374967	0.326460	0.710485	1.103640	-0.033534	86.887681	-83.729285	-129.037353			
39219	8.744834	2.123873	0.129408	0.699921	0.965649	-0.892140	93.625346	-84.081304	-136.074366			
39220	8.652826	0.713589	-1.196108	0.685605	-0.838757	-1.115794	102.822337	-84.345736	-145.773089			
39221	8.723378	-0.835142	-2.313773	0.375516	-2.611091	-1.141602	111.923055	-84.392677	-155.235859			
39222	8.605361	-1.256161	-1.784712	-0.357754	-2.437150	-1.283541	120.196325	-84.212374	-163.430126			
39223	8.947504	-0.595064	-1.322665	-0.348461	-1.536374	-0.886447	128.807071	-83.824399	-171.576039			
39224	9.603539	0.131067	-2.034111	0.512445	-1.371598	-0.105122	135.950518	-83.352983	-178.194730			
39225	9.553168	0.382272	-2.139656	0.689875	-1.126875	-0.104971	141.933806	-82.899910	176.232999			
39226	9.482157	-0.026980	-1.843967	0.140773	-1.108671	-0.217819	147.401469	-82.373305	171.080537			
39227	9.684048	-0.236768	-1.460162	-0.378189	-0.877884	-0.063157	152.401117	-81.784483	166.460458			
39228	9.648147	0.003505	-1.406390	-0.323421	-0.529862	-0.082451	156.884863	-81.185165	162.406892			
39229	9.592172	0.171997	-1.145291	-0.461940	-0.099575	-0.162510	161.077120	-80.587980	158.547011			
39230	9.601710	0.109159	-1.061424	-0.620027	0.044431	-0.171985	164.939922	-79.986366	154.917573			
39231	9.479400	0.190181	-1.171804	-0.512498	0.164361	-0.274503	168.408295	-79.386627	151.701423			
39232	9.068897	0.506243	-1.381585	-0.127972	0.368188	-0.633549	171.351513	-78.791968	149.037508			
39233	9.092458	0.694759	-1.504511	0.038387	0.562425	-0.587730	173.878636	-78.166638	146.765209			
39234	9.593670	0.788762	-1.009537	-0.411480	1.123051	-0.208122	176.022831	-77.493078	144.867397			
39235	10.232063	0.897192	-0.246545	-1.092357	1.881088	0.228602	177.827342	-76.818737	143.360745			
39236	10.248675	0.915509	0.202916	-1.488636	2.285825	0.110631	179.278054	-76.175980	142.251118			
39237	10.047639	0.913766	0.216879	-1.529151	2.366881	-0.122729	-179.447485	-75.525437	141.365173			
39238	10.045026	0.716370	-0.262960	-1.353665	2.027210	-0.038155	-178.204164	-74.848113	140.563847			
39239	10.207018	0.783166	-1.100671	-0.766809	1.718552	0.309834	-176.999855	-74.268952	139.809814			
39240	9.827095	0.970616	-0.913547	-0.766629	2.003812	-0.130504	-175.991740	-73.783474	139.135750			
39241	9.727403	0.856303	-1.396307	-0.481604	1.702113	-0.108284	-175.065203	-73.314581	138.425949			
39242	9.288010	0.124497	-2.424492	-0.061656	0.533849	-0.227735	-173.988331	-72.875309	137.573578			
39243	8.465780	-0.085277	-1.235304	-0.947675	0.950617	-1.362806	-173.129414	-72.461375	136.873254			
39244	8.524254	0.015596	-0.716467	-1.325578	1.400522	-1.478576	-172.417458	-72.014334	136.266645			
39245	8.848000	-0.478517	-1.867615	-0.828377	0.505717	-0.809270	-171.510183	-71.539189	135.645138			
39246	8.807825	-0.490645	-2.476939	-0.372909	0.233614	-0.660665	-170.439871	-71.116117	135.069341			
39247	8.535566	0.019871	-2.401732	-0.084095	0.712062	-0.974713	-169.305381	-70.656004	134.554908			
39248	8.774776	0.687074	-2.462019	0.271695	1.375705	-0.781465	-168.132766	-70.160698	134.098339			
39249	8.979132	1.300884	-2.510336	0.579438	2.008672	-0.634055	-167.032481	-69.653036	133.725592			
39250	9.124779	1.918223	-2.685537	0.989514	2.574386	-0.509705	-166.022285	-69.158197	133.411236			
39251	8.999061	2.377819	-3.154401	1.608916	2.798189	-0.530022	-165.131050	-68.707079	133.046295			
39252	8.757454	2.073452	-3.561520	1.801766	2.380196	-0.605942	-164.299271	-68.281425	132.538108			
39253	8.711330	1.378571	-3.732223	1.554952	1.791292	-0.534215	-163.646569	-67.862141	132.044721			
39254	8.942310	0.897358	-3.809534	1.278943	1.494132	-0.251617	-163.119464	-67.450116	131.602376			
39255	9.208214	0.466485	-3.924944	1.050955	1.228103	0.076742	-162.668649	-67.069294	131.179878			
39256	9.095218	-0.067542	-3.687312	0.582783	0.924050	-0.059227	-162.286071	-66.727312	130.743926			
39257	9.081864	-0.679436	-3.587052	0.157272	0.515980	-0.039380	-161.951201	-66.385736	130.325348			
39258	9.677853	-1.354051	-3.794553	-0.213796	0.104946	0.667569	-161.502242	-66.039165	129.893600			
39259	10.499660	-1.799237	-3.314820	-1.060085	0.287633	1.289614	-160.830782	-65.714458	129.406153			
39260	10.614482	-1.576756	-1.851992	-2.136932	1.251953	0.791509	-160.096079	-65.433183	128.904101			
39261	11.040874	-0.434969	-1.327432	-2.037582	2.635872	0.805803	-159.423219	-65.320973	128.266274			
39262	11.477570	-0.028135	0.211955	-3.126937	3.857982	0.537103	-158.777343	-65.299567	127.432593			
39263	12.168421	-0.052391	0.481606	-3.485452	4.242638	1.057287	-158.056108	-65.174595	126.662238			
39264	13.005450	0.697173	0.501683	-3.272579	5.207560	1.678646	-157.180954	-65.061392	126.090950			
39265	13.830734	2.670579	1.176889	-2.933228	7.463389	1.827763	-156.449900	-65.043323	125.580834			
39266	14.188479	2.792954	1.940157	-3.527232	8.047995	1.834879	-155.951793	-65.156270	125.026942			
39267	14.758072	2.786325	2.714553	-4.227145	8.584999	2.076872	-155.456378	-65.378143	124.501271			
39268	15.615206	3.339873	4.387577	-5.409109	10.064407	2.174324	-154.941178	-65.727724	123.978555			
39269	16.119646	3.884852	6.342454	-6.695955	11.524459	1.913727	-154.484204	-66.338302	123.244172			
39270	14.766672	3.648308	6.273555	-6.277665	10.796422	0.899155	-154.094181	-67.166591	122.293353			
39271	14.243136	2.434578	4.692465	-5.315166	8.824722	1.353268	-153.556127	-68.159555	121.097634			
39272	13.412255	1.600622	3.180881	-4.141393	7.051277	1.398366	-152.523637	-69.360916	119.518267			
39273	12.059590	1.128520	-0.091047	-1.267635	4.482973	1.367803	-150.823422	-70.732682	117.718577			
39274	11.635462	1.406207	-1.999201	0.733130	3.448397	1.541735	-149.002721	-72.052673	116.210254			
39275	11.751876	2.225546	-3.629543	2.705465	3.150869	1.976309	-147.439031	-73.308995	115.028640			
39276	12.622154	2.008556	-4.907795	3.720165	2.363566	3.149075	-146.179607	-74.568732	114.130772			
39277	12.985892	1.861814	-5.222099	4.040998	1.947229	3.575415	-145.100182	-75.919116	113.378169			
39278	12.813487	1.681324	-5.814040	4.621159	1.211845	3.528391	-144.474795	-77.238206	112.938672			
39279	13.028639	0.867893	-5.220591	3.805100	0.610614	3.711163	-144.378234	-78.482118	112.865429			
39280	14.661306	0.560339	-3.685365	2.338889	1.140017	5.089328	-144.546345	-79.748668	112.781909			
39281	14.939445	0.525624	-2.433400	1.395208	1.464994	5.196609	-144.095536	-81.150137	111.498294			
39282	13.637592	-0.238801	-3.220154	1.875969	-0.127038	4.074829	-143.172266	-82.538696	109.257665			
39283	12.931922	-1.341771	-4.707418	2.629318	-2.283545	3.568530	-141.868810	-83.808059	106.678141			
39284	11.995017	-1.881565	-5.238080	2.842787	-3.432905	2.636568	-139.670726	-85.012226	103.477048			
39285	11.499592	-1.683047	-4.057487	2.068042	-2.900902	1.970261	-136.294640	-86.204958	99.068133			
39286	12.065081	-1.312966	-3.697295	2.044486	-2.649924	2.424486	-128.132497	-87.516550	89.334356			
39287	11.392750	-1.335102	-3.053494	1.577921	-2.633920	1.653023	-90.514090	-88.701893	49.680683			
39288	10.625469	-2.103168	-3.018020	1.083079	-3.525497	0.809094	-27.177229	-88.345214	-15.309990			
39289	10.575728	-1.723649	-3.061910	1.417744	-3.549357	0.655252	-4.960355	-87.170223	-38.431434			
39290	11.541135	-0.558159	-2.678444	2.048666	-2.741999	1.543356	4.359714	-85.826078	-48.405624			
39291	11.636646	-0.581002	-3.387637	2.623742	-3.554597	1.487602	9.256422	-84.361234	-53.999799			
39292	11.243912	-1.039826	-3.652601	2.527217	-4.332751	0.942788	11.772315	-82.914268	-57.272317			
39293	10.957308	-1.597141	-3.980795	2.382746	-5.201028	0.469553	12.827001	-81.500811	-59.152150			
39294	10.037408	-2.191462	-3.652929	1.687224	-5.500645	-0.550582	12.981398	-80.131305	-60.194860			
39295	9.174458	-2.646093	-3.404643	1.124886	-5.699746	-1.505599	12.737028	-78.842282	-60.913777			
39296	8.176168	-3.088128	-2.821320	0.314385	-5.557601	-2.508046	12.369525	-77.597815	-61.500587			
39297	7.270374	-2.896894	-2.293325	0.018109	-4.998703	-3.369032	12.070325	-76.451574	-62.102804			
39298	6.625388	-2.746370	-2.031913	-0.114162	-4.675634	-4.008271	11.864808	-75.395344	-62.749582			
39299	6.304916	-2.798762	-2.088243	-0.174572	-4.763338	-4.406673	11.777170	-74.424370	-63.421938			
39300	5.724250	-2.875680	-2.258304	-0.217900	-4.870339	-5.083195	11.996950	-73.560550	-64.091708			
39301	5.494905	-2.670716	-2.565708	0.094819	-4.979786	-5.442139	12.707832	-72.833905	-64.858201			
39302	5.598282	-1.997055	-2.417306	0.560791	-4.542481	-5.315656	13.782993	-72.244961	-65.699312			
39303	5.465113	-2.191704	-2.795741	0.631468	-4.951821	-5.621327	15.142279	-71.740693	-66.611560			
39304	5.225946	-2.108233	-2.822888	0.707693	-4.889811	-5.899577	16.722556	-71.309300	-67.547365			
39305	4.934689	-1.768134	-2.801542	0.951916	-4.605842	-6.178686	18.442168	-70.972859	-68.535988			
39306	4.839624	-1.171842	-2.790766	1.418226	-4.212465	-6.231172	20.237992	-70.745037	-69.566895			
39307	4.810657	-0.525740	-2.532333	1.757282	-3.617309	-6.116938	21.974395	-70.616861	-70.639840			
39308	5.076324	0.307342	-1.819501	1.953400	-2.670417	-5.543355	23.456409	-70.554306	-71.668060			
39309	5.122351	0.265054	-2.153748	2.125342	-2.948506	-5.601208	24.687256	-70.549628	-72.671588			
39310	5.399234	1.103457	-1.230622	2.155562	-1.859573	-4.936289	25.653012	-70.542694	-73.536352			
39311	5.178433	0.937260	-1.660917	2.268666	-2.204396	-5.290852	26.167587	-70.554441	-74.279797			
39312	5.425119	0.979369	-1.517469	2.207008	-2.167341	-5.003790	26.499819	-70.611554	-74.862744			
39313	6.128086	1.020040	-1.197082	2.072405	-2.151003	-4.235481	26.413514	-70.676421	-75.199049			
39314	7.040143	1.099307	-0.573894	1.797686	-1.960398	-3.177432	25.982189	-70.749422	-75.320021			
39315	8.631945	1.033608	0.245163	1.357436	-1.921061	-1.439768	25.349483	-70.910080	-75.269638			
39316	9.828120	0.470562	1.373392	0.317903	-1.805580	-0.048562	24.570533	-71.179572	-75.184208			
39317	10.176241	-0.542552	2.316768	-1.021237	-1.786364	0.433441	23.870737	-71.502498	-75.078974			
39318	9.800781	-1.208233	4.033749	-2.623736	-0.742507	0.499953	23.484827	-71.793804	-74.995822			
39319	9.846696	-0.914402	6.416526	-3.856182	1.224537	1.259603	23.791382	-71.972477	-75.141994			
39320	10.326265	1.396616	9.310538	-3.831175	4.619231	2.806845	24.508036	-72.093638	-75.480635			
39321	10.869367	3.370960	10.640063	-3.156120	6.636977	3.924347	25.305473	-72.240429	-75.990231			
39322	10.995162	4.541335	10.150709	-2.008724	6.982526	4.035166	25.944736	-72.461361	-76.567310			
39323	11.170076	4.294633	8.933005	-1.480793	5.934812	3.810742	26.484543	-72.724226	-77.154945			
39324	11.815532	4.008028	8.332346	-1.355551	5.178011	4.203333	27.340120	-72.973421	-77.729377			
39325	12.556808	4.278980	8.218974	-1.123994	5.075054	4.901738	28.154053	-73.086798	-78.165891			
39326	12.607636	3.318228	7.169732	-1.260672	3.697255	4.543812	28.507913	-73.083510	-78.345187			
39327	11.149734	1.710328	6.046351	-1.881794	2.277292	2.640140	28.519813	-72.993397	-78.370317			
39328	10.622233	-0.103737	4.043504	-2.031450	-0.157436	1.369481	28.522442	-73.085750	-78.536295			
39329	12.304659	-1.744515	2.665871	-2.335870	-2.592451	2.409282	28.248424	-73.552050	-78.666061			
39330	14.752341	-4.257229	1.597378	-3.502463	-5.427423	4.207904	27.498285	-74.432828	-78.424624			
39331	17.976964	-7.331764	2.941182	-6.556309	-6.955460	7.339860	25.918505	-74.736047	-77.306493			
39332	9.429578	-3.134723	9.401124	-7.648806	2.660420	1.211757	24.272649	-73.806142	-75.918392			
39333	3.926639	3.553125	10.634644	-3.393256	9.080582	-2.944887	24.525232	-73.964208	-76.811882			
39334	12.070543	4.913454	0.658039	4.218011	0.198022	2.534019	25.880978	-74.563098	-79.110169			
39335	15.775877	2.611982	-4.377193	5.460134	-5.902394	4.685835	26.492606	-75.075482	-79.600832			
39336	11.402150	0.186813	-3.987927	3.042217	-5.834799	0.318816	26.129765	-75.316936	-79.527462			
39337	7.534173	-2.492684	-3.642612	0.432392	-6.133066	-3.612444	25.070424	-75.648471	-79.817910			
39338	5.480448	-5.738305	-6.843656	-0.655949	-9.947090	-6.584891	24.796184	-76.311500	-80.831312			
39339	4.172630	-7.521355	-9.652988	-0.750724	-12.844171	-8.537966	28.206555	-76.830522	-84.144376			
39340	5.873150	-3.089861	-5.420072	0.655194	-7.344792	-5.449227	34.241232	-77.824033	-88.288966			
39341	9.226063	0.329355	-4.127448	2.732371	-4.883932	-1.390259	42.347127	-78.858741	-93.784855			
39342	10.577846	5.332949	-4.276160	6.618844	-1.874238	0.736139	49.604751	-79.363386	-98.618117			
39343	9.754382	10.377086	-2.241219	8.962493	3.308237	0.984572	52.131549	-79.688471	-100.516399			
39344	8.408635	6.467624	-1.041254	5.242749	2.004854	-0.751059	54.272054	-80.658088	-103.549620			
39345	11.113440	2.545301	-2.746190	3.268991	-2.094827	1.253079	56.704639	-81.876697	-107.264467			
39346	12.259626	-1.217245	-3.171042	0.536808	-4.766916	1.969542	57.103846	-82.774760	-108.977084			
39347	10.380214	-2.908892	-2.244309	-1.340177	-4.699226	0.054764	57.038744	-83.477327	-109.957307			
39348	8.763600	-3.460647	-2.409045	-1.668181	-4.854734	-1.552724	59.813692	-84.170614	-113.369345			
39349	8.324801	-2.594337	-2.756851	-0.797310	-4.453809	-1.865414	67.189789	-84.850335	-120.654781			
39350	8.835188	-0.289077	-1.795088	0.407805	-2.213079	-1.077706	79.128423	-85.374854	-131.902475			
39351	9.604599	2.094233	-1.386803	1.940796	-0.326386	-0.082288	92.632006	-85.586318	-144.650120			
39352	10.020149	4.246090	-0.872054	3.205182	1.557312	0.506799	104.509235	-85.667739	-156.114744			
39353	9.315942	4.151996	0.325455	2.380596	2.616109	-0.240924	117.108825	-85.684606	-168.896642			
39354	9.260449	2.407085	-0.610082	1.556715	0.953806	-0.400632	131.259868	-85.430097	176.361782			
39355	9.443269	0.416372	-1.730154	0.599949	-0.984946	-0.272800	142.976578	-84.968072	163.939912			
39356	8.919202	-1.440741	-1.911396	-0.788301	-2.106645	-0.856127	150.617689	-84.440388	155.762354			
39357	8.677442	-1.955749	-0.960412	-1.796808	-1.522049	-1.181435	156.594481	-83.755100	149.739328			
39358	9.436194	-1.373288	-0.235775	-1.884135	-0.414301	-0.471407	161.698350	-82.878324	145.057617			
39359	10.410600	-0.384183	-0.302237	-1.222365	0.348810	0.531446	165.866185	-81.994500	141.582431			
39360	10.642371	0.502276	-0.200789	-0.674843	1.143641	0.760254	169.169910	-81.239855	139.009520			
39361	10.338527	1.041034	-0.630115	-0.010697	1.255678	0.521111	171.940292	-80.598079	136.849116			
39362	9.667563	0.974180	-0.733716	0.044199	1.187206	-0.141265	174.537535	-80.019439	134.761505			
39363	9.443272	0.741151	-0.768180	-0.114909	1.105647	-0.374579	176.895004	-79.419362	132.893694			
39364	9.429562	0.999329	-1.057305	0.237517	1.172061	-0.346873	179.051578	-78.785645	131.324850			
39365	9.496829	1.553682	-1.373354	0.817111	1.432636	-0.233118	-179.118290	-78.137760	130.075066			
39366	9.563660	2.089587	-1.318188	1.139570	1.959334	-0.198706	-177.661238	-77.526782	129.030577			
39367	9.550854	1.903533	-0.963346	0.735640	2.208300	-0.307351	-176.456632	-76.920916	128.025399			
39368	9.537680	0.945640	-1.390701	0.258768	1.369170	-0.228697	-175.513786	-76.268318	127.257916			
39369	9.697078	0.409275	-1.848527	0.092040	0.817484	0.033132	-174.729411	-75.677172	126.717300			
39370	9.407999	0.091963	-1.154795	-0.590133	1.143392	-0.421414	-173.994793	-75.097584	126.235043			
39371	9.685374	-0.114026	-0.874979	-1.003468	1.354990	-0.234521	-173.247658	-74.530203	125.737177			
39372	9.803303	0.003019	-0.756882	-1.041841	1.631155	-0.172623	-172.439310	-74.036402	125.173329			
39373	9.590565	-0.116621	-0.865644	-1.046730	1.510855	-0.359491	-171.604061	-73.553647	124.565276			
39374	9.336969	-0.286455	-1.794464	-0.534607	0.774669	-0.347249	-170.634908	-73.062904	123.954529			
39375	9.045171	0.053607	-1.880099	-0.193732	0.967004	-0.626859	-169.618765	-72.567136	123.459359			
39376	8.873292	0.556061	-1.703322	0.065936	1.480890	-0.882532	-168.669590	-72.053928	123.040994			
39377	8.989185	0.633949	-1.299929	-0.190476	1.929848	-0.916859	-167.748811	-71.511792	122.635179			
39378	9.037383	0.572025	-1.025233	-0.453184	2.171105	-0.973409	-166.968919	-71.001982	122.274704			
39379	8.878534	0.300776	-0.951531	-0.690139	2.065152	-1.147666	-166.276632	-70.537768	121.933421			
39380	9.278797	-0.087831	-0.714120	-1.215958	2.131101	-0.835318	-165.615076	-70.108332	121.609320			
39381	9.809849	-0.005321	-0.156684	-1.653615	2.769390	-0.546978	-164.963574	-69.723418	121.309972			
39382	10.210612	0.511309	0.113028	-1.566177	3.487961	-0.330511	-164.312701	-69.392150	120.969188			
39383	10.288254	0.642701	-0.500763	-1.067918	3.273581	-0.083611	-163.640594	-69.127928	120.534289			
39384	9.804764	0.632336	-1.589637	-0.223127	2.486879	-0.178084	-162.924731	-68.906836	120.110678			
39385	9.939400	0.973872	-2.122123	0.366885	2.498438	0.080056	-162.174543	-68.669184	119.806124			
39386	10.430937	1.155656	-1.999770	0.316372	2.922069	0.458639	-161.430644	-68.438798	119.586215			
39387	10.374413	0.866873	-1.611700	-0.145941	2.986314	0.288695	-160.741479	-68.263427	119.371601			
39388	10.001456	0.301468	-1.343589	-0.646918	2.654652	-0.093662	-160.155664	-68.141447	119.173912			
39389	9.963782	0.178031	-1.350041	-0.709587	2.575759	-0.117681	-159.591198	-68.073456	118.982917			
39390	10.461411	0.679534	-1.216449	-0.551315	3.206460	0.227097	-159.081959	-68.060808	118.745917			
39391	11.096085	0.747913	-1.278273	-0.552910	3.441056	0.825442	-158.525091	-68.109491	118.372985			
39392	12.065135	0.964991	-1.379817	-0.472065	3.864307	1.730568	-157.938747	-68.226857	117.956332			
39393	12.598202	1.431223	-0.819856	-0.624770	4.705321	1.973093	-157.316213	-68.411534	117.477974			
39394	12.770000	1.561901	-0.137718	-1.016956	5.237515	1.894801	-156.733248	-68.656637	116.968009			
39395	13.081671	1.327216	0.696324	-1.785431	5.625038	1.957928	-156.187112	-68.880460	116.552021			
39396	13.805682	1.443264	2.362411	-3.022211	6.884980	2.092095	-155.664199	-69.120831	116.242942			
39397	14.663074	2.326123	5.101164	-4.582200	9.372453	1.917545	-155.320620	-69.429354	115.868781			
39398	15.817488	2.222853	7.967493	-6.867392	11.288281	2.188375	-155.119869	-69.962904	115.281303			
39399	16.003635	1.850936	9.758244	-8.266827	12.073401	2.046777	-154.533644	-70.914272	114.029859			
39400	13.447381	0.701109	6.699488	-6.145552	8.551860	0.924814	-153.781184	-72.036156	112.247597			
39401	13.379420	-1.461430	2.978746	-4.609952	4.559950	2.351459	-152.734027	-73.086089	110.187057			
39402	13.671866	-2.344928	1.624872	-4.017899	2.983574	3.225818	-150.199760	-74.405781	107.474958			
39403	12.812663	-0.314916	-0.884285	-0.476008	2.357906	2.806648	-146.798680	-75.859010	104.368590			
39404	12.216077	-0.878614	-4.385130	2.008050	-0.717831	3.019881	-142.913808	-77.267692	101.049818			
39405	12.659913	-0.717285	-4.629974	2.547714	-0.904579	3.412466	-138.690852	-78.614965	97.772784			
39406	13.598637	-0.356579	-5.742534	3.851067	-1.402346	4.372488	-134.595649	-79.889857	94.550716			
39407	13.637592	-0.944786	-6.484981	4.271359	-2.554838	4.475401	-130.418966	-81.169658	91.218151			
39408	13.025496	-1.036308	-6.179218	4.174621	-2.769173	3.745215	-126.447800	-82.389168	88.067515			
39409	13.061058	-0.966069	-5.013020	3.450417	-2.231402	3.594912	-122.306624	-83.553151	84.511792			
39410	13.303657	-0.666518	-3.733421	2.735686	-1.444278	3.670383	-116.768289	-84.633968	79.113922			
39411	13.188493	-1.024486	-3.158366	2.167350	-1.654998	3.510878	-107.322501	-85.595243	69.553469			
39412	12.483334	-0.102516	-3.263106	2.914152	-1.309972	2.688369	-92.144774	-86.354646	54.230322			
39413	11.722557	0.556465	-3.853344	3.865793	-1.442440	1.829719	-72.869236	-86.801546	34.898652			
39414	11.462998	1.280773	-3.928240	4.441898	-1.157126	1.474360	-51.413763	-86.918654	13.370272			
39415	11.229367	1.924947	-3.244734	4.360694	-0.477617	1.191051	-30.684442	-86.563073	-7.886972			
39416	10.852164	0.923016	-3.199726	3.744398	-1.500234	0.797756	-16.337900	-85.817823	-23.281839			
39417	10.206803	-0.086096	-3.451653	3.286847	-2.703556	0.085797	-6.682994	-84.815423	-34.434574			
39418	9.600506	-1.363135	-3.570384	2.484506	-3.978491	-0.605699	-1.294598	-83.748107	-41.370037			
39419	8.213821	-3.224730	-4.431979	1.703143	-6.034994	-2.184948	2.771022	-82.698114	-46.369839			
39420	8.430559	-2.579386	-3.760435	1.662218	-5.289647	-1.994611	6.629705	-81.772435	-50.522498			
39421	8.795839	-1.753038	-2.451472	1.334194	-3.994158	-1.523319	9.864793	-80.826490	-54.117153			
39422	8.403782	-1.624380	-2.600135	1.485427	-4.110109	-2.007501	12.406302	-79.890652	-57.168181			
39423	7.951701	-1.261335	-2.398754	1.543287	-3.793549	-2.477856	14.424782	-78.963957	-59.676191			
39424	7.476560	-0.793054	-2.505683	1.891463	-3.591451	-3.006171	16.088528	-78.136095	-61.765568			
39425	7.124541	-0.414907	-2.797582	2.314722	-3.582777	-3.443838	17.435942	-77.368988	-63.503679			
39426	6.499190	-0.085403	-2.898426	2.546120	-3.405598	-4.106039	18.407386	-76.637093	-64.899036			
39427	6.021401	-0.167313	-3.219687	2.640515	-3.677583	-4.698606	18.980283	-75.935278	-65.982407			
39428	5.501472	0.073496	-2.869225	2.512166	-3.233391	-5.150326	19.374946	-75.311497	-66.938293			
39429	5.578468	-0.144276	-3.119908	2.499470	-3.647988	-5.195532	19.447714	-74.759849	-67.728868			
39430	5.510824	-0.372197	-2.602413	1.952917	-3.479490	-5.191108	19.269775	-74.248108	-68.390817			
39431	5.349238	-0.999943	-2.514330	1.366417	-3.837067	-5.414339	18.925324	-73.789916	-68.962345			
39432	5.108596	-1.572205	-2.174182	0.645013	-3.929039	-5.636210	18.567016	-73.400063	-69.500601			
39433	4.981517	-2.018331	-1.975643	0.116624	-4.051143	-5.767106	18.282951	-73.082095	-70.065484			
39434	4.768066	-3.349196	-2.398312	-0.747830	-5.127834	-6.228092	18.268709	-72.861242	-70.645411			
39435	4.719957	-3.832779	-1.975547	-1.425602	-5.091087	-6.218331	18.760177	-72.719524	-71.308362			
39436	4.839691	-3.296968	-1.084061	-1.532954	-4.144964	-5.820561	19.575635	-72.605985	-72.045905			
39437	5.037341	-2.766938	-0.747206	-1.300165	-3.649018	-5.501859	20.632638	-72.525753	-72.793267			
39438	5.235190	-1.423886	0.432551	-0.934287	-2.037229	-4.852997	21.778157	-72.500581	-73.558256			
39439	6.059995	-0.660904	0.706499	-0.449011	-1.622608	-3.911421	22.966025	-72.569950	-74.342190			
39440	6.849495	1.116004	2.110441	0.113504	0.269413	-2.564975	24.110954	-72.734496	-75.149048			
39441	7.855452	1.682042	2.940812	0.075375	0.959296	-1.312121	24.842964	-73.002222	-75.941658			
39442	8.568808	0.837283	2.872512	-0.529692	0.226441	-0.754832	25.391986	-73.293528	-76.684012			
39443	9.347342	0.158797	3.854022	-1.652434	0.371003	0.156414	25.994419	-73.582718	-77.498579			
39444	11.264729	-0.129863	5.866770	-3.048677	1.214316	2.457623	26.909004	-73.792877	-78.489149			
39445	13.475857	0.160935	8.523685	-4.406973	2.781701	5.257738	28.131879	-73.801718	-79.532830			
39446	14.869179	3.334371	11.930540	-4.070644	6.784666	7.849221	29.450582	-73.514687	-80.365830			
39447	14.143093	6.895887	14.190476	-2.845696	10.697923	8.253967	30.158310	-73.115318	-80.934799			
39448	12.428770	7.490606	13.399814	-1.941688	10.865986	6.567088	30.023300	-72.817914	-81.264869			
39449	9.994041	5.329088	10.891887	-2.080103	8.371548	3.321337	29.709935	-72.659014	-81.506550			
39450	8.695987	3.779880	9.525224	-2.441550	6.817200	1.509939	29.668299	-72.698160	-81.928757			
39451	8.048540	2.363330	7.891847	-2.564244	4.979536	0.250823	29.822599	-72.858244	-82.446639			
39452	8.635269	1.657918	5.926012	-1.908670	2.950162	0.191689	29.991004	-73.037137	-82.921189			
39453	9.406642	0.994650	2.517401	-0.374139	-0.217873	-0.033933	30.020036	-73.179039	-83.288861			
39454	11.087014	0.486999	-0.688793	1.158214	-3.407901	0.707669	30.266944	-73.480783	-83.780018			
39455	12.695651	-1.081123	-3.212172	1.397017	-6.628049	1.447083	30.605982	-74.012431	-84.197013			
39456	12.639979	-2.849732	-4.710270	0.828107	-8.662859	0.880440	30.761716	-74.776837	-84.261708			
39457	10.442802	-4.749363	-6.492998	0.288706	-10.444181	-1.775203	31.324968	-75.488585	-84.661108			
39458	10.798303	-2.821666	-4.696469	0.776834	-7.928711	-0.693864	32.727611	-76.026984	-85.567262			
39459	17.527950	1.342011	2.910717	-0.382712	-1.180009	7.962664	33.607412	-76.070744	-85.929788			
39460	28.215398	12.227286	23.930970	-4.005240	18.270176	24.366998	30.130192	-73.941863	-83.065197			
39461	5.817410	11.458169	17.065578	-0.077384	18.003978	1.676194	24.156151	-72.292658	-81.033615			
39462	2.104280	-0.496209	2.424187	-1.541280	1.121504	-7.183517	18.333819	-72.918865	-80.441577			
39463	11.594160	-12.583526	-8.708052	-6.927744	-16.108294	-2.001002	12.927118	-74.412533	-78.346607			
39464	6.700174	-22.012015	-10.774495	-15.262804	-20.178229	-7.489666	14.081142	-74.852145	-79.281080			
39465	6.012110	-10.881127	-6.421141	-6.831590	-11.705329	-6.336521	18.311505	-75.663615	-81.860051			
39466	4.971494	-7.720745	-8.700990	-2.757450	-12.153334	-7.640661	22.667260	-76.060716	-84.450674			
39467	2.612164	-2.541244	-6.914211	1.215562	-7.678732	-9.013100	28.953227	-76.478701	-88.227048			
39468	3.554801	1.701278	-5.523703	4.373709	-4.463642	-7.171427	38.966466	-77.371446	-94.995184			
39469	14.510615	9.769916	-6.934279	11.516112	-2.905928	4.777974	50.677920	-78.023495	-102.128554			
39470	14.672302	21.312328	4.216327	13.053965	13.444385	8.519485	52.501041	-78.235093	-102.133920			
39471	9.859594	7.954011	-1.898847	6.886512	1.621288	0.865797	52.312132	-79.079830	-103.427048			
39472	11.704925	1.158780	-4.735810	3.338934	-4.984118	1.357885	53.201465	-80.391901	-105.357107			
39473	10.857429	-2.270844	-4.590872	0.540959	-6.663898	0.158046	51.857051	-80.977236	-104.902423			
39474	8.187740	-2.649047	-2.489706	-0.952088	-4.748229	-2.275942	51.758132	-81.408314	-105.323877			
39475	7.661263	-2.021411	-1.855024	-0.831750	-3.724006	-2.625106	55.138924	-81.997375	-108.490663			
39476	9.043034	-0.067981	-2.083462	0.758502	-2.816162	-1.002859	63.000431	-82.587218	-115.350516			
39477	10.731028	2.943886	-2.302387	3.075367	-1.169842	1.063422	72.052273	-82.972685	-123.105517			
39478	9.910650	5.172447	-0.815724	3.821931	1.636845	0.596560	77.000322	-83.281516	-127.693185			
39479	7.790726	3.185815	-0.281898	2.060765	1.124271	-1.724904	84.160845	-83.851912	-135.135588			
39480	8.692161	2.237763	-2.464991	2.600741	-1.085549	-0.941809	94.960548	-84.460387	-146.335815			
39481	9.049173	1.064372	-3.481918	2.250409	-2.461433	-0.646525	106.573506	-84.860231	-158.370155			
39482	9.234684	0.297459	-2.649964	1.077174	-2.126183	-0.501037	118.077427	-84.930532	-170.116783			
39483	9.482074	0.347071	-1.631851	0.421277	-1.134460	-0.261451	129.373535	-84.702548	178.501537			
39484	9.338268	0.028120	-1.579326	0.100290	-1.128944	-0.409950	138.920711	-84.315334	168.794034			
39485	8.929154	-0.820962	-1.415476	-0.674076	-1.372026	-0.864594	147.416290	-83.838534	160.116353			
39486	9.058632	-1.655083	-1.124363	-1.560565	-1.491933	-0.790551	154.500782	-83.258212	152.963464			
39487	9.316028	-1.888146	-1.052717	-1.852746	-1.412626	-0.537367	160.013850	-82.579071	147.585832			
39488	9.594083	-1.369273	-0.863282	-1.626445	-0.780681	-0.251834	164.601985	-81.823379	143.435238			
39489	9.888707	-0.347250	-0.775264	-0.952629	0.091099	0.066099	168.335968	-81.071069	140.263176			
39490	9.898462	0.438148	-0.870521	-0.322988	0.651536	0.106929	171.419048	-80.401879	137.722036			
39491	9.773685	0.900225	-0.852994	0.006649	1.078889	-0.019968	174.252767	-79.789568	135.431549			
39492	9.526044	1.187166	-1.000204	0.323213	1.252417	-0.248133	176.868444	-79.165030	133.371845			
39493	9.348824	1.497178	-1.105467	0.620647	1.483984	-0.417204	179.251308	-78.523042	131.595487			
39494	9.241477	1.831505	-1.114923	0.860085	1.815199	-0.540906	-178.667262	-77.842325	130.117725			
39495	9.163274	1.985129	-1.214249	1.011288	1.969513	-0.621536	-176.806921	-77.124683	128.790709			
39496	9.219402	1.770815	-1.215310	0.805297	1.971982	-0.589282	-175.195217	-76.384715	127.568064			
39497	9.194263	1.119714	-1.169524	0.259316	1.694601	-0.635782	-173.829963	-75.636845	126.451253			
39498	9.280847	0.495074	-1.096218	-0.297961	1.468563	-0.575045	-172.640596	-74.899851	125.477743			
39499	9.503316	0.258621	-0.785773	-0.745027	1.696300	-0.455149	-171.542226	-74.195653	124.657449			
39500	9.639718	0.297314	-0.550084	-0.925203	2.030588	-0.414030	-170.466988	-73.568556	123.945943			
39501	9.433582	0.493100	-0.351205	-0.908579	2.355264	-0.703060	-169.406500	-73.006405	123.284129			
39502	9.201202	0.486573	-0.141237	-1.035610	2.527698	-1.011756	-168.389524	-72.508134	122.578942			
39503	9.090765	0.289500	-0.049560	-1.232250	2.509421	-1.157513	-167.446283	-72.032362	121.791566			
39504	9.315742	-0.054849	-0.142969	-1.459630	2.351703	-0.916351	-166.612858	-71.539498	120.988649			
39505	9.989570	-0.191430	-0.399337	-1.502790	2.359930	-0.212732	-165.897651	-71.015088	120.271207			
39506	10.373531	-0.043353	-1.000759	-1.064283	2.261654	0.304872	-165.278332	-70.528966	119.645460			
39507	10.096114	0.326165	-1.342278	-0.531665	2.294157	0.101606	-164.716752	-70.101686	119.138811			
39508	10.013186	0.396885	-1.452731	-0.399914	2.323280	0.034838	-164.085215	-69.701843	118.679904			
39509	10.176111	0.247179	-1.596243	-0.442263	2.251447	0.232074	-163.396388	-69.336961	118.254057			
39510	10.152056	-0.075314	-1.783248	-0.540670	1.971818	0.290236	-162.591094	-69.015971	117.822163			
39511	9.898512	-0.347529	-2.299608	-0.331287	1.441337	0.247224	-161.663038	-68.689398	117.454727			
39512	10.037648	0.153487	-2.469511	0.128717	1.802866	0.366163	-160.731555	-68.387889	117.150587			
39513	10.088756	0.825936	-2.260715	0.456730	2.493802	0.244549	-159.937389	-68.163290	116.821452			
39514	10.058736	1.071259	-2.248231	0.635547	2.715346	0.167449	-159.383856	-68.031525	116.476213			
39515	10.148570	1.101664	-2.451586	0.804708	2.666149	0.309636	-158.961576	-68.031770	116.044986			
39516	9.961837	0.458806	-2.579000	0.509712	2.075866	0.263563	-158.516947	-68.090954	115.577584			
39517	10.257668	0.360251	-2.539414	0.399711	2.132831	0.535709	-158.002304	-68.170990	115.171413			
39518	10.573816	0.494332	-2.088307	0.160989	2.618693	0.652846	-157.338102	-68.242895	114.730099			
39519	11.875535	0.328290	-1.649744	-0.426148	3.222764	1.732432	-156.528070	-68.266542	114.256701			
39520	12.861308	0.573547	-0.059622	-1.502947	4.721482	2.069837	-155.725307	-68.295199	113.770670			
39521	12.808948	0.729070	0.979328	-2.097732	5.457561	1.649171	-155.057410	-68.347099	113.277872			
39522	13.458015	0.927224	1.844976	-2.649120	6.351062	1.935842	-154.428672	-68.378266	112.860535			
39523	14.255590	1.733325	3.693224	-3.528427	8.313492	1.947504	-153.721958	-68.515513	112.425072			
39524	14.633488	3.010920	5.391678	-3.918042	10.361681	1.569702	-153.175620	-68.775117	111.930592			
39525	15.588668	2.830260	6.808208	-5.095834	11.362795	2.115622	-152.763530	-69.309958	111.100242			
39526	15.115007	1.460636	7.802259	-6.469194	10.776791	1.740357	-152.143915	-70.196525	109.633072			
39527	13.387504	-0.895876	4.189722	-5.034661	6.215568	1.745574	-151.108321	-71.218251	107.694138			
39528	12.708044	-1.635787	0.592021	-2.714650	3.059512	2.344041	-149.578776	-72.153180	105.859497			
39529	13.530759	0.602439	1.496611	-1.672451	5.285149	2.635056	-147.160738	-73.284891	103.582830			
39530	12.332868	1.681293	-1.003419	1.162168	3.855549	2.007155	-144.191010	-74.622219	100.820428			
39531	12.226059	2.034174	-3.384111	3.337021	2.271303	2.384191	-141.228744	-75.955140	98.111398			
39532	12.878990	1.095514	-4.516635	3.684553	0.763206	3.351726	-138.333198	-77.258357	95.665017			
39533	13.917400	0.987489	-4.734095	3.924000	0.507250	4.379469	-135.481552	-78.560832	93.463455			
39534	14.255591	1.208819	-4.437539	3.999328	0.649518	4.607773	-132.810552	-79.861440	91.259793			
39535	13.616602	0.104813	-4.685851	3.570604	-0.735000	4.118654	-130.435376	-81.098624	88.935976			
39536	13.648040	-1.168619	-4.749727	2.857012	-2.009302	4.258099	-128.039215	-82.240871	86.394347			
39537	13.472774	-1.358276	-4.178829	2.373316	-2.091812	4.000600	-124.270151	-83.365781	82.287828			
39538	12.870227	-0.857086	-3.367973	2.169555	-1.549142	3.248922	-118.274550	-84.457087	75.576260			
39539	12.095999	-0.615433	-3.875531	2.754260	-2.086551	2.425130	-109.208914	-85.426531	65.615451			
39540	11.767946	-0.548193	-3.784381	2.781764	-2.287985	2.024804	-95.633597	-86.204629	51.258965			
39541	11.566833	-0.377993	-3.060287	2.432477	-1.948869	1.744912	-76.539393	-86.708734	31.519627			
39542	11.101817	-0.782205	-2.961167	2.107418	-2.450634	1.240687	-52.557620	-86.778201	6.972883			
39543	10.237899	-0.431513	-3.053445	2.410692	-2.550911	0.286766	-29.681344	-86.337489	-16.532281			
39544	9.776314	-0.136029	-2.719538	2.383562	-2.354937	-0.233627	-15.366457	-85.572058	-31.692881			
39545	9.633273	-1.111285	-3.443995	2.147952	-3.776346	-0.484411	-6.738031	-84.656612	-41.329777			
39546	9.147907	-1.875342	-3.009009	1.231736	-4.143868	-1.005727	-0.848577	-83.661066	-48.202797			
39547	8.775409	-2.778519	-3.625608	0.890810	-5.349795	-1.538886	3.573085	-82.684681	-53.303310			
39548	8.475893	-2.330523	-3.082928	0.835189	-4.783388	-1.863141	7.346788	-81.689380	-57.487517			
39549	8.341933	-1.574350	-2.770454	1.189515	-4.206699	-2.026300	10.290109	-80.672128	-60.887859			
39550	7.951565	-1.358326	-2.736069	1.283889	-4.142129	-2.481212	12.421996	-79.676976	-63.558240			
39551	7.537513	-1.248104	-2.860218	1.386584	-4.236987	-2.980682	14.142319	-78.810385	-65.801362			
39552	7.554226	-0.796271	-3.194019	1.914543	-4.339849	-3.074686	15.339135	-77.986272	-67.601614			
39553	7.272561	-0.789345	-3.351799	1.954697	-4.521241	-3.450009	16.081482	-77.178759	-69.059926			
39554	7.012452	-0.768005	-3.400639	1.936813	-4.602306	-3.779881	16.492861	-76.424975	-70.256501			
39555	6.555405	-0.822794	-3.302663	1.750832	-4.554650	-4.267737	16.553485	-75.735575	-71.216394			
39556	6.108954	-1.111841	-2.962270	1.234094	-4.429248	-4.695224	16.256909	-75.094703	-71.909574			
39557	5.871138	-1.446606	-2.815641	0.803914	-4.505464	-4.960408	15.850243	-74.526026	-72.494477			
39558	5.499077	-2.186513	-2.814076	0.095529	-4.854941	-5.412732	15.325829	-74.036580	-72.969736			
39559	5.216863	-2.901183	-2.788558	-0.602173	-5.161394	-5.762296	15.058461	-73.647918	-73.409914			
39560	5.222298	-3.284281	-2.710848	-1.013152	-5.310441	-5.790231	15.061066	-73.376372	-73.888099			
39561	4.883081	-3.990039	-2.487323	-1.784684	-5.403149	-6.128602	15.509855	-73.190476	-74.394320			
39562	5.013790	-3.742016	-1.999390	-1.813922	-4.930474	-5.870813	16.270821	-73.047799	-74.979068			
39563	4.817234	-4.020437	-2.111917	-2.000005	-5.131293	-6.138522	17.344816	-72.908543	-75.583917			
39564	4.750569	-2.693608	-1.216015	-1.315445	-3.735249	-5.860537	18.685813	-72.770881	-76.225231			
39565	4.603744	-1.456488	-0.481283	-0.656014	-2.481220	-5.694362	19.975946	-72.689804	-76.875714			
39566	4.769884	-0.267514	-0.154014	0.171578	-1.648230	-5.329278	21.248506	-72.720955	-77.641478			
39567	5.576640	1.144274	0.503387	1.019536	-0.598596	-4.221285	22.500009	-72.868506	-78.580944			
39568	6.435284	1.602304	1.349549	0.949492	0.083156	-3.112467	23.477399	-73.080400	-79.626932			
39569	8.198243	1.320573	2.051061	0.381200	0.005135	-1.267725	24.321341	-73.342017	-80.674634			
39570	10.167901	0.983767	3.780104	-0.789936	0.673396	1.030079	24.786234	-73.518747	-81.475854			
39571	12.319540	0.473570	6.190986	-2.461832	1.738003	3.649939	25.271153	-73.459063	-82.209833			
39572	15.090615	0.635272	10.292471	-4.485545	4.256045	7.386997	26.244808	-73.076740	-83.014446			
39573	16.070345	3.277446	14.294800	-4.571128	8.330916	9.758329	27.776781	-72.340354	-83.653738			
39574	13.822649	7.748475	16.447694	-2.386049	12.815943	8.940352	29.061407	-71.679699	-84.172008			
39575	10.571663	7.244826	14.271883	-1.799763	11.689928	5.288285	29.361765	-71.307004	-84.545353			
39576	8.733650	4.184293	10.883532	-2.438416	7.919976	2.169138	29.465765	-71.139733	-84.906985			
39577	8.157595	2.770448	9.451671	-2.810277	6.206324	1.010419	29.882709	-71.040822	-85.333840			
39578	9.024714	1.526608	8.217370	-3.141978	4.269614	1.286835	30.200165	-70.913277	-85.539073			
39579	9.002552	1.375326	5.687278	-1.861206	2.211148	0.527974	30.481731	-70.871987	-85.655431			
39580	9.045111	0.547921	1.932758	-0.426106	-1.153446	-0.629128	30.584103	-70.985180	-85.890997			
39581	9.785916	-0.060298	-1.983024	1.281219	-4.716298	-1.105534	31.178724	-71.457396	-86.518178			
39582	12.143816	-1.632139	-4.381231	1.347291	-8.059333	0.314436	32.114170	-72.470682	-87.287924			
39583	13.840380	-4.604411	-5.299651	-0.562437	-10.744797	1.370878	32.354706	-73.279005	-87.311493			
39584	9.370043	-3.044439	-0.767434	-1.907442	-4.966021	-1.484701	31.750516	-73.422396	-86.489072			
39585	7.030715	-0.419578	5.512152	-3.368434	2.069673	-1.790173	30.719695	-73.350328	-85.570172			
39586	11.837720	4.484207	11.367066	-2.513267	7.982785	4.999710	29.990064	-73.190452	-85.368344			
39587	18.758094	8.445269	7.844224	3.012438	5.369490	11.325280	29.620936	-73.211073	-85.526387			
39588	17.816284	5.685452	3.067828	3.530226	0.364767	8.803306	27.028160	-73.382817	-84.298121			
39589	12.343175	-2.549429	0.495293	-2.003704	-4.339498	1.859805	20.915440	-73.699936	-81.306867			
39590	6.577239	-13.812251	-0.387300	-11.780200	-8.376327	-4.795458	15.371208	-73.971052	-79.665190			
39591	6.037984	-18.154787	-11.748037	-11.210703	-19.403729	-8.442651	17.605533	-74.608504	-82.562452			
39592	4.654525	-7.944191	-10.871167	-2.252409	-14.017529	-8.641848	22.731936	-75.569356	-85.415969			
39593	4.290239	-2.948180	-8.538255	1.567506	-9.671085	-7.813921	29.912164	-76.437848	-89.585775			
39594	5.258030	1.071304	-5.478789	3.759749	-5.164745	-5.571334	39.427805	-77.433793	-95.829944			
39595	13.438214	7.284238	-4.569706	8.104091	-2.318318	3.729910	51.047432	-78.131961	-103.507897			
39596	13.603694	17.582154	1.286413	12.222105	8.920028	6.523497	54.246853	-78.236611	-105.046851			
39597	7.983080	8.981926	-2.646261	8.193287	1.944968	-0.840827	55.637702	-79.115147	-107.324108			
39598	9.509138	3.247970	-4.333688	4.673088	-3.037302	-0.395218	58.142782	-80.264967	-110.610993			
39599	10.527346	0.862927	-1.980497	1.256210	-2.630846	0.530936	59.798114	-81.156534	-112.974645			
39600	10.509316	-0.798486	-1.827435	-0.177046	-3.335124	0.349313	61.321687	-81.983412	-115.224464			
39601	9.524757	-1.530221	-2.541837	-0.305054	-4.070769	-0.710069	63.365903	-82.720698	-117.736642			
39602	8.730086	-0.875755	-2.517773	0.229062	-3.460903	-1.369428	68.584542	-83.311053	-122.908070			
39603	9.425927	1.391975	-2.158645	1.755163	-1.782509	-0.368928	77.280918	-83.706145	-130.970663			
39604	9.797896	4.507062	-1.618186	3.831208	0.609313	0.379424	84.466895	-83.908497	-137.735065			
39605	8.584780	4.581548	0.257162	2.817904	2.371374	-0.802132	91.380815	-84.276697	-144.889695			
39606	9.044601	3.063241	-0.497827	2.005905	0.970423	-0.513830	102.023100	-84.728945	-156.252331			
39607	9.651083	1.263406	-2.005371	1.368011	-1.168725	-0.039174	113.539985	-85.045944	-168.733728			
39608	9.071734	-0.613605	-2.488539	0.130648	-2.479340	-0.718746	123.603364	-85.193090	-179.713354			
39609	8.806537	-2.058138	-2.116190	-1.281164	-2.840749	-1.063038	132.812132	-85.134966	170.437422			
39610	8.779716	-2.556485	-1.293560	-2.174249	-2.292854	-1.134777	141.552417	-84.822938	161.434373			
39611	8.937074	-2.594661	-0.891751	-2.472963	-1.837261	-0.986249	148.997702	-84.232714	154.039487			
39612	9.466194	-2.355460	-0.840813	-2.392023	-1.503421	-0.438249	155.293364	-83.468401	148.175670			
39613	9.879453	-1.862573	-0.857592	-2.057594	-1.081091	0.005870	160.173705	-82.681306	143.947679			
39614	9.830453	-1.441710	-0.837504	-1.754060	-0.701353	-0.022501	164.187760	-81.961059	140.733772			
39615	9.753478	-0.875462	-0.946836	-1.249998	-0.348444	-0.060350	167.683940	-81.281256	138.143581			
39616	9.712741	-0.013157	-1.187893	-0.434583	0.085966	-0.037675	170.844177	-80.625602	136.020057			
39617	9.751730	1.036141	-1.272816	0.417623	0.793547	0.035351	173.735415	-79.972337	134.344622			
39618	9.905616	2.262001	-0.675591	0.947393	2.184711	0.087883	176.252645	-79.332599	133.162648			
39619	10.155469	3.413776	0.102608	1.236636	3.698434	0.166656	178.503103	-78.709572	132.163467			
39620	10.250322	4.019769	0.784327	1.156312	4.762993	0.077565	-179.498566	-78.103626	131.040875			
39621	9.950455	3.341715	0.305620	0.933371	4.049230	-0.168884	-177.747568	-77.496977	129.714995			
39622	9.690491	2.078859	-1.093206	0.906046	2.267070	-0.145184	-176.333042	-76.894601	128.502944			
39623	9.414286	0.942467	-1.687911	0.461639	1.135983	-0.280553	-175.288629	-76.323360	127.608120			
39624	9.465198	0.213439	-1.549246	-0.206204	0.850371	-0.259191	-174.489870	-75.790505	126.933773			
39625	9.519989	-0.415180	-1.559374	-0.697535	0.518321	-0.196120	-173.641647	-75.315309	126.208362			
39626	9.162401	-0.744525	-1.615140	-0.864280	0.259827	-0.523032	-172.793002	-74.937951	125.493750			
39627	8.926667	-0.427182	-1.452284	-0.705378	0.606184	-0.806488	-171.813798	-74.600246	124.705237			
39628	8.990408	0.073707	-1.296154	-0.445711	1.134161	-0.811159	-170.708628	-74.279357	123.804018			
39629	8.833841	0.167106	-1.098882	-0.477173	1.369229	-1.028081	-169.490558	-73.929871	122.873646			
39630	8.886065	0.593465	-1.162026	-0.126937	1.700672	-0.994765	-168.319026	-73.552807	122.088703			
39631	8.984277	1.037342	-1.368829	0.318337	1.963906	-0.884744	-167.220683	-73.156563	121.404581			
39632	8.955377	1.182233	-1.705806	0.651118	1.906739	-0.843514	-166.253884	-72.758305	120.778156			
39633	9.057200	0.784718	-1.847810	0.443321	1.640291	-0.692629	-165.388944	-72.358855	120.141143			
39634	9.336336	0.045550	-1.920979	-0.078811	1.227134	-0.360340	-164.586905	-71.978660	119.488388			
39635	9.400432	-0.677993	-1.965518	-0.572974	0.787417	-0.234469	-163.768766	-71.590489	118.889403			
39636	9.709481	-0.579437	-1.798364	-0.660913	1.127141	-0.007783	-162.943610	-71.217131	118.380696			
39637	10.001112	-0.181712	-1.256507	-0.793237	1.915236	0.053229	-162.148727	-70.880894	117.893022			
39638	9.990083	0.027492	-0.742781	-0.995849	2.455262	-0.151739	-161.435605	-70.604262	117.451067			
39639	10.041639	0.202318	-0.366543	-1.140241	2.887746	-0.253902	-160.766820	-70.370699	117.111753			
39640	10.037953	0.518629	-0.311564	-0.956806	3.186254	-0.322759	-160.163792	-70.194294	116.852656			
39641	9.783521	0.198347	-0.976917	-0.669275	2.490979	-0.322797	-159.606394	-70.078241	116.588656			
39642	9.378186	-0.269797	-1.862483	-0.293945	1.499137	-0.370329	-159.067060	-70.012566	116.327778			
39643	9.334222	-0.132011	-2.564856	0.326792	1.161873	-0.207127	-158.490126	-70.011796	115.962594			
39644	9.198650	0.040779	-2.887965	0.728698	1.055308	-0.256938	-157.749291	-70.070237	115.397994			
39645	9.176443	0.290520	-2.331716	0.544569	1.589519	-0.490396	-156.893507	-70.095040	114.765573			
39646	9.875304	0.424895	-2.379631	0.608988	1.898814	0.156677	-155.969695	-70.039851	114.183693			
39647	11.110646	1.040833	-2.149423	0.723478	2.907866	1.149541	-155.000438	-69.984642	113.582573			
39648	11.948918	0.982289	-1.411191	0.072036	3.615389	1.704974	-154.071671	-69.947131	112.926122			
39649	11.989250	0.983453	-1.252597	-0.010733	3.755114	1.684145	-153.222907	-69.922906	112.407389			
39650	12.604179	1.612908	-0.277062	-0.360197	5.019533	1.858561	-152.433400	-69.952983	111.951830			
39651	13.152938	2.029917	1.210506	-1.234154	6.398825	1.854255	-151.764194	-70.011851	111.593627			
39652	14.270872	2.594789	2.903561	-2.233658	8.173519	2.312721	-151.333450	-70.139862	111.143461			
39653	15.149073	2.436030	4.800305	-3.773341	9.461476	2.625663	-151.126408	-70.343106	110.370074			
39654	16.100381	0.906443	5.892073	-5.517129	9.326987	3.503585	-151.037624	-70.736871	108.965776			
39655	15.173466	-2.332524	5.602398	-7.139872	6.562640	3.340534	-149.977907	-71.541181	106.661246			
39656	13.767088	-2.793274	3.481019	-5.552493	4.423791	2.798651	-148.213804	-72.423585	103.974402			
39657	13.293166	-1.679433	2.677337	-3.924394	4.442310	2.498084	-145.782697	-73.304227	101.044369			
39658	13.374728	0.257150	2.492519	-2.176904	5.534378	2.425966	-142.487139	-74.306186	97.529252			
39659	12.199174	1.572781	-0.288317	1.003769	4.051445	1.760844	-138.525390	-75.417404	93.637690			
39660	11.399284	2.385022	-2.225119	3.166274	2.892212	1.241153	-134.703518	-76.469596	90.078907			
39661	12.217136	2.401200	-4.036131	4.635351	1.664804	2.313774	-131.082603	-77.469190	86.791735			
39662	13.010451	1.955695	-4.382900	4.738583	1.077608	3.175179	-127.357084	-78.481846	83.349455			
39663	13.254592	0.892056	-5.163277	4.711517	-0.385452	3.632991	-123.672551	-79.449355	79.917639			
39664	13.097044	0.135104	-5.132100	4.283463	-1.156781	3.536382	-119.918413	-80.339880	76.369474			
39665	12.829183	0.125140	-4.660735	4.017772	-1.111536	3.185125	-116.201822	-81.149259	72.506079			
39666	12.743461	-0.976176	-4.445693	3.171039	-1.983326	3.191903	-112.069071	-81.833809	67.979704			
39667	12.679571	-0.627572	-3.777429	2.998357	-1.509565	2.999809	-106.418796	-82.521474	61.894465			
39668	11.905253	0.134579	-3.896185	3.641465	-1.378322	2.093961	-99.681517	-83.111489	54.633228			
39669	11.402216	0.512043	-4.613954	4.438185	-1.906127	1.510975	-92.157941	-83.623376	46.498895			
39670	11.054293	0.401450	-4.435134	4.246985	-2.124793	1.117634	-83.415658	-84.029256	36.987609			
39671	10.454957	-0.606752	-3.662821	2.965531	-2.530031	0.574350	-73.279799	-84.292599	26.103717			
39672	9.857497	-0.417377	-3.320423	2.834514	-2.389999	-0.085435	-63.173257	-84.397411	15.279809			
39673	9.694985	-0.682320	-3.371454	2.657643	-2.809833	-0.280465	-53.118888	-84.394507	4.464006			
39674	9.682775	-0.216904	-3.292272	2.938636	-2.654174	-0.380958	-42.632317	-84.182616	-6.984496			
39675	8.991507	-1.033894	-3.511129	2.366428	-3.546379	-1.091213	-34.194596	-83.801154	-16.367581			
39676	8.564424	-1.150289	-3.886599	2.430152	-4.071620	-1.609542	-26.812262	-83.401871	-24.537136			
39677	8.383119	-0.860822	-3.448100	2.319230	-3.700063	-1.822981	-20.093200	-82.975459	-31.889687			
39678	8.029496	-0.518345	-3.507773	2.541737	-3.661572	-2.251191	-14.124601	-82.514646	-38.451737			
39679	7.741653	0.021644	-3.489360	2.879330	-3.436670	-2.601164	-8.938066	-82.028972	-44.238176			
39680	7.447194	0.682729	-3.772709	3.493300	-3.373292	-2.988026	-4.633001	-81.544397	-49.211326			
39681	7.260087	1.389123	-4.152233	4.205887	-3.381448	-3.274066	-1.276289	-81.044303	-53.472840			
39682	6.743258	1.344882	-4.619805	4.317622	-3.867677	-3.894947	1.154086	-80.548708	-56.949907			
39683	6.394124	1.519572	-4.706422	4.399580	-3.932622	-4.288163	3.074969	-80.139508	-59.949907			
39684	6.632291	1.631506	-4.941606	4.552521	-4.239972	-4.123820	4.344298	-79.764909	-62.462059			
39685	6.387109	0.869811	-4.924284	3.771078	-4.727649	-4.406591	5.163406	-79.366970	-64.712500			
39686	6.433917	0.237877	-4.838500	3.067033	-5.104169	-4.390386	5.514826	-79.049086	-66.532259			
39687	6.562858	-0.246076	-4.546882	2.388150	-5.207887	-4.246859	5.280932	-78.781457	-67.848650			
39688	6.405640	-1.285784	-4.384870	1.247935	-5.583921	-4.411462	4.511820	-78.563449	-68.716892			
39689	6.279821	-2.012853	-4.028262	0.295433	-5.592297	-4.488023	3.302572	-78.422695	-69.164468			
39690	6.541135	-2.664350	-3.281116	-0.711804	-5.235091	-4.091090	1.928610	-78.316032	-69.548602			
39691	6.439438	-3.081719	-2.933321	-1.356165	-5.027587	-4.116137	0.529037	-78.254658	-69.797573			
39692	6.791255	-2.499317	-2.019070	-1.197702	-4.013763	-3.575779	-0.549756	-78.211000	-70.156325			
39693	7.348182	-1.616534	-1.056104	-0.697223	-2.911206	-2.829645	-1.490737	-78.195038	-70.559224			
39694	8.196520	-1.126355	-0.302380	-0.434434	-2.200255	-1.843176	-2.472730	-78.206148	-70.908319			
39695	9.377699	-0.406174	1.057538	-0.051063	-0.929095	-0.412754	-3.595806	-78.197707	-71.212108			
39696	10.071864	-1.073843	0.826954	-0.574307	-1.438365	0.231248	-5.206731	-78.147751	-71.195060			
39697	10.730241	-1.511784	0.734536	-0.908969	-1.733204	0.870605	-7.236631	-77.988504	-70.835537			
39698	10.301261	-2.535137	0.776266	-1.910673	-1.785253	0.497856	-9.427431	-77.819951	-70.316530			
39699	10.481546	-2.175459	2.743903	-1.817187	0.200533	1.085981	-11.528882	-77.759017	-69.864156			
39700	11.466261	-1.959105	4.137694	-1.611422	1.446658	2.342239	-13.689387	-77.603603	-69.471106			
39701	10.888184	-1.602567	4.431144	-1.177959	1.931943	1.833488	-15.723040	-77.368819	-69.447754			
39702	10.067246	-1.615983	3.901285	-1.055853	1.614688	0.932397	-17.723477	-77.197336	-69.635446			
39703	9.732743	-1.439347	2.867976	-0.740526	0.727117	0.382660	-19.695762	-77.149181	-69.907874			
39704	9.562665	-0.611308	2.582556	0.167114	0.535730	0.095501	-21.672550	-77.231322	-70.081366			
39705	9.195241	0.380157	2.533059	1.206069	0.564289	-0.360713	-23.630163	-77.420802	-70.170047			
39706	8.705141	1.140304	2.217135	1.971590	0.316130	-0.980472	-25.706864	-77.679248	-70.017864			
39707	8.172062	1.400633	1.727784	2.192119	-0.080014	-1.632367	-27.965140	-77.990305	-69.538601			
39708	8.130426	1.760195	1.436145	2.545738	-0.399015	-1.773750	-30.488842	-78.380516	-68.757820			
39709	8.576500	1.953939	0.414061	2.617277	-1.494014	-1.538424	-33.365925	-78.889154	-67.703621			
39710	9.206277	2.034188	-0.885700	2.463126	-2.850536	-1.124476	-36.298512	-79.471080	-66.604018			
39711	9.737914	2.537603	-1.505310	2.782075	-3.606420	-0.714046	-38.912812	-80.120369	-65.816287			
39712	10.068740	2.651798	-3.155565	2.370506	-5.214285	-0.562909	-41.643481	-80.866281	-64.933862			
39713	10.627172	2.529812	-4.309589	1.791542	-6.273629	-0.048629	-45.520295	-81.641585	-63.064220			
39714	11.465828	0.927445	-5.280705	-0.155622	-6.652067	0.954418	-51.468707	-82.292642	-59.311773			
39715	12.313467	-1.158710	-5.974135	-2.432086	-6.430199	2.077755	-59.674848	-82.664812	-53.473635			
39716	12.716108	-4.384858	-7.622707	-6.099648	-6.396589	2.871750	-67.900944	-82.620784	-47.622784			
39717	13.456306	-6.999687	-7.590190	-8.407567	-4.927888	4.068670	-74.119203	-82.454419	-43.497377			
39718	16.176448	-7.927191	-4.306415	-7.368881	-1.504624	7.113335	-78.671242	-82.178549	-40.495489			
39719	19.272303	-6.812145	0.408678	-3.612503	1.958478	10.214915	-79.765656	-81.790066	-40.941899			
39720	18.422457	-5.404419	3.936819	-0.518365	4.267745	9.308087	-75.940683	-81.300273	-47.133523			
39721	11.884569	-6.256448	3.457460	-1.988341	4.879257	3.015999	-70.229003	-80.744103	-55.817360			
39722	5.375005	-8.404683	2.615733	-4.584040	6.326262	-3.079970	-66.734291	-80.498223	-61.871419			
39723	2.471517	-8.590896	-1.188742	-7.171419	4.079942	-6.173206	-66.002363	-80.806049	-64.044124			
39724	2.410594	-5.448080	-1.234118	-4.767097	2.196617	-6.736205	-66.704370	-81.408900	-63.786302			
39725	2.857755	-2.347323	-0.022970	-1.598823	1.132487	-6.676110	-69.377044	-82.253416	-61.493645			
39726	3.070818	-0.859598	-0.856640	-1.009948	-0.419797	-6.697232	-74.416789	-83.175016	-56.819914			
39727	5.161938	0.521356	-2.210883	-0.730552	-2.451400	-4.786677	-83.198236	-84.178203	-48.259180			
39728	9.249236	1.910312	-5.019891	-1.230253	-5.624906	-0.799422	-94.421713	-84.879947	-36.489957			
39729	11.323530	5.023108	-4.515918	1.706718	-7.194622	1.103642	-104.681426	-85.150242	-25.490905			
39730	15.866224	7.874930	-1.482300	6.192328	-6.775559	5.408824	-111.427552	-85.224402	-20.057752			
39731	16.165286	1.516308	-0.161203	2.319769	-1.652849	6.172507	-112.884166	-84.711865	-21.569527			
39732	13.085893	-5.891041	-1.845187	-4.269267	2.408374	3.800523	-106.154362	-84.348828	-32.004647			
39733	7.176927	-10.928861	1.325223	-5.501913	8.726891	-1.672487	-98.282643	-84.612191	-42.574301			
39734	4.916545	-9.805608	-2.578971	-7.847924	5.603567	-3.983201	-103.493417	-84.781219	-36.576026			
39735	8.642321	-1.907021	-0.718777	-1.125935	0.562492	-1.023005	-113.158981	-84.913510	-24.114002			
39736	10.853884	2.642981	-0.320841	2.519075	-2.367835	0.814113	-126.279936	-85.039738	-7.572923			
39737	12.567287	11.465031	-3.206176	7.260008	-10.162694	2.172515	-136.040951	-85.486921	4.482414			
39738	8.526129	12.728409	4.520497	13.147379	-4.994067	-2.239868	-135.630246	-85.721966	4.255497			
39739	8.289489	7.390242	1.368520	7.081319	-3.834350	-2.043787	-138.883733	-84.867072	6.767976			
39740	10.478223	5.533088	-0.682220	4.609747	-4.127387	0.315862	-140.142720	-83.935085	7.013894			
39741	10.909137	3.192886	-2.282956	1.919770	-3.716069	1.000311	-141.179528	-83.293450	6.479522			
39742	10.772561	0.736837	-2.269074	0.207621	-1.977983	1.040146	-141.858338	-82.738948	5.390653			
39743	11.063431	-1.486572	-1.796519	-0.886285	-0.006833	1.458999	-141.970945	-82.434139	3.549368			
39744	10.901325	-3.043363	-0.613630	-0.998215	1.968662	1.305098	-141.356969	-82.500944	0.986741			
39745	9.500885	-3.932899	0.015108	-1.213285	3.077127	-0.076482	-141.279475	-82.735371	-0.693586			
39746	8.274316	-3.874843	-0.504796	-1.705192	2.757518	-1.255724	-142.881103	-82.897930	-0.046408			
39747	8.278158	-2.225122	-0.682315	-0.848815	1.393393	-1.369803	-145.969900	-82.940204	2.779338			
39748	8.348031	-0.298605	-1.069885	-0.002160	-0.314401	-1.396981	-150.084254	-82.896536	7.025537			
39749	8.743541	1.746164	-2.292557	0.307872	-2.593394	-0.984712	-154.720879	-82.774887	11.951106			
39750	9.272159	4.264784	-2.884083	1.436666	-4.862941	-0.497832	-157.860261	-82.656363	15.157308			
39751	9.549571	4.986803	-1.455157	3.023671	-4.529295	-0.404031	-159.177416	-82.479358	15.843232			
39752	9.870187	3.508171	-1.487105	2.147020	-3.355903	-0.011283	-159.608967	-82.039326	15.109638			
39753	10.324654	1.843378	-3.036143	-0.000253	-2.875190	0.720495	-159.708593	-81.669907	13.924139			
39754	9.648698	1.012598	-2.923313	-0.473071	-2.125273	0.083161	-160.103442	-81.480155	13.174333			
39755	9.506295	1.337114	-2.603787	-0.062295	-2.199875	-0.112490	-160.923576	-81.261088	13.039971			
39756	9.840132	1.998266	-2.280600	0.595256	-2.556245	0.143901	-161.623733	-81.065975	12.679649			
39757	9.843263	1.620341	-2.550200	0.152631	-2.355081	0.209742	-162.044405	-80.875735	11.764526			
39758	9.778197	0.455821	-3.062714	-0.886827	-1.573675	0.283752	-162.233649	-80.694557	10.459075			
39759	9.647925	-0.311364	-3.094057	-1.298200	-0.876881	0.202212	-162.356383	-80.535406	9.090501			
39760	9.663099	-0.846803	-3.076579	-1.509311	-0.346971	0.245110	-162.509759	-80.396115	7.817028			
39761	9.806760	-1.054843	-3.128789	-1.607121	-0.131153	0.408582	-162.794570	-80.307638	6.816357			
39762	9.671930	-0.978878	-3.197888	-1.652831	-0.185476	0.285059	-163.255643	-80.251899	6.169302			
39763	9.148377	-0.697505	-3.230868	-1.660832	-0.417225	-0.237450	-164.064014	-80.199483	5.988787			
39764	9.383253	-0.396550	-2.914468	-1.216937	-0.525165	-0.068977	-164.973209	-80.084816	5.952237			
39765	9.694528	-0.464965	-3.160546	-1.402750	-0.494740	0.285651	-165.769207	-79.942228	5.871221			
39766	9.592633	-0.813615	-3.766749	-2.080176	-0.329865	0.308222	-166.274359	-79.778948	5.600019			
39767	9.519076	-1.148941	-3.879574	-2.282161	-0.009249	0.275694	-166.522505	-79.611106	5.171917			
39768	9.345681	-1.231271	-3.927900	-2.356898	0.081217	0.123333	-166.506664	-79.466282	4.583405			
39769	9.218399	-1.177511	-3.803662	-2.223329	0.088841	-0.020747	-166.429515	-79.337526	4.023073			
39770	9.444384	-0.872823	-3.187531	-1.491707	0.000801	0.081418	-166.377827	-79.216942	3.528168			
39771	9.495445	-0.411132	-2.757412	-0.926819	-0.301210	0.035463	-166.491673	-79.117612	3.178807			
39772	9.640021	-0.061708	-2.600867	-0.642681	-0.578379	0.134711	-166.656560	-79.046826	2.837077			
39773	10.041688	0.309161	-2.292551	-0.174176	-0.834582	0.456685	-166.850951	-79.039982	2.488882			
39774	10.072340	0.658018	-2.073675	0.114077	-1.106888	0.431670	-166.970087	-79.128718	2.013856			
39775	9.519745	0.709821	-1.865635	0.186274	-1.104426	-0.150627	-167.108147	-79.284865	1.416329			
39776	9.500001	0.448865	-1.517567	0.409763	-0.769083	-0.221286	-167.114269	-79.460027	0.541889			
39777	9.804136	0.011832	-1.351533	0.483898	-0.312472	0.067390	-167.062480	-79.658430	-0.466774			
39778	9.799604	-0.578095	-1.714058	-0.027846	0.177783	0.150843	-166.900364	-79.880322	-1.575055			
39779	9.720532	-1.057751	-1.923486	-0.371851	0.607531	0.127128	-166.827474	-80.120015	-2.569355			
39780	9.726191	-1.109036	-1.428618	0.068717	0.750824	0.051448	-166.757268	-80.353759	-3.480184			
39781	9.806429	-0.836696	-1.300557	0.220696	0.504148	0.099659	-166.794062	-80.578937	-4.122877			
39782	10.077545	-0.304127	-1.338728	0.274553	-0.030978	0.354177	-166.775899	-80.796138	-4.645594			
39783	10.452279	0.450165	-1.341689	0.394715	-0.780454	0.698628	-166.796731	-81.063885	-5.068008			
39784	10.515875	0.844996	-1.604157	0.138240	-1.209054	0.788708	-166.650330	-81.403271	-5.742450			
39785	10.135260	0.586762	-1.589346	-0.017303	-0.942273	0.419860	-166.518978	-81.812686	-6.626766			
39786	9.931090	-0.220432	-1.498134	-0.133821	-0.122388	0.231521	-166.245567	-82.260435	-7.765012			
39787	9.673514	-0.713742	-1.562526	-0.358838	0.375771	-0.001603	-166.090063	-82.718500	-8.754148			
39788	9.871298	-1.062349	-1.711559	-0.582127	0.717034	0.219618	-165.700642	-83.154789	-9.848162			
39789	9.951014	-0.986891	-1.584531	-0.513626	0.661372	0.277191	-165.161502	-83.626544	-10.999760			
39790	10.051496	-0.542311	-0.997146	0.026267	0.259632	0.299296	-164.135403	-84.134306	-12.559915			
39791	10.179829	0.023352	-0.394526	0.572589	-0.276889	0.354892	-162.491791	-84.687261	-14.688577			
39792	10.296142	0.550890	0.294727	1.182071	-0.786833	0.404125	-159.857665	-85.281611	-17.784184			
39793	10.481889	1.032646	0.921403	1.712670	-1.268600	0.543043	-155.974601	-85.906364	-22.131100			
39794	10.653805	1.343237	1.452190	2.119573	-1.597220	0.693068	-149.885650	-86.549258	-28.747339			
39795	10.646593	1.482082	1.837482	2.345238	-1.765222	0.689886	-140.269608	-87.180953	-39.028566			
39796	10.362499	1.271155	2.015424	2.337106	-1.591105	0.437319	-124.827920	-87.694805	-55.283934			
39797	9.981054	0.944744	1.843210	1.984467	-1.299940	0.100981	-103.000251	-87.961877	-78.011541			
39798	9.583097	0.573687	1.506067	1.490717	-0.952341	-0.257487	-80.294339	-87.875094	-101.607895			
39799	9.382421	0.290719	1.043910	0.896225	-0.677855	-0.435064	-63.018679	-87.533628	-119.692131			
39800	9.287099	0.092300	0.448718	0.187275	-0.468281	-0.528046	-52.040946	-87.066707	-131.326194			
39801	9.385629	0.154463	-0.129078	-0.507501	-0.508820	-0.452496	-44.832437	-86.591073	-138.977695			
39802	9.766868	0.460369	-0.386946	-0.905493	-0.814783	-0.103481	-39.556266	-86.110875	-144.525603			
39803	10.204657	1.052060	-0.478536	-1.169588	-1.412451	0.292107	-35.030339	-85.611622	-149.278702			
39804	10.394675	1.510497	-0.518764	-1.370397	-1.866403	0.445839	-31.165065	-85.085650	-153.403596			
39805	9.888471	2.040439	-1.227247	-2.188286	-2.297479	-0.149178	-27.590248	-84.630910	-157.244102			
39806	9.359884	2.685202	-1.645847	-2.707573	-2.848927	-0.752976	-24.137215	-84.266064	-161.013452			
39807	8.909517	3.060892	-1.839141	-2.970235	-3.139164	-1.242177	-21.136778	-84.035209	-164.453970			
39808	8.548785	3.282836	-2.178695	-3.359037	-3.252946	-1.643238	-18.748840	-83.920690	-167.516919			
39809	8.398079	3.412073	-2.533910	-3.772323	-3.261255	-1.829982	-17.934752	-83.921747	-169.403931			
39810	8.758859	2.250925	-2.440508	-3.620640	-2.052585	-1.421162	-19.377070	-84.007462	-169.407715			
39811	9.118750	0.728008	-2.792130	-3.790385	-0.422866	-1.041644	-21.096589	-84.063597	-169.337165			
39812	8.853428	-0.065404	-2.035795	-2.874018	0.297613	-1.199731	-22.228825	-84.070392	-169.834720			
39813	8.552724	-0.167006	-1.094740	-1.890876	0.257844	-1.402374	-23.067638	-84.139059	-170.542753			
39814	8.576657	0.118713	-0.572498	-1.436766	-0.111383	-1.337776	-24.117290	-84.258673	-171.014724			
39815	8.594230	0.419473	-0.308829	-1.244512	-0.451837	-1.305096	-25.828997	-84.447020	-170.770046			
39816	8.776486	1.124924	-0.213671	-1.353883	-1.153232	-1.142344	-28.853255	-84.695048	-169.244639			
39817	8.844790	1.576839	-0.418495	-1.679209	-1.523426	-1.109166	-33.589293	-84.982190	-166.122353			
39818	9.125706	1.725191	-0.849075	-2.142660	-1.534250	-0.866695	-40.602070	-85.216699	-160.900894			
39819	9.266165	1.225684	-1.360294	-2.427918	-0.898908	-0.729096	-49.144858	-85.290152	-154.387550			
39820	9.225511	0.162234	-2.316565	-2.836229	0.449738	-0.743176	-58.079160	-85.197949	-147.633505			
39821	9.780556	-0.816869	-1.631456	-1.775602	0.994267	-0.073771	-64.302654	-84.998598	-143.648574			
39822	10.678597	-1.073118	0.598119	0.269851	0.073746	0.932682	-66.806890	-84.702462	-143.571008			
39823	9.652039	-2.165006	-0.392672	0.077403	1.489476	-0.026093	-71.581519	-84.476587	-141.594940			
39824	9.674274	-4.105513	-3.398366	-1.205136	4.680470	0.118581	-77.716640	-84.093477	-138.518929			
39825	8.062629	-5.613954	-3.800505	-0.226660	6.175358	-1.282119	-80.763228	-83.616421	-138.655855			
39826	7.902124	-7.273765	-1.310275	3.056893	5.724283	-1.155646	-83.310646	-83.181549	-139.157603			
39827	7.975908	-9.831541	0.163423	6.119160	6.321310	-0.708625	-86.235095	-82.907014	-138.538129			
39828	8.477311	-9.006737	1.024326	6.311199	4.828668	-0.279458	-89.857274	-82.829185	-136.270788			
39829	9.084638	-7.002810	1.710363	5.421762	2.720788	0.071357	-93.232177	-82.772561	-133.959909			
39830	8.625488	-6.761010	0.971471	4.873920	2.989927	-0.412852	-96.092212	-82.663567	-132.193643			
39831	8.318643	-7.083754	0.965914	5.213584	3.104827	-0.675435	-99.005986	-82.532621	-129.999326			
39832	8.971033	-6.072865	1.947931	5.099690	1.547375	-0.181915	-101.745313	-82.393275	-127.460520			
39833	9.705439	-5.028711	3.232645	5.124653	-0.225197	0.366732	-103.309711	-82.297206	-125.827833			
39834	9.597911	-4.288338	3.830398	4.982518	-1.157310	0.138032	-103.735204	-82.258797	-125.251067			
