// General information: 
//  MT Manager version: 2022.0.0 
//  XDA version: 2022.0.0 build 7085 rev 119802 built on 2022-11-08
// Device information: 
//  DeviceId: 00B492A8
//  ProductCode: MTW2-3A7G6
//  Firmware Version: 4.6.0
//  Hardware Version: 2.0.0
// Device settings: 
//  Filter Profile: human(46.1)
//  Option Flags: Orientation Smoother Disabled, Position/Velocity Smoother Disabled, Continuous Zero Rotation Update Disabled, AHS Disabled, ICC Disabled
// Coordinate system: ENU
PacketCounter	Acc_X	Acc_Y	Acc_Z	FreeAcc_E	FreeAcc_N	FreeAcc_U	Roll	Pitch	Yaw	Vel_E	Vel_N	Vel_U
38738	9.475275	0.857272	-2.212913	0.282824	0.394513	-0.056812	167.282917	-74.090674	99.808758			
38739	9.770745	0.840551	-2.261014	0.255711	0.428533	0.239036	167.403923	-74.100460	99.746339			
38740	9.974909	0.621668	-2.241619	0.035016	0.510083	0.417109	167.528640	-74.118572	99.661078			
38741	9.973346	0.500524	-1.941601	-0.061685	0.800043	0.328520	167.712453	-74.151441	99.553190			
38742	9.695562	0.608121	-1.829130	0.074708	0.824272	0.037918	167.976183	-74.196296	99.404428			
38743	9.345306	0.616673	-1.820714	0.112842	0.731470	-0.300473	168.318218	-74.258927	99.200996			
38744	9.119426	0.759773	-2.057696	0.269484	0.430524	-0.446936	168.672095	-74.320269	98.997582			
38745	9.328811	1.121580	-2.249933	0.628306	0.283334	-0.175686	168.990780	-74.370124	98.796547			
38746	9.682437	1.343873	-2.058667	0.858059	0.548003	0.124973	169.236762	-74.431325	98.575200			
38747	9.896712	0.725924	-1.923861	0.251613	0.744247	0.264806	169.465697	-74.503988	98.278326			
38748	9.446755	0.105435	-2.319791	-0.355045	0.253744	-0.094495	169.707505	-74.569067	98.008112			
38749	8.943631	0.272176	-2.667201	-0.173393	-0.224893	-0.480168	169.968861	-74.590317	97.777685			
38750	8.824769	0.434836	-2.941224	-0.006812	-0.523445	-0.515248	170.274734	-74.560199	97.453611			
38751	8.849915	0.313628	-3.346614	-0.134745	-0.895558	-0.389366	170.570956	-74.513473	97.158433			
38752	8.662994	0.503797	-3.229073	0.078209	-0.828907	-0.591247	170.842601	-74.464459	96.954566			
38753	8.758257	0.633898	-3.302021	0.212565	-0.867587	-0.473826	171.076785	-74.401400	96.796860			
38754	8.954413	0.647510	-3.212129	0.233885	-0.719521	-0.307629	171.295678	-74.366048	96.694837			
38755	8.977448	0.654128	-2.804207	0.265373	-0.314185	-0.393723	171.488694	-74.341952	96.649754			
38756	9.087480	0.785962	-2.516370	0.412789	-0.004098	-0.359554	171.691864	-74.303091	96.588162			
38757	9.280668	0.711376	-2.685714	0.335526	-0.104167	-0.131444	171.924350	-74.255360	96.501989			
38758	9.270750	0.782556	-2.772130	0.414288	-0.182054	-0.115311	172.153399	-74.214664	96.434773			
38759	9.219643	0.777850	-2.624546	0.425531	-0.043350	-0.204767	172.399321	-74.157744	96.308661			
38760	9.283763	0.510451	-2.719291	0.164253	-0.100877	-0.127328	172.646854	-74.097587	96.150684			
38761	9.217922	0.421283	-2.520462	0.092048	0.084721	-0.247927	172.882599	-74.045312	96.039893			
38762	9.297843	0.833202	-2.587714	0.508962	0.047289	-0.139059	173.092083	-73.985847	96.000369			
38763	9.488962	1.408586	-2.155986	1.093643	0.520646	-0.055349	173.242038	-73.936043	96.007210			
38764	9.547306	1.475094	-1.482710	1.175243	1.191012	-0.183270	173.397071	-73.929959	95.927881			
38765	9.530660	1.004883	-1.007086	0.720632	1.647251	-0.345653	173.589385	-73.953033	95.741379			
38766	9.877373	0.632811	-1.081266	0.348753	1.670493	-0.003514	173.828553	-73.983471	95.496248			
38767	10.031627	0.606460	-0.856215	0.335101	1.920483	0.083466	174.087184	-74.069380	95.222579			
38768	9.793677	0.405932	-1.060003	0.153555	1.645568	-0.092966	174.384334	-74.177032	94.856457			
38769	9.541794	0.405075	-1.893187	0.161165	0.759806	-0.107495	174.662458	-74.263567	94.491520			
38770	9.348475	0.519135	-2.523296	0.282000	0.089121	-0.120266	174.916755	-74.308404	94.133783			
38771	9.100874	0.502039	-3.019196	0.270632	-0.458742	-0.225728	175.136514	-74.310512	93.770001			
38772	9.098746	0.079641	-3.275083	-0.148575	-0.696646	-0.168399	175.370343	-74.287964	93.356928			
38773	8.951395	-0.600088	-3.275153	-0.815942	-0.716648	-0.324019	175.681373	-74.254340	92.887599			
38774	8.699779	-0.851942	-3.422503	-1.055445	-0.910957	-0.529279	176.035137	-74.197189	92.467911			
38775	8.402792	-0.550900	-3.550810	-0.741184	-1.110270	-0.771859	176.324958	-74.115583	92.249327			
38776	8.532740	0.344165	-3.601666	0.162461	-1.126184	-0.614679	176.504671	-73.979959	92.232233			
38777	8.686834	0.836159	-3.454603	0.664901	-0.928394	-0.496547	176.641848	-73.838894	92.242265			
38778	8.721142	0.285494	-3.263154	0.124759	-0.700384	-0.523886	176.757476	-73.684581	92.251656			
38779	8.742871	-0.110547	-3.203295	-0.264217	-0.604677	-0.524221	176.876848	-73.513898	92.346380			
38780	8.534259	0.150364	-2.880104	0.010496	-0.330930	-0.810382	177.003050	-73.356167	92.518643			
38781	8.451886	0.547786	-2.578392	0.417538	-0.041789	-0.969249	177.134066	-73.196480	92.693427			
38782	8.738238	0.612437	-2.581363	0.482088	0.065759	-0.693559	177.224569	-73.032617	92.870972			
38783	9.394093	0.102477	-2.674566	-0.037511	0.193656	-0.046735	177.211439	-72.872645	93.047089			
38784	10.204933	-0.978623	-2.965914	-1.134757	0.173720	0.797548	177.133618	-72.718609	93.164630			
38785	10.691520	-2.106215	-3.396051	-2.274783	-0.076552	1.372006	177.060247	-72.607525	93.227339			
38786	10.526000	-2.897901	-3.390904	-3.064770	-0.110292	1.200384	177.123441	-72.542205	93.192676			
38787	10.194192	-3.292573	-3.302163	-3.446630	-0.118173	0.853785	177.349921	-72.449709	93.133379			
38788	9.767883	-2.824470	-3.367443	-2.956834	-0.297139	0.477971	177.645036	-72.323519	93.211357			
38789	9.353634	-1.601162	-2.979636	-1.713594	-0.024800	-0.014965	178.036021	-72.185752	93.305708			
38790	9.056296	-0.649392	-2.536795	-0.749019	0.343090	-0.421481	178.408610	-72.059960	93.390455			
38791	9.105978	0.035312	-2.182738	-0.065350	0.735927	-0.477885	178.656671	-71.932851	93.575495			
38792	9.519560	0.642813	-2.121960	0.530916	0.968429	-0.100933	178.663317	-71.811135	93.918967			
38793	9.684592	1.060413	-2.238754	0.939745	0.949059	0.094075	178.513814	-71.723835	94.257571			
38794	9.160437	0.801255	-2.315898	0.686344	0.714652	-0.382036	178.375351	-71.637215	94.370671			
38795	9.170446	0.038217	-2.818120	-0.063271	0.221657	-0.221693	178.191921	-71.502662	94.395728			
38796	9.197448	-0.067386	-2.771606	-0.183838	0.292639	-0.212694	177.940079	-71.353030	94.407497			
38797	8.996394	-0.269378	-2.629233	-0.400584	0.382953	-0.452489	177.657975	-71.163660	94.370765			
38798	9.192015	-0.268477	-2.815710	-0.413992	0.304313	-0.209079	177.400192	-70.942192	94.377953			
38799	9.296489	0.142390	-2.713655	-0.024943	0.484842	-0.139370	177.114332	-70.727414	94.449084			
38800	9.091608	0.515222	-2.654044	0.333569	0.515095	-0.347485	176.763386	-70.554856	94.514079			
38801	8.636565	0.414579	-2.195234	0.221047	0.817160	-0.932117	176.476499	-70.406137	94.486264			
38802	8.596844	-0.070104	-2.167168	-0.278967	0.840552	-0.990961	176.032127	-70.276958	94.604000			
38803	9.130231	-0.092087	-1.630296	-0.338057	1.546276	-0.673643	175.633777	-70.129383	94.792770			
38804	9.423320	-0.044679	-2.018837	-0.316015	1.306371	-0.269623	175.285208	-69.952755	94.919111			
38805	9.536651	0.049245	-2.960466	-0.248945	0.486191	0.158072	174.833359	-69.820683	95.020842			
38806	8.946754	0.058228	-2.621322	-0.244717	0.620184	-0.513518	174.329757	-69.729291	95.019990			
38807	9.112884	-1.014076	-2.223566	-1.335602	1.078579	-0.535296	173.901467	-69.595895	94.968120			
38808	8.489123	-1.884732	-2.775609	-2.210517	0.387473	-0.964817	173.895245	-69.398403	94.896924			
38809	8.552667	-1.887641	-2.473466	-2.208490	0.740586	-1.014784	174.020123	-68.971373	94.867468			
38810	9.412721	-1.556595	-2.354825	-1.902488	1.212440	-0.248284	174.093047	-68.630407	94.931929			
38811	8.887179	-1.173687	-2.281689	-1.507776	1.132772	-0.756812	174.076407	-68.337214	95.138783			
38812	8.814360	-0.244024	-2.425035	-0.588681	1.012741	-0.742909	174.082717	-67.994177	95.437902			
38813	8.934958	0.733829	-2.265214	0.373884	1.259503	-0.659725	174.028447	-67.639796	95.788409			
38814	8.862962	1.006867	-2.079510	0.636150	1.461433	-0.793292	173.944603	-67.305131	96.052726			
38815	8.808402	0.463507	-1.744200	0.082634	1.798604	-1.003433	173.818447	-66.961009	96.256251			
38816	8.963452	-0.070433	-1.963965	-0.476486	1.705914	-0.808905	173.676700	-66.581822	96.509888			
38817	9.098676	0.237352	-1.944778	-0.195727	1.840160	-0.691310	173.522782	-66.179659	96.814617			
38818	9.071337	0.457289	-1.638020	0.005714	2.176357	-0.843605	173.367849	-65.763349	96.997632			
38819	8.936016	-0.122712	-2.003047	-0.587208	1.842981	-0.860713	173.164242	-65.333687	97.094652			
38820	8.847627	-0.423957	-2.616229	-0.907766	1.313726	-0.715739	172.935041	-64.864264	97.188081			
38821	8.938917	-0.144883	-3.009355	-0.662101	1.077557	-0.464891	172.668073	-64.348914	97.308734			
38822	8.893691	-0.026415	-2.981921	-0.567638	1.169755	-0.522960	172.411412	-63.795799	97.388765			
38823	8.682988	0.280140	-3.648835	-0.293442	0.571677	-0.411998	172.026649	-63.203644	97.568184			
38824	8.604607	1.038393	-4.236588	0.411826	0.102368	-0.174979	171.531256	-62.699195	97.815665			
38825	8.067402	1.093147	-2.893655	0.488773	1.126844	-1.260380	170.937046	-62.190329	98.014735			
38826	8.973588	0.657666	-2.204105	-0.025170	2.247116	-0.825784	170.331281	-61.424803	98.105561			
38827	10.653333	0.354990	-2.859904	-0.523302	2.573616	0.906453	169.507949	-60.851024	98.281702			
38828	10.615000	0.081670	-1.774135	-0.784471	3.583871	0.305246	168.679460	-60.575869	98.426943			
38829	10.443422	-0.130855	-0.156328	-0.897737	4.968688	-0.668700	167.870225	-60.246431	98.428397			
38830	10.755067	-0.702508	-0.204367	-1.503987	5.173677	-0.475830	166.986612	-59.743105	98.414319			
38831	10.715833	-0.996945	-1.247785	-1.917791	4.360609	-0.082014	166.233863	-59.224476	98.421897			
38832	10.804772	-0.537962	-1.516500	-1.534785	4.236167	0.138735	165.358251	-58.796647	98.530989			
38833	11.157200	-0.846535	-2.018400	-1.973157	4.084854	0.612933	164.401011	-58.461730	98.576240			
38834	11.562660	-1.582669	-2.449873	-2.836292	4.058402	1.035631	163.454822	-58.240749	98.587342			
38835	12.613851	-2.207921	-2.447847	-3.577891	4.741546	1.792983	162.601723	-57.963267	98.666046			
38836	14.239299	-1.158304	-2.640185	-2.768800	5.393090	3.390241	161.860165	-57.684389	98.982229			
38837	14.800832	-0.123768	-2.090323	-1.775602	6.072363	3.730670	161.127617	-57.613221	99.441109			
38838	14.503865	-0.610121	-1.231954	-2.135958	6.676513	2.958899	160.397488	-57.752446	99.940003			
38839	14.873184	-1.294982	-0.563534	-2.774503	7.472776	2.823191	159.799965	-57.884915	100.434607			
38840	16.145958	-1.757602	-0.013234	-3.310511	8.602351	3.559688	159.267187	-58.101741	101.027854			
38841	16.277327	-2.098590	2.195881	-3.312159	10.484173	2.568206	158.812706	-58.535124	101.783248			
38842	17.550259	-2.066455	4.639330	-3.055648	13.084533	2.567116	158.575735	-59.031036	102.469542			
38843	19.222793	-2.389774	7.000198	-3.279193	15.795481	2.992237	158.492871	-59.909871	103.393996			
38844	18.915815	-1.648961	10.295756	-2.224453	18.150579	1.680861	158.353824	-61.366495	104.744915			
38845	15.087667	-0.803372	11.481907	-1.050573	17.072847	-1.596623	158.060553	-62.901055	106.036690			
38846	14.185916	-2.066612	10.732207	-2.474391	15.862135	-1.878947	157.466039	-64.243653	107.088158			
38847	12.865675	-2.229497	4.356131	-3.313577	9.319542	-0.240277	156.276246	-65.460879	108.143627			
38848	13.300998	-1.832716	-0.716662	-3.633344	4.591223	2.291170	154.836859	-66.450963	109.381576			
38849	14.931784	-0.835583	-2.055016	-3.090716	3.635462	4.508710	153.280778	-67.470875	110.937729			
38850	15.630218	-0.190887	-3.155943	-2.739862	2.496877	5.696951	151.729820	-68.593296	112.406291			
38851	15.300644	0.044179	-5.916188	-2.823352	-0.562659	6.337104	150.462825	-69.719074	113.488743			
38852	15.670580	1.688731	-8.440906	-1.545096	-3.291949	7.692560	149.677028	-70.785250	114.335303			
38853	15.375359	2.849577	-7.876173	-0.205032	-3.310810	7.378491	148.643227	-72.152714	115.812070			
38854	13.652147	3.570464	-5.884025	1.065279	-2.349450	5.256490	146.832341	-73.748724	118.196622			
38855	12.927395	3.565002	-4.225649	1.421632	-1.334101	4.110976	144.898414	-75.375176	120.620807			
38856	13.034076	2.433611	-2.861643	0.515056	-0.304947	3.738193	142.690553	-77.028828	122.919038			
38857	13.043594	0.764249	-3.501953	-1.086176	-1.222757	3.614675	140.058343	-78.727991	125.262975			
38858	13.087820	-1.630275	-4.617333	-3.430532	-2.539120	3.492868	137.306550	-80.544949	127.794103			
38859	12.480406	-3.196124	-5.276738	-4.810338	-3.555949	2.757833	133.660669	-82.372436	131.807364			
38860	11.419872	-1.286003	-3.945401	-2.555726	-2.839958	1.721068	128.376614	-83.671156	137.588115			
38861	15.810597	0.091339	-11.034459	-1.815635	-10.083979	6.518760	117.508512	-85.279515	149.462780			
38862	10.645330	0.080945	-3.247857	-0.736536	-3.045944	0.865900	84.063214	-86.786875	-175.968685			
38863	9.467978	1.575077	-4.073057	0.963010	-4.308678	-0.367515	50.745841	-86.631775	-142.401515			
38864	11.017654	1.102718	-5.828292	0.489341	-6.425601	0.912533	24.787815	-85.613264	-116.543650			
38865	9.634296	0.077963	-4.385197	-0.328891	-5.183242	-0.589280	10.075239	-84.105936	-102.085346			
38866	9.110972	-0.243952	-4.654060	-0.545466	-5.669973	-1.311283	1.543906	-82.383595	-93.694246			
38867	7.830395	-0.459912	-4.191814	-0.630688	-5.274807	-2.680337	-3.938438	-80.729876	-88.227972			
38868	7.455831	-0.448662	-4.446781	-0.531018	-5.656337	-3.233668	-7.805466	-79.184304	-84.307443			
38869	6.952923	-0.585283	-5.336827	-0.609257	-6.589377	-4.035846	-10.650255	-77.718613	-81.273473			
38870	6.301342	-0.625909	-5.976266	-0.581092	-7.205104	-4.958950	-12.541226	-76.312617	-78.893961			
38871	5.709323	0.270021	-5.984077	0.412838	-7.192182	-5.741263	-13.741625	-74.983708	-77.020859			
38872	4.796773	0.211342	-6.558373	0.424606	-7.583067	-6.918035	-14.386525	-73.800582	-75.502100			
38873	3.852607	1.073914	-6.357113	1.358983	-7.154049	-7.974640	-14.613225	-72.704967	-74.292921			
38874	3.384257	1.203826	-5.767676	1.572786	-6.455034	-8.389640	-14.481263	-71.691756	-73.428314			
38875	2.808961	1.924817	-5.237952	2.335127	-5.728240	-8.938523	-14.185382	-70.788656	-72.753153			
38876	2.046832	2.681055	-4.125745	3.048745	-4.355279	-9.444817	-14.018906	-70.035198	-72.177288			
38877	1.913777	3.155011	-3.611197	3.527680	-3.756632	-9.496175	-14.042763	-69.430690	-71.604419			
38878	1.701848	3.485128	-3.596205	3.862116	-3.613364	-9.762631	-14.262013	-68.970367	-71.001275			
38879	1.608955	3.854400	-4.327161	4.283363	-4.206046	-10.174996	-14.601745	-68.644028	-70.434930			
38880	1.403323	2.792999	-4.955182	3.250989	-4.822327	-10.519913	-15.230127	-68.466551	-69.924294			
38881	1.485183	1.442413	-5.103989	1.917098	-5.132372	-10.378784	-15.982358	-68.449908	-69.445889			
38882	1.361253	0.205794	-5.280342	0.663561	-5.382000	-10.421829	-16.791097	-68.596600	-68.921406			
38883	1.893320	-0.782246	-4.966359	-0.274635	-5.363683	-9.683690	-17.539575	-68.916255	-68.268000			
38884	2.668981	-1.125942	-3.679258	-0.563332	-4.442455	-8.443306	-18.011807	-69.377449	-67.467120			
38885	5.102549	0.426229	-0.197932	1.126782	-1.772017	-5.138635	-18.569265	-70.026779	-66.403943			
38886	10.264606	0.463741	4.920426	1.539952	1.549747	1.368232	-19.424822	-70.615421	-65.188733			
38887	18.608899	0.358814	12.945660	2.049600	6.775470	11.725635	-20.512579	-70.907923	-63.991430			
38888	24.458905	-2.633426	17.840433	-0.281991	9.397571	19.084630	-21.506239	-70.534207	-63.025930			
38889	20.887973	-4.151952	18.786312	-2.233636	10.978124	16.282393	-21.691427	-69.784700	-62.304784			
38890	13.436726	-0.462267	18.726919	0.161962	13.404056	8.942428	-21.199539	-69.155289	-61.874402			
38891	8.372384	1.477259	16.251611	1.314494	12.830768	3.227121	-21.281410	-68.986201	-61.257733			
38892	8.644445	1.244813	14.575847	1.237528	11.156323	2.944108	-21.719271	-69.136451	-60.620439			
38893	9.389884	0.249099	12.069289	0.611591	8.462955	2.911451	-21.905275	-69.264813	-60.111291			
38894	11.710446	0.700332	11.225867	1.484275	7.046129	4.740438	-21.634234	-69.216208	-59.764283			
38895	8.857866	2.153257	12.698536	2.117385	9.477379	2.436534	-20.429114	-68.643118	-60.320797			
38896	-0.404266	1.709497	-3.088989	2.021323	-2.422424	-11.447729	-19.670840	-69.073271	-59.953957			
38897	5.578085	6.195915	-9.359260	8.478658	-9.108094	-8.315811	-19.539527	-70.759075	-59.171262			
38898	15.257383	10.615304	-8.585564	14.075357	-10.025209	1.163842	-19.826205	-73.752795	-60.301840			
38899	24.563471	6.692573	-10.262195	11.208645	-14.524641	10.603626	-20.627557	-74.859959	-61.513248			
38900	18.553492	-1.481874	4.416413	0.629348	-0.424478	9.300424	-24.523266	-72.927323	-59.000357			
38901	9.555234	-21.013063	21.327342	-20.544729	15.506202	8.212120	-31.054829	-70.683885	-54.275152			
38902	3.081414	-17.560015	-6.282466	-16.274449	-8.693316	-5.703297	-31.299376	-71.934343	-53.727109			
38903	12.334001	1.859890	-10.549817	4.992067	-12.840308	-1.034887	-25.900723	-73.621010	-55.097848			
38904	14.512948	16.153626	-2.030975	18.184857	-1.971164	2.058426	-16.487271	-74.958963	-60.447423			
38905	11.566135	24.774481	-1.381794	25.704191	1.655866	-0.540834	-12.669606	-75.764163	-65.290949			
38906	6.236055	7.260339	-3.239179	8.368366	-3.016547	-5.021221	-21.673969	-76.279038	-58.802914			
38907	4.578653	-2.270238	-8.737600	-0.497924	-9.677390	-6.890305	-35.448202	-76.734107	-47.966127			
38908	6.910698	-12.491729	-15.467857	-10.085911	-17.510453	-3.933533	-45.457648	-76.435274	-41.536753			
38909	8.670399	-20.090511	-7.162182	-17.984950	-9.522998	0.954535	-49.097107	-76.192198	-38.994788			
38910	6.245159	-9.975114	-2.029508	-8.598726	-3.480352	-2.291314	-50.522800	-77.365866	-35.831886			
38911	9.107355	-2.694960	-7.112203	-0.631994	-8.308087	-1.365199	-52.087114	-79.436246	-32.219225			
38912	11.889367	2.254661	-6.494411	4.633208	-7.202542	0.923408	-50.151792	-81.149322	-31.981437			
38913	10.984115	4.737816	-1.835223	6.261092	-1.923861	0.363571	-47.127636	-82.177863	-33.259175			
38914	9.890340	4.892757	1.368648	5.644867	1.509414	-0.353008	-47.188024	-82.846482	-32.448820			
38915	8.634289	2.978526	0.636532	3.699809	0.659754	-1.463896	-53.535681	-83.461933	-26.226065			
38916	8.819446	1.153363	-1.391737	2.263177	-1.511273	-1.231259	-65.005907	-83.987541	-15.305401			
38917	9.227916	-0.715803	-1.981328	0.526124	-2.231750	-0.629483	-76.820223	-84.434999	-4.266292			
38918	9.336535	-1.927986	-1.980532	-0.723986	-2.231273	-0.362586	-88.701931	-84.804545	7.410668			
38919	9.197168	-0.803135	-1.017458	0.146417	-0.926359	-0.572285	-102.905155	-85.050909	21.750626			
38920	9.816877	0.151131	-1.087649	1.069701	-0.632688	-0.013287	-117.308434	-84.791349	35.974840			
38921	9.289590	-0.732595	-0.747715	0.069905	-0.249584	-0.468086	-127.313090	-83.996559	45.295548			
38922	8.889808	-2.945443	-2.219043	-1.951555	-1.808626	-0.563712	-134.719386	-82.971365	51.721953			
38923	9.162316	-4.186243	-2.885522	-3.099277	-2.356074	-0.084474	-139.630928	-82.107327	55.948408			
38924	8.177419	-3.370970	-1.506937	-2.554875	-0.839596	-1.252879	-144.359507	-81.419034	60.534346			
38925	8.004240	-1.670864	-0.733412	-1.022671	0.225664	-1.670317	-150.549993	-80.598937	67.022513			
38926	9.037290	-0.592179	-0.824507	0.028253	0.588159	-0.737902	-156.876393	-79.613939	73.858618			
38927	9.656695	0.391929	-1.286222	0.976357	0.562121	-0.128378	-161.654082	-78.645936	79.165775			
38928	9.285325	0.610310	-1.476447	1.093684	0.521223	-0.469326	-165.482073	-77.722083	83.140566			
38929	9.844499	0.954645	-2.589003	1.505984	-0.228151	0.296993	-168.012439	-76.844827	85.506867			
38930	9.973577	0.950353	-2.302754	1.394146	0.197318	0.370371	-169.715611	-76.321544	86.414108			
38931	8.447032	-1.077794	-1.255457	-0.806219	0.714802	-1.272884	-170.691156	-75.696307	86.549325			
38932	6.822336	-3.195728	-0.566447	-3.032342	0.904003	-2.952418	-172.077492	-74.600313	87.472486			
38933	7.390083	-3.129230	-2.140145	-2.851497	-0.267487	-2.016594	-173.733346	-73.025215	89.178662			
38934	8.451914	-2.530816	-3.188944	-2.203152	-0.672843	-0.718883	-174.844332	-71.346319	90.705233			
38935	9.271725	-1.250329	-3.216342	-0.986015	-0.066833	0.030643	-175.874914	-69.885205	92.146372			
38936	9.386929	0.339225	-2.283060	0.426125	1.232070	-0.234668	-176.742484	-68.678024	93.341516			
38937	9.121339	1.479709	-0.922344	1.343521	2.708600	-1.032344	-177.567152	-67.569074	94.389327			
38938	9.505376	2.046980	-0.003574	1.715951	3.927521	-1.085167	-178.547766	-66.536544	95.416342			
38939	9.910539	2.032594	0.471818	1.556252	4.663084	-0.958062	-179.570769	-65.624608	96.301721			
38940	9.853272	1.682941	1.289518	1.066866	5.459256	-1.407990	179.660492	-64.810298	96.779781			
38941	9.734658	0.743683	2.269672	0.019719	6.289982	-2.008691	179.009850	-64.024855	96.924024			
38942	10.186002	-0.356310	2.983250	-1.153901	7.111443	-2.010404	178.377728	-63.309241	96.925427			
38943	10.128662	-1.449988	2.327400	-2.176954	6.498988	-1.867142	177.820292	-62.669623	97.020170			
38944	10.585350	-1.652133	0.359455	-2.288786	5.044910	-0.635685	177.392953	-62.015886	97.438997			
38945	11.296523	-0.777997	-1.027450	-1.421888	4.327080	0.604882	176.987568	-61.456173	98.006535			
38946	11.399091	-0.247870	-1.488631	-0.922958	4.096361	0.891713	176.345579	-61.117901	98.264110			
38947	10.569963	-1.093958	-0.294231	-1.790360	4.734833	-0.464811	175.724320	-60.824874	97.793383			
38948	10.707350	-2.850643	0.068708	-3.531142	5.090640	-0.626118	174.791921	-60.533221	97.238172			
38949	11.148428	-3.704736	-1.200604	-4.374809	4.283701	0.284994	173.741938	-60.193363	97.100760			
38950	12.249134	-1.652603	-2.795345	-2.458532	3.611928	2.082440	172.500235	-59.763864	97.616505			
38951	13.022220	0.607516	-2.991267	-0.366463	3.935930	2.964948	171.252845	-59.545883	98.205066			
38952	13.071969	0.855865	-1.948601	-0.171375	4.880630	2.498114	170.260111	-59.495303	98.321876			
38953	14.766431	-1.158115	-0.685809	-2.267398	6.843741	3.144203	169.387135	-59.420961	98.196048			
38954	17.146432	-3.831934	-0.497978	-5.096496	8.294877	4.821253	168.693258	-59.345245	98.266382			
38955	19.352585	-3.866656	2.175805	-5.127907	11.713816	5.376069	168.235295	-59.543802	98.615841			
38956	19.813312	-2.849168	5.793503	-3.920610	14.915064	4.202026	167.601197	-60.357414	99.135819			
38957	19.395532	-3.524048	7.510333	-4.465282	15.947425	3.253549	166.990441	-61.849184	99.777556			
38958	16.288943	-3.305053	8.015921	-4.073239	14.594046	0.718407	166.888547	-63.404838	100.757472			
38959	15.922301	0.836678	8.527871	-0.158645	14.536377	0.938671	166.503008	-64.544570	102.529971			
38960	16.269028	2.767474	7.046842	1.364522	13.116740	2.355687	165.110811	-65.681434	104.696038			
38961	14.911582	0.186409	1.784997	-1.373247	7.421355	3.172016	163.217221	-66.920840	106.441792			
38962	15.595558	-2.157722	-4.186992	-4.047092	1.769666	5.868051	160.931254	-68.143358	108.120178			
38963	16.711536	-2.042879	-6.753510	-4.261306	-0.631788	7.807891	158.857938	-69.487974	109.582073			
38964	17.779450	-1.677091	-8.640124	-4.188278	-2.496623	9.417018	157.118329	-70.824424	110.554351			
38965	18.084547	-0.883965	-10.775566	-3.621908	-4.911369	10.353743	155.484704	-72.229039	111.332861			
38966	17.109757	0.466443	-10.829536	-2.222914	-5.752411	9.479545	154.073524	-73.580068	112.028171			
38967	16.144032	0.741186	-9.530730	-1.716806	-5.223911	8.124926	153.027886	-75.077714	112.820395			
38968	14.303940	0.424296	-7.417069	-1.556990	-4.038996	5.712763	152.145261	-76.685555	114.091272			
38969	13.454402	0.577375	-5.787734	-1.051112	-3.065681	4.481772	150.754459	-78.358319	116.263007			
38970	13.393727	1.459320	-3.437644	0.100924	-1.229000	4.036582	148.051801	-80.085199	119.716945			
38971	12.862784	1.268134	-3.894503	0.056126	-2.167183	3.510659	144.902574	-81.807458	123.464291			
38972	12.576313	-0.680002	-5.637340	-1.743946	-4.290045	3.185041	141.654919	-83.609327	127.442412			
38973	13.454171	-2.317998	-9.285646	-3.143166	-8.344732	4.081114	133.292261	-85.784538	137.768248			
38974	10.074663	1.918143	-2.701109	1.530324	-2.353002	0.413630	98.796251	-87.580616	174.613494			
38975	8.751128	5.071314	-2.312813	4.852868	-2.109863	-0.888531	53.242159	-87.052248	-139.201824			
38976	8.995464	4.299574	-5.036044	4.321628	-5.163373	-0.900909	29.528404	-86.013467	-115.783180			
38977	9.251672	2.137111	-5.527986	2.233249	-6.087780	-0.943580	15.618174	-84.657000	-102.547507			
38978	8.560901	1.220343	-5.499660	1.373390	-6.311865	-1.857236	7.221816	-82.976241	-94.496176			
38979	6.632042	2.018008	-3.868595	2.169972	-4.636731	-3.745599	1.947653	-81.401542	-89.360465			
38980	6.478500	1.883085	-4.867908	2.138933	-5.762832	-4.206969	-2.048395	-79.992087	-85.554784			
38981	5.914268	1.733664	-4.970248	2.034149	-5.904157	-4.945760	-5.353283	-78.562192	-82.542378			
38982	5.110956	1.371187	-5.035018	1.695278	-5.927131	-5.895280	-7.963972	-77.267079	-80.055516			
38983	4.914358	0.911745	-5.914283	1.302367	-6.837386	-6.419740	-9.838884	-75.920391	-78.150422			
38984	3.442260	0.647605	-5.111108	0.984687	-5.774586	-7.794097	-10.927114	-74.566895	-76.938630			
38985	2.528806	0.686655	-4.435471	0.977649	-4.914275	-8.615579	-11.657603	-73.486242	-76.094171			
38986	2.625435	0.636794	-5.369350	0.981230	-5.855174	-8.873700	-11.995732	-72.569340	-75.657191			
38987	2.640746	1.444885	-5.704531	1.818207	-6.146930	-9.097410	-11.879109	-71.805196	-75.563585			
38988	2.162542	1.742013	-5.516790	2.100137	-5.803729	-9.584784	-11.462332	-71.254185	-75.618746			
38989	2.613262	2.799780	-5.810080	3.239594	-6.142659	-9.368426	-10.877828	-70.844445	-75.765223			
38990	2.419769	3.855502	-5.018840	4.279688	-5.236376	-9.396359	-10.212070	-70.489917	-75.972475			
38991	2.231928	4.704170	-4.807390	5.123206	-4.890512	-9.573240	-9.962111	-70.331249	-76.054986			
38992	2.623887	4.295132	-5.156429	4.762256	-5.384005	-9.307701	-10.215063	-70.262431	-76.071798			
38993	2.938653	3.073774	-4.348040	3.493550	-4.848141	-8.681540	-11.076340	-70.264217	-75.941100			
38994	3.250458	0.721453	-3.642053	1.097731	-4.458985	-8.006385	-12.366032	-70.273987	-75.561745			
38995	3.443082	-1.555188	-2.727333	-1.215669	-3.762088	-7.346835	-14.010063	-70.315656	-74.836734			
38996	4.390494	-3.766739	-2.475528	-3.360145	-3.861948	-6.153839	-16.035978	-70.365099	-73.772842			
38997	6.065117	-5.939485	-2.620223	-5.363441	-4.517503	-4.358007	-17.820778	-70.499385	-72.429456			
38998	10.693485	-4.432733	0.720271	-3.289017	-2.759523	0.961613	-18.607954	-70.730952	-71.238480			
38999	16.843893	-1.534275	7.766346	0.384403	2.136947	8.671672	-19.256272	-71.002192	-70.176632			
39000	21.200582	-1.545023	13.182039	0.984629	6.023422	14.443541	-20.414183	-70.928015	-69.067772			
39001	17.940512	-2.414285	17.091501	-0.112287	10.649808	12.690117	-20.948306	-70.425032	-68.157950			
39002	13.280815	-0.555036	19.659819	1.189414	14.474692	8.956009	-21.443788	-70.005420	-67.251414			
39003	10.011402	-1.533479	16.742841	-0.159033	12.656534	5.110057	-22.608157	-69.894194	-66.167298			
39004	8.839180	-1.332650	14.065430	-0.032551	10.537378	3.098732	-23.804327	-70.051217	-65.097846			
39005	8.534596	0.011512	12.988088	1.319607	9.716446	2.244620	-24.477750	-70.153126	-64.616602			
39006	7.316004	-0.492431	12.043959	0.684364	9.196072	0.854418	-24.617666	-70.197010	-64.676666			
39007	9.104811	-2.244998	9.147941	-0.813679	5.864919	1.873317	-24.711765	-70.488288	-64.583621			
39008	15.362224	-3.175019	6.483460	-0.889731	1.527580	7.068837	-25.324974	-71.099093	-63.757464			
39009	15.396165	-2.501800	2.238969	-0.292735	-2.354186	5.765627	-25.021708	-71.740933	-63.283345			
39010	10.787251	2.287103	-5.235674	3.863279	-7.812187	-1.266045	-24.284336	-72.950236	-62.705547			
39011	13.262180	5.594635	-5.452705	7.538833	-8.113294	0.875443	-22.951612	-74.354437	-62.304403			
39012	15.922509	6.503132	-0.310515	8.408902	-3.430040	4.796783	-20.585284	-74.439034	-63.517569			
39013	16.478578	2.615792	8.837854	3.820414	4.649633	8.083202	-19.229371	-73.089062	-64.718443			
39014	10.870555	-1.043602	8.867397	-0.448958	5.464867	3.141914	-19.089297	-72.687500	-64.786389			
39015	10.898309	4.187844	-6.424429	6.105595	-8.504594	-1.567962	-19.552888	-73.317411	-63.952132			
39016	7.763192	5.597679	-8.434044	7.415177	-9.279975	-5.162478	-20.619550	-73.702833	-61.715576			
39017	3.154578	8.934814	-8.546806	10.192712	-7.676896	-9.804724	-23.576521	-75.104440	-59.006567			
39018	1.048911	10.951945	-15.784171	12.308020	-14.307608	-13.538848	-26.890718	-75.902420	-58.967781			
39019	3.266424	1.175064	-3.275301	1.710064	-3.796207	-7.480046	-37.674351	-75.580139	-51.630862			
39020	7.031628	-12.509582	-9.504457	-11.462209	-10.443276	-2.357858	-55.410845	-74.986399	-38.621262			
39021	14.627909	-41.536088	-21.512614	-39.877215	-20.103489	10.361992	-59.137787	-74.942264	-38.310824			
39022	6.214896	-19.561780	-3.992909	-18.247542	-3.319617	-0.163073	-55.874990	-75.713264	-37.904882			
39023	7.591417	-3.047140	-4.840497	-1.822981	-5.758810	-2.474009	-55.456722	-77.743306	-34.907560			
39024	13.405909	2.350312	-10.076149	4.590554	-11.404164	1.832642	-51.430498	-80.124011	-35.311390			
39025	11.811576	8.416829	-4.747984	10.186070	-5.084240	0.349079	-41.324062	-81.450888	-41.852133			
39026	8.943762	11.986134	1.317415	12.558645	2.060113	-1.849693	-32.829151	-82.040511	-48.491813			
39027	7.707610	8.258389	2.632754	8.442621	3.123562	-2.498050	-34.727977	-82.496900	-46.267843			
39028	6.965698	3.184243	0.468945	3.704776	0.412307	-3.105862	-46.710908	-83.465094	-34.453669			
39029	9.267080	0.945828	-3.874443	2.352101	-4.104284	-0.902266	-66.357006	-84.498217	-15.603921			
39030	12.012142	-2.551331	-7.443458	-0.422031	-7.929445	2.151663	-76.732881	-84.821948	-5.683924			
39031	8.515924	-1.923682	-0.884488	-1.028102	-1.148670	-1.174041	-85.878576	-85.006070	3.739571			
39032	8.637514	-0.884614	-0.370335	-0.104433	-0.338638	-1.129538	-102.115149	-85.168323	20.346475			
39033	10.292981	-0.099475	-1.897495	0.957984	-1.459884	0.507234	-118.477766	-84.838572	37.093672			
39034	10.037463	0.669522	-0.601684	1.449583	0.150368	0.158946	-129.121030	-84.250947	47.824736			
39035	9.406501	0.143355	-0.038851	0.763593	0.770742	-0.467932	-137.129899	-83.512763	55.635200			
39036	9.249019	-0.159238	0.094595	0.395369	1.015432	-0.626352	-143.801758	-82.783177	62.123816			
39037	9.340061	-0.207108	0.103034	0.296569	1.184403	-0.550006	-149.545890	-82.114787	67.817664			
39038	9.034841	-0.118265	0.205276	0.287208	1.394776	-0.887727	-154.331409	-81.516053	72.536412			
39039	8.760216	-0.348490	0.090924	-0.001402	1.329383	-1.146519	-158.413179	-80.929463	76.408380			
39040	8.641145	-0.786457	-0.408920	-0.434241	0.877658	-1.181658	-162.308503	-80.269276	79.954025			
39041	9.060706	-1.207829	-1.168393	-0.810694	0.281983	-0.637645	-165.882345	-79.481941	83.212337			
39042	9.822357	-1.313204	-1.619351	-0.920534	0.113945	0.185446	-168.752176	-78.683004	85.839075			
39043	9.742153	-1.396518	-1.284049	-1.119981	0.567379	0.032613	-170.945362	-77.825846	87.827008			
39044	10.098576	-1.430357	-2.098064	-1.120104	-0.000622	0.539712	-172.771233	-77.040646	89.400159			
39045	9.646662	-1.378142	-1.698953	-1.170735	0.414324	0.000596	-173.885809	-76.476597	90.308607			
39046	8.102913	-1.766664	-1.240901	-1.642622	0.547896	-1.607872	-174.695223	-75.814613	91.300823			
39047	7.816733	-0.620760	-0.924914	-0.580675	1.018819	-2.004658	-175.748127	-74.819150	92.966443			
39048	8.798987	0.724365	-1.249313	0.714218	1.286604	-1.018440	-176.958801	-73.657754	94.929247			
39049	10.217396	1.636877	-1.646073	1.551265	1.618183	0.422326	-178.059352	-72.658438	96.589081			
39050	10.060705	1.640123	-0.908266	1.380196	2.420210	0.034595	-178.665372	-71.997254	97.425759			
39051	8.904108	1.038965	-0.556208	0.733864	2.401909	-1.189255	-179.380119	-71.434869	97.930052			
39052	8.321836	0.544612	-0.510918	0.229085	2.277462	-1.777126	-179.927306	-70.664066	98.265028			
39053	8.624120	0.874144	-0.483184	0.497036	2.567734	-1.534344	179.458704	-69.703128	98.772840			
39054	9.333025	1.552485	-1.166387	1.162660	2.411186	-0.663467	178.521448	-68.731546	99.524114			
39055	10.186682	1.900121	-0.554928	1.308192	3.459609	-0.117066	177.558223	-67.932133	100.138242			
39056	9.664461	1.472665	0.097887	0.792194	3.917029	-0.890337	176.718228	-67.156998	100.332908			
39057	9.227150	0.295519	-0.253471	-0.330607	3.397238	-1.231338	175.890404	-66.217950	100.145971			
39058	9.473676	-1.019161	-2.087053	-1.520898	1.842885	-0.355829	175.069332	-65.159747	99.712468			
39059	10.356548	-2.311181	-4.077657	-2.800952	0.484881	1.193785	174.201025	-64.343259	99.319870			
39060	9.835297	-2.841842	-3.206378	-3.405524	1.173944	0.292385	173.355297	-63.856578	99.178557			
39061	9.560090	-2.272965	-2.319632	-2.898390	1.997047	-0.349476	172.523837	-63.384787	99.266375			
39062	11.206717	-1.622887	-1.435775	-2.425557	3.650378	0.726565	171.844325	-62.859144	99.354463			
39063	12.138901	-1.704333	-0.711369	-2.616868	4.809719	1.177372	171.037844	-62.474102	99.556691			
39064	11.676651	-1.706759	-0.794391	-2.623077	4.588698	0.768014	170.241153	-62.287627	99.827294			
39065	11.398188	-1.371513	-0.447573	-2.299093	4.808404	0.365391	169.446758	-62.174128	100.181917			
39066	11.582673	-1.169353	-0.580338	-2.162328	4.793975	0.589446	168.553119	-62.107345	100.684275			
39067	12.632238	-1.814255	-1.519386	-2.996060	4.425859	1.875264	167.484587	-62.201702	101.471307			
39068	14.268421	-1.222662	0.351271	-2.578183	6.781522	2.539172	166.258749	-62.505818	102.553818			
39069	15.287723	-1.171957	2.273528	-2.633913	8.867292	2.624725	165.231668	-62.835656	103.400720			
39070	15.933653	-1.618113	3.355939	-3.154265	10.032755	2.723468	164.271790	-63.189367	104.114340			
39071	16.202428	-3.112153	4.598028	-4.643954	11.136710	2.342528	163.636352	-63.910056	104.776392			
39072	15.250855	-2.953448	5.955569	-4.388689	11.777431	1.087087	163.215398	-64.675224	105.773505			
39073	16.676457	-0.761384	8.148282	-2.450175	14.169756	1.946601	162.409098	-65.563902	107.282396			
39074	16.130708	-1.188091	6.432003	-3.062063	12.085181	2.333679	161.151974	-66.862933	109.297112			
39075	14.367122	-0.267431	3.422651	-2.162637	8.315880	2.201968	159.280639	-68.243818	112.021746			
39076	14.743615	1.602275	1.581241	-0.557300	6.406305	3.643470	156.075188	-69.726058	115.829249			
39077	15.469822	3.269152	1.680272	0.818315	6.381028	4.727539	152.465091	-71.057279	119.336114			
39078	17.252363	0.503773	0.025074	-2.233019	4.712946	6.639745	149.565157	-72.411480	121.426821			
39079	18.437664	-0.988550	-2.230633	-3.855518	2.341103	8.229973	146.953540	-73.806657	123.107977			
39080	18.729839	-0.243503	-3.878368	-3.127428	0.368910	9.054553	144.250197	-75.194487	124.829358			
39081	17.918203	0.194916	-6.250439	-2.584008	-2.542680	8.815608	142.299113	-76.413046	125.945285			
39082	17.072529	1.445883	-8.321583	-1.228461	-5.089318	8.501020	141.597016	-77.444332	126.213069			
39083	16.709154	2.063090	-9.288924	-0.475657	-6.414657	8.307791	141.383386	-78.586789	126.120129			
39084	15.728799	-0.056671	-9.538268	-2.322060	-7.077851	7.006187	139.951153	-80.013119	127.160812			
39085	14.917650	-2.781990	-8.458877	-4.705500	-6.410746	5.632964	137.131094	-81.651765	130.191523			
39086	13.874477	-2.267616	-6.782864	-3.789827	-5.336185	4.357322	131.850435	-83.235473	136.382584			
39087	14.996683	-0.868458	-8.840835	-2.229826	-7.854580	5.585409	121.657521	-84.955602	148.284881			
39088	13.000096	-0.302438	-5.164165	-1.075385	-4.873322	3.256572	91.743804	-86.517480	-179.155844			
39089	9.447747	3.329138	-0.114053	2.782668	-0.130991	-0.190473	54.533940	-85.986552	-140.182206			
39090	10.454416	4.105844	-3.487399	3.841975	-3.800474	0.632344	35.113119	-84.802871	-120.552305			
39091	9.841203	1.058951	-3.048812	0.904123	-3.875117	-0.251254	21.533609	-83.342589	-107.132994			
39092	9.222674	0.303121	-2.953279	0.273857	-4.050152	-1.015786	13.335530	-81.925294	-98.984657			
39093	9.623485	0.535544	-3.692354	0.672546	-5.065113	-0.845194	7.419871	-80.437943	-93.015731			
39094	8.513784	0.276695	-3.300679	0.513211	-4.740682	-2.020895	2.587878	-78.928781	-88.307846			
39095	8.122367	-0.559357	-3.793601	-0.170617	-5.395404	-2.634038	-1.189008	-77.567691	-84.474393			
39096	7.985390	0.057515	-4.134582	0.592301	-5.807644	-2.973088	-4.003585	-76.201271	-81.374497			
39097	7.571179	-0.018532	-4.528143	0.662224	-6.235452	-3.607577	-6.217899	-74.867239	-78.818141			
39098	6.667419	0.002793	-4.716109	0.783401	-6.295837	-4.670610	-7.625616	-73.554237	-76.784723			
39099	5.874818	0.481972	-4.577906	1.324718	-5.978663	-5.546465	-8.499781	-72.317193	-75.154435			
39100	5.094840	0.715061	-4.651463	1.620565	-5.847671	-6.454019	-8.793016	-71.066962	-74.015239			
39101	4.044942	1.153404	-3.607187	1.942706	-4.511158	-7.247985	-8.793491	-69.949255	-73.150688			
39102	3.718647	1.427187	-3.720673	2.272079	-4.480274	-7.697893	-8.648890	-68.943698	-72.470573			
39103	3.321611	1.983565	-3.076414	2.754007	-3.655427	-7.945966	-8.454330	-68.040802	-71.911520			
39104	2.996657	2.279210	-2.613475	2.985026	-3.054643	-8.150323	-8.343778	-67.277051	-71.431146			
39105	3.136992	2.509295	-2.856192	3.298082	-3.276572	-8.175132	-8.369201	-66.631833	-71.006065			
39106	3.313542	2.545845	-3.332307	3.456022	-3.765315	-8.249599	-8.553215	-66.076335	-70.649924			
39107	3.639397	1.912307	-3.705410	2.955367	-4.358230	-8.108675	-8.882724	-65.629029	-70.294296			
39108	3.690697	1.515435	-4.098114	2.644934	-4.819639	-8.235468	-9.396240	-65.296955	-69.878863			
39109	3.466614	1.222836	-3.802207	2.281074	-4.533419	-8.324638	-10.122279	-65.098530	-69.385124			
39110	3.884685	0.355614	-3.883811	1.499973	-4.949042	-7.926347	-11.093506	-65.045596	-68.787565			
39111	3.531173	0.275911	-3.209449	1.263704	-4.220509	-7.958983	-12.120120	-65.094194	-68.096791			
39112	3.493550	1.083169	-2.692001	1.968517	-3.588270	-7.844374	-13.477519	-65.266329	-67.307196			
39113	3.455108	0.394414	-2.499888	1.252569	-3.521427	-7.721430	-14.880090	-65.496560	-66.476163			
39114	3.756611	0.537242	-1.423070	1.313824	-2.621641	-7.015061	-16.177762	-65.793663	-65.628214			
39115	4.525591	-0.206877	-0.896038	0.664426	-2.527244	-6.005048	-17.372758	-66.112284	-64.781645			
39116	5.820801	-0.728446	0.275314	0.270598	-1.968240	-4.286328	-18.498599	-66.548500	-63.902730			
39117	8.327173	-1.029822	1.732458	0.287343	-1.498772	-1.382134	-19.396603	-67.013333	-63.110276			
39118	10.539314	-1.551012	4.424192	-0.094756	0.245566	1.719250	-19.939272	-67.623763	-62.276388			
39119	14.179963	0.012454	7.568539	1.720166	2.343596	5.995524	-20.400456	-68.268877	-61.502317			
39120	17.011157	-0.945826	8.263587	1.188356	2.085299	8.970237	-21.153402	-68.648805	-60.786121			
39121	15.942263	-1.591797	9.738136	0.226348	3.784816	8.548813	-21.544355	-68.635684	-60.120502			
39122	13.140553	-1.259681	13.233354	-0.333797	7.967591	7.092585	-21.751092	-68.348140	-59.604248			
39123	10.547725	-2.660786	15.503207	-2.423150	10.597520	5.695497	-21.946840	-68.013524	-59.283850			
39124	8.030059	-4.336975	14.095640	-4.359609	9.766369	3.132972	-22.205638	-68.022766	-58.865895			
39125	8.702522	-4.390318	12.263559	-4.108830	7.832065	3.117097	-22.137610	-68.159270	-58.470919			
39126	8.810991	-3.025379	10.415486	-2.619570	6.330851	2.366228	-21.918112	-68.391605	-58.055058			
39127	9.258419	-1.670208	8.929665	-1.117337	5.110207	2.056718	-21.843749	-68.838082	-57.527777			
39128	10.374682	-0.308004	6.276570	0.719299	2.689650	1.992817	-22.070035	-69.621600	-56.897198			
39129	13.200356	0.133383	9.181601	1.083582	4.726909	5.518598	-20.665410	-69.730164	-57.545484			
39130	-0.568299	1.708562	-3.125448	2.122593	-2.348383	-11.541735	-19.262841	-70.607948	-57.829509			
39131	6.188675	5.849620	-9.988184	8.738491	-9.492389	-7.410505	-19.164538	-73.628174	-56.868191			
39132	14.780459	12.961141	-11.033529	16.970093	-10.334445	0.829353	-15.324960	-76.986798	-60.449688			
39133	28.599545	10.995605	8.161705	11.763589	4.713868	19.253252	-11.945122	-76.837750	-64.356217			
39134	17.868017	0.590488	17.679727	-1.137685	12.854095	11.762802	-16.037954	-73.918656	-61.244814			
39135	5.981917	-17.498854	15.644487	-19.057238	9.471403	1.753826	-24.233697	-73.351201	-54.104735			
39136	12.652221	-14.433765	-7.802365	-10.292443	-13.390314	2.188439	-28.566306	-74.752315	-48.531125			
39137	13.576933	1.907673	-7.128106	5.717165	-8.867576	1.476783	-21.879590	-75.812406	-51.612958			
39138	13.341123	14.379362	1.559758	14.902656	3.475625	2.551303	-10.080879	-76.572093	-59.511875			
39139	8.957180	27.773677	2.716947	26.052387	10.392838	-1.314497	-5.053399	-77.204271	-64.841477			
39140	5.433124	13.245429	-1.919705	13.679937	1.405231	-5.399336	-14.381323	-77.711172	-58.922961			
39141	2.517440	-0.179692	-7.077943	1.854214	-7.195053	-8.698111	-30.247321	-78.110213	-47.004608			
39142	5.972674	-12.022224	-12.297154	-8.637996	-15.062186	-4.359978	-48.186245	-77.938762	-33.323111			
39143	12.274153	-26.157583	-17.230953	-21.486369	-21.732887	4.241809	-54.307513	-77.316229	-30.465669			
39144	5.086568	-18.892682	-4.068977	-17.130668	-6.733222	-2.031510	-53.436127	-77.371297	-29.816208			
39145	6.617080	-5.241028	-2.409020	-3.614731	-3.758223	-2.751033	-55.483757	-78.989811	-25.686546			
39146	11.734982	-1.368148	-8.745269	1.969884	-9.666306	1.083827	-55.960915	-81.023916	-22.905311			
39147	12.138858	3.715159	-5.143188	6.288258	-4.919964	1.316195	-52.297116	-82.170006	-24.335499			
39148	9.820028	4.774672	-0.329029	5.863493	0.303336	-0.600506	-50.280939	-82.598471	-25.151773			
39149	9.451777	3.331555	1.995944	3.819386	2.302029	-0.618594	-54.251179	-82.727342	-21.108037			
39150	9.362591	1.020186	0.535067	1.980461	0.434058	-0.600090	-63.855478	-82.771509	-12.195779			
39151	10.512384	-2.658327	-4.877142	-0.132111	-5.576947	0.686883	-70.528179	-82.780411	-6.270829			
39152	9.342258	-2.886749	-1.961838	-1.178716	-2.691030	-0.282269	-71.667423	-82.923520	-4.669123			
39153	7.190794	-0.179899	0.639281	0.514810	0.540153	-2.630020	-75.315593	-83.582311	0.041564			
39154	8.400731	1.309676	0.084146	2.096886	0.494507	-1.587796	-84.629032	-84.561793	10.226031			
39155	10.329743	2.224113	-1.790229	3.491884	-0.866617	0.282140	-96.908222	-85.288826	22.921025			
39156	10.547646	1.930068	-1.069635	2.914378	-0.099358	0.561179	-105.835258	-85.260843	31.857442			
39157	9.145970	0.429041	0.376338	0.960492	0.947645	-0.748900	-113.952520	-84.642677	39.341600			
39158	9.477227	-1.919565	-2.998753	-0.383675	-2.741091	-0.074557	-121.272359	-83.926139	45.543496			
39159	9.199385	-3.140997	-3.506146	-1.501761	-3.393745	-0.168357	-125.793381	-83.452045	49.451864			
39160	7.896625	-1.841750	-1.551347	-0.853721	-1.196115	-1.688969	-131.829911	-83.116301	55.365775			
39161	8.553908	-0.942924	-2.047033	0.113512	-1.284788	-1.061514	-139.309795	-82.604892	62.866009			
39162	9.098357	-0.668843	-2.887511	0.529859	-1.831532	-0.435715	-145.345994	-82.020003	68.839597			
39163	8.741592	-0.942150	-2.732953	0.132965	-1.657458	-0.757000	-149.969671	-81.407118	73.260037			
39164	9.089116	-1.643617	-2.492135	-0.662413	-1.405062	-0.372913	-153.902392	-80.756060	77.003855			
39165	10.143083	-2.169414	-2.064348	-1.310363	-0.814200	0.650015	-157.350625	-80.143004	80.452830			
39166	10.487888	-1.675221	-1.176750	-1.105839	0.326168	0.810681	-160.420133	-79.583259	83.707166			
39167	10.583934	-0.679900	-0.947755	-0.269620	0.894919	0.794159	-162.799876	-79.047384	86.203231			
39168	10.749995	-0.380584	-1.071248	-0.012239	0.956373	0.954834	-164.508389	-78.768396	87.592209			
39169	9.350446	-1.989243	0.231537	-1.921572	1.627677	-0.587748	-165.167517	-78.461458	88.153075			
39170	7.859654	-1.589502	1.720727	-1.910514	2.916767	-2.389570	-166.382423	-77.580210	89.724417			
39171	9.047752	-0.604527	0.216590	-0.681507	2.103400	-1.015997	-168.906554	-76.399319	92.584074			
39172	10.495989	0.423113	-0.780724	0.424758	1.915640	0.536244	-170.942880	-75.398133	95.055400			
39173	10.981653	1.506351	-0.134512	1.198676	3.042301	0.779277	-172.598470	-74.831300	96.914950			
39174	10.849890	1.433131	0.560602	0.884898	3.711550	0.460054	-173.739846	-74.545039	97.905685			
39175	10.346340	0.679062	1.673960	-0.124745	4.485309	-0.316575	-174.452713	-74.193327	98.161522			
39176	9.263384	0.051568	1.358003	-0.620054	3.836350	-1.294840	-175.008256	-73.435831	98.040111			
39177	8.903423	-0.378288	-1.195697	-0.481900	1.397538	-0.943874	-175.798622	-72.348732	98.063054			
39178	9.171634	-0.262546	-4.567592	0.256557	-1.468095	0.327663	-176.483703	-71.346258	98.289403			
39179	8.888446	1.013433	-3.731817	1.291632	-0.401014	-0.214351	-177.170879	-70.789909	98.704822			
39180	7.889722	1.603802	-2.229694	1.584531	0.844562	-1.653824	-178.003070	-70.325791	99.101034			
39181	7.196679	1.463532	-1.695586	1.348987	1.142424	-2.485772	-178.667020	-69.568434	99.026738			
39182	7.584958	0.238802	-2.983327	0.298266	-0.026976	-1.664221	-179.344454	-68.571713	98.652187			
39183	8.718101	-1.241696	-3.939264	-1.143861	-0.592420	-0.252188	-179.981649	-67.728038	98.245132			
39184	8.876027	-1.866738	-2.399920	-2.033585	0.913950	-0.699162	179.185934	-67.252401	98.069959			
39185	8.751016	-2.426495	-1.525030	-2.724117	1.692420	-1.180893	178.267049	-66.853635	98.056655			
39186	9.170553	-2.987295	-1.762826	-3.323211	1.677203	-0.742272	177.389034	-66.324305	98.236832			
39187	10.054260	-3.010372	-2.067835	-3.429683	1.859128	0.147520	176.445614	-65.743029	98.753107			
39188	10.513962	-2.246329	-1.730196	-2.795093	2.528110	0.403856	175.558248	-65.201164	99.384218			
39189	10.840444	-1.692574	-1.649097	-2.341638	2.876624	0.643902	174.738146	-64.727576	99.923063			
39190	11.298332	-1.723924	-1.608911	-2.468439	3.174626	1.005851	174.074131	-64.397462	100.306682			
39191	11.408052	-1.790452	-1.044762	-2.623003	3.768194	0.834436	173.503137	-64.236932	100.680338			
39192	11.229403	-1.605694	-0.929298	-2.473784	3.820745	0.619161	172.892686	-64.244368	101.184095			
39193	11.132749	-1.318822	-0.540848	-2.241792	4.128950	0.380241	172.313189	-64.420178	101.724531			
39194	11.358513	-1.599539	0.455186	-2.635584	5.053359	0.152169	171.587400	-64.648682	102.434767			
39195	12.957180	-1.351527	1.471201	-2.641448	6.604524	1.200121	170.744204	-64.888211	103.222698			
39196	15.107650	-1.253656	2.324800	-2.849831	8.191482	2.836190	169.845860	-65.303696	103.985502			
39197	16.255944	-2.023324	3.244183	-3.806283	9.269729	3.545944	169.144561	-66.181310	104.636316			
39198	14.883376	-2.920394	4.502349	-4.646975	9.570269	1.897160	168.697061	-67.329245	105.496089			
39199	14.021715	-1.777238	8.225986	-3.733931	12.532026	0.007042	168.412958	-68.419291	106.737766			
39200	15.171226	0.667051	10.039945	-1.740138	14.640869	0.865099	167.703285	-69.463910	108.172747			
39201	15.070409	0.573879	7.666577	-1.754223	12.130299	1.848759	166.628147	-70.658816	109.579266			
39202	14.383304	1.241622	3.767126	-0.729552	8.044523	2.731470	164.978756	-71.850291	111.363234			
39203	15.280878	1.180889	0.890961	-0.669799	5.223818	4.607495	162.541514	-73.257407	113.789496			
39204	14.481805	0.406037	-0.634719	-1.251684	3.047422	4.308961	159.156883	-74.711053	117.165418			
39205	15.209724	1.250310	-1.785414	-0.456099	1.785792	5.440977	155.155891	-75.981429	120.693818			
39206	16.358203	0.902057	-4.187839	-0.771115	-0.761668	7.061971	151.837232	-77.160515	123.157978			
39207	15.637650	0.355753	-6.084962	-1.098744	-3.175522	6.630805	149.033128	-78.248401	125.034066			
39208	14.765278	0.861945	-7.517428	-0.444967	-4.982798	6.006153	146.387568	-79.025299	126.854299			
39209	14.255083	1.617574	-8.248455	0.343807	-5.939734	5.629452	144.424567	-79.485111	128.323630			
39210	15.064114	2.733263	-7.604454	1.311344	-5.294095	6.388425	142.707188	-80.018249	129.760397			
39211	14.931833	2.851605	-7.469100	1.489658	-5.417378	6.165477	140.456148	-81.141367	131.665411			
39212	13.482899	0.997899	-5.247135	-0.142860	-3.762304	4.192001	138.851753	-82.584378	132.791287			
39213	13.170769	-0.864079	-5.099881	-1.812145	-3.984398	3.643072	137.125213	-84.013292	133.936994			
39214	13.111586	-3.007995	-6.331690	-3.763319	-5.548163	3.457435	131.992810	-85.518164	138.976142			
39215	12.946169	-3.276996	-7.210598	-3.759103	-6.827223	3.209008	116.896403	-87.148853	155.215691			
39216	11.217443	-0.850270	-3.681966	-1.118219	-3.672515	1.383552	73.734897	-87.874212	-160.222909			
39217	10.270387	0.537194	-5.339055	0.593425	-5.579321	0.325403	36.458554	-86.990059	-121.858446			
39218	9.929824	2.008169	-4.208760	2.123978	-4.613613	-0.089443	19.866581	-85.523103	-104.727677			
39219	8.055191	1.885176	-3.173776	2.036684	-3.692146	-2.019855	10.893403	-84.236461	-95.954886			
39220	8.493822	-0.532333	-4.491245	-0.200174	-5.432043	-1.872369	4.519633	-83.021844	-89.938483			
39221	7.809489	-0.743606	-3.598927	-0.407272	-4.649294	-2.552666	0.412919	-81.738843	-85.675953			
39222	7.360463	0.335502	-2.841930	0.694656	-3.898521	-2.980298	-2.353729	-80.491012	-82.498771			
39223	7.331654	0.591409	-3.083572	1.066639	-4.233070	-3.137938	-4.535686	-79.381839	-79.904636			
39224	7.116870	0.773321	-3.714416	1.400163	-4.896096	-3.558875	-6.046890	-78.324750	-77.829995			
39225	6.888862	1.219826	-3.921300	1.963060	-5.085217	-3.930023	-6.877290	-77.315343	-76.225800			
39226	6.668045	1.599630	-4.144301	2.466461	-5.266866	-4.301654	-7.011805	-76.340796	-75.133531			
39227	6.396686	2.086258	-3.748669	2.989797	-4.796163	-4.580206	-6.593162	-75.365778	-74.466215			
39228	5.920282	2.377875	-3.156573	3.251576	-4.094230	-4.982422	-5.875923	-74.412924	-74.100380			
39229	5.624210	2.835125	-2.417155	3.628671	-3.253976	-5.148343	-5.147063	-73.483041	-73.862599			
39230	5.219139	3.185827	-1.618779	3.843814	-2.345941	-5.370764	-4.694723	-72.596320	-73.686603			
39231	5.025599	3.185056	-1.127061	3.763456	-1.865944	-5.450828	-4.621867	-71.779705	-73.497479			
39232	4.920993	3.404166	-0.690379	3.907754	-1.430608	-5.457969	-5.006353	-71.086455	-73.217828			
39233	5.000548	2.648851	-0.743331	3.208602	-1.719662	-5.417056	-6.018465	-70.529325	-72.771922			
39234	5.316386	1.814429	-0.984539	2.485738	-2.267962	-5.208068	-7.387876	-70.088619	-72.172226			
39235	5.207234	1.041026	-0.838367	1.710460	-2.286931	-5.257913	-9.095470	-69.756794	-71.414849			
39236	4.885865	0.100311	-0.966481	0.784900	-2.486445	-5.568006	-11.010889	-69.574177	-70.478047			
39237	5.006248	-0.605361	-1.634882	0.197801	-3.259598	-5.636841	-12.952605	-69.517508	-69.430607			
39238	4.832883	-0.640655	-1.034182	0.084079	-2.631076	-5.581018	-14.917782	-69.585105	-68.273334			
39239	5.239732	-1.201620	-0.874302	-0.416253	-2.655574	-5.075862	-16.881834	-69.811501	-67.008077			
39240	5.943592	-1.135875	-0.261056	-0.284255	-2.245696	-4.194830	-18.736614	-70.121265	-65.683999			
39241	6.689341	-1.094580	-0.252842	-0.110436	-2.403780	-3.470884	-20.416468	-70.510276	-64.307797			
39242	7.467849	-0.577451	0.374259	0.502555	-1.919082	-2.580377	-21.980426	-70.876766	-62.889632			
39243	7.563409	-0.576777	0.742701	0.528552	-1.525802	-2.364100	-23.485045	-71.238893	-61.441599			
39244	8.063651	-0.376283	1.177663	0.808738	-1.157661	-1.778004	-24.873976	-71.591094	-59.977548			
39245	8.487014	-0.597666	1.840243	0.641990	-0.581680	-1.151169	-26.187980	-72.007023	-58.444045			
39246	10.148872	0.044226	2.678293	1.513007	-0.048610	0.573952	-27.688688	-72.369027	-56.914078			
39247	11.252381	-1.034629	3.453278	0.627685	0.387564	1.979962	-29.261842	-72.546974	-55.614240			
39248	11.723168	-1.907351	4.496275	-0.150994	1.234588	2.826125	-30.365641	-72.450946	-54.744070			
39249	11.377681	-2.099431	5.896609	-0.409123	2.655610	2.891999	-31.142433	-72.210603	-54.126206			
39250	10.418062	-2.882177	6.808645	-1.324359	3.663636	2.353814	-31.635637	-71.836312	-53.738105			
39251	9.138775	-4.481517	7.380844	-3.092971	4.327761	1.579481	-32.051432	-71.465112	-53.264492			
39252	8.817784	-5.152448	7.953438	-3.825484	4.826497	1.572750	-31.894772	-71.222596	-52.889936			
39253	10.234399	-3.483963	8.643203	-1.999847	5.249881	2.837403	-31.560375	-71.129625	-52.679081			
39254	10.959889	-3.100308	9.740503	-1.633552	6.110545	3.774083	-30.882303	-71.086518	-52.825605			
39255	11.333101	-2.810373	10.760801	-1.464733	6.969880	4.379069	-29.887903	-71.067178	-53.273717			
39256	11.656245	-2.322877	9.976078	-0.975601	6.137022	4.405943	-28.767937	-71.024865	-53.820549			
39257	10.883382	-1.458920	8.206852	-0.213109	4.709234	3.059965	-27.540857	-70.902508	-54.444156			
39258	9.255585	-0.343994	6.852293	0.613292	3.982538	0.980849	-26.487406	-70.939836	-54.781614			
39259	8.523864	1.034153	5.291884	1.914843	2.935589	-0.355165	-25.666215	-71.173906	-54.945896			
39260	7.447959	1.598484	3.269428	2.463283	1.449452	-2.031483	-25.244698	-71.596368	-54.837317			
39261	7.065767	1.981524	1.681886	2.940803	0.192749	-2.884933	-25.156902	-72.282311	-54.386680			
39262	8.050526	3.526774	-0.681254	4.936155	-1.865957	-2.751290	-25.392149	-73.275814	-53.650205			
39263	11.830653	4.904524	-1.207519	6.937834	-2.761929	0.661464	-25.387671	-74.404589	-52.963095			
39264	14.844903	5.563373	0.730728	7.578203	-1.160975	4.082250	-24.121578	-75.336049	-53.148026			
39265	15.395588	4.731251	4.801277	5.859306	2.585806	5.725659	-22.533499	-75.550535	-53.689688			
39266	12.897112	1.106357	8.248267	1.181468	5.446199	4.488892	-22.814544	-74.929568	-52.934555			
39267	9.575172	-4.525094	6.853101	-4.307322	3.335293	1.564683	-26.002927	-74.428214	-49.901184			
39268	10.877912	-5.983856	2.165584	-4.306449	-1.629475	1.918521	-29.235194	-74.888631	-46.672797			
39269	12.534082	0.050182	-2.643767	2.828996	-4.800550	1.721769	-28.336650	-75.811608	-46.828110			
39270	11.457091	6.221668	-1.804286	8.225729	-2.023034	0.260461	-24.655846	-76.497248	-49.262228			
39271	9.792553	9.516422	1.186199	10.168372	2.186351	-0.886287	-21.585203	-77.046871	-51.302753			
39272	7.017437	10.778717	0.273161	11.152335	2.247968	-3.806730	-24.010193	-78.015310	-49.830863			
39273	6.586922	4.327332	-3.626146	5.924190	-3.283700	-4.392200	-32.275147	-79.100989	-44.323836			
39274	6.817469	-2.029190	-6.700803	0.286631	-7.708254	-3.814839	-47.727980	-79.650640	-32.456043			
39275	9.652641	-13.944399	-16.303557	-9.932061	-18.929355	-0.000825	-60.198030	-78.831323	-23.675677			
39276	9.619885	-18.993893	-6.755479	-16.214177	-9.464586	2.289306	-61.041928	-77.800636	-23.938001			
39277	3.801216	-9.109632	-0.934481	-8.090723	-2.197419	-4.519533	-62.990173	-78.297616	-20.603345			
39278	7.322119	-3.978053	-4.283018	-2.070050	-5.150169	-2.264852	-69.606315	-79.936704	-12.699166			
39279	13.649043	-2.115496	-6.632208	1.038502	-7.262084	3.638467	-73.394793	-81.506581	-7.487201			
39280	11.439086	1.235147	-2.290494	3.205842	-2.223489	1.250840	-74.481167	-82.134246	-5.047740			
39281	9.070385	1.185335	0.097452	2.357801	0.252289	-0.977381	-78.019424	-82.354533	-0.990484			
39282	9.147435	-0.896624	-2.068505	0.725510	-2.157314	-0.670679	-84.221038	-82.447399	5.171287			
39283	9.870878	-2.772144	-3.500749	-0.740916	-3.798855	0.306266	-88.486034	-82.502461	9.826459			
39284	8.681524	-1.856713	-1.327830	-0.449573	-1.441315	-0.963991	-92.509981	-82.838974	14.766861			
39285	9.333173	-0.097861	-0.882467	1.162254	-0.526096	-0.524706	-99.184513	-83.364085	22.547859			
39286	10.056508	1.678263	-1.181543	2.906029	-0.250809	0.027788	-106.254522	-83.839786	30.619243			
39287	9.382998	2.536742	-0.717613	3.446802	0.496620	-0.709838	-112.664481	-84.011027	37.619540			
39288	8.945580	2.535639	-0.221537	3.219320	1.062832	-1.152028	-119.618038	-83.660786	44.545213			
39289	8.981816	1.282528	-1.593375	2.350873	-0.441542	-0.916992	-126.067453	-82.869718	50.378701			
39290	9.267597	-0.458894	-3.712528	1.212385	-2.729984	-0.275559	-130.272174	-81.987981	53.904221			
39291	8.958717	-1.023640	-2.335849	0.300714	-1.417260	-0.611488	-133.438115	-81.279208	56.579088			
39292	8.511447	-0.797311	-1.680801	0.307893	-0.662704	-1.131089	-137.482061	-80.706332	60.319281			
39293	9.164015	-0.207108	-1.720905	0.890032	-0.352971	-0.535570	-141.966284	-80.128178	64.654664			
39294	9.921722	-0.285514	-2.234463	0.918836	-0.612115	0.301365	-145.673454	-79.566760	68.142024			
39295	9.738426	-1.237804	-2.299539	-0.065001	-0.779451	0.239375	-148.215662	-79.064109	70.313658			
39296	9.337582	-2.346823	-2.105606	-1.255871	-0.777528	-0.068521	-150.040969	-78.577097	71.702732			
39297	9.306001	-3.383639	-1.917556	-2.341114	-0.694194	-0.026783	-151.538259	-78.094361	72.816942			
39298	9.171523	-4.018705	-1.991164	-2.986520	-0.806449	-0.083300	-153.120005	-77.638498	74.213741			
39299	9.173711	-3.625300	-1.956269	-2.650806	-0.605500	-0.131136	-155.176162	-77.145629	76.393014			
39300	9.559588	-2.395859	-1.966031	-1.481507	-0.207822	0.124711	-157.355574	-76.582035	78.940687			
39301	9.947175	-1.191360	-1.878097	-0.369367	0.300714	0.368896	-159.332722	-76.014719	81.371238			
39302	9.863811	-0.037062	-1.528805	0.615447	0.948730	0.104635	-160.915674	-75.487303	83.389558			
39303	9.790071	0.864960	-1.079102	1.334540	1.644884	-0.155030	-162.196682	-74.965178	84.997105			
39304	9.460727	1.513071	-0.729741	1.829171	2.121367	-0.621369	-163.272687	-74.460382	86.208792			
39305	9.033755	1.674240	-0.690352	1.929706	2.164343	-1.067426	-164.259594	-73.930002	87.099537			
39306	8.872207	1.600036	-0.896123	1.869998	1.992079	-1.174788	-165.245350	-73.345444	87.780612			
39307	8.992924	1.195452	-1.300327	1.534277	1.650263	-0.929303	-166.306069	-72.708066	88.364934			
39308	9.272324	0.679891	-1.670414	1.075040	1.379397	-0.529956	-167.406919	-72.040177	88.885566			
39309	9.416311	0.337935	-1.932573	0.751503	1.220596	-0.301634	-168.554354	-71.324598	89.339119			
39310	9.514015	-0.103726	-2.345793	0.349547	0.908124	-0.061709	-169.651893	-70.555613	89.625561			
39311	9.414277	-0.579784	-3.008571	-0.055247	0.313838	0.082409	-170.646770	-69.769333	89.764917			
39312	9.349868	-1.051219	-3.037488	-0.565162	0.328208	0.052540	-171.469437	-69.056126	89.788601			
39313	9.100956	-1.383443	-2.529468	-1.008117	0.781968	-0.351677	-172.212279	-68.488022	89.835303			
39314	8.261814	-1.545234	-1.670717	-1.308736	1.343189	-1.450932	-172.727765	-67.958610	89.803553			
39315	8.204813	-1.847189	-1.715324	-1.620137	1.340464	-1.490978	-173.264710	-67.370085	89.831460			
39316	9.244423	-2.118124	-2.142123	-1.865768	1.418129	-0.376513	-173.944873	-66.851686	90.114417			
39317	9.430047	-1.493003	-1.688166	-1.328377	2.048212	-0.429484	-174.576927	-66.485684	90.527090			
39318	8.854316	-0.822084	-1.327652	-0.730805	2.270503	-1.143907	-175.237616	-66.134179	90.972601			
39319	8.990299	-0.631680	-1.872695	-0.527729	1.906321	-0.822780	-176.051474	-65.742698	91.418786			
39320	9.312565	-0.890611	-2.716071	-0.757145	1.312968	-0.189984	-176.855591	-65.398909	91.715029			
39321	9.140217	-1.398763	-3.202006	-1.268533	0.820197	-0.144669	-177.590795	-65.116665	91.884935			
39322	9.211370	-1.511526	-3.189480	-1.429132	0.909880	-0.094865	-178.313310	-64.839153	92.101890			
39323	9.534509	-1.231410	-2.850504	-1.219396	1.422699	0.038062	-178.950476	-64.594981	92.358024			
39324	9.599297	-0.747506	-2.175828	-0.811174	2.127768	-0.207799	-179.549451	-64.399367	92.570806			
39325	9.478372	-0.537763	-1.928147	-0.642500	2.342818	-0.434803	179.785854	-64.228590	92.713163			
39326	9.350504	-0.627350	-2.382423	-0.745570	1.906868	-0.362334	178.996487	-64.053840	92.823682			
39327	9.400049	-0.925214	-3.002966	-1.071336	1.396520	-0.058899	178.143055	-63.887744	92.926345			
39328	9.963300	-1.351514	-3.391126	-1.559772	1.326649	0.598859	177.208839	-63.725586	93.097999			
39329	11.027903	-1.352246	-3.263410	-1.647136	1.954722	1.481496	176.291890	-63.576683	93.321042			
39330	11.956612	-1.311023	-2.920616	-1.686575	2.708876	2.146678	175.330437	-63.507558	93.568116			
39331	12.660403	-1.234091	-2.082396	-1.662398	3.787931	2.395219	174.396790	-63.540206	93.803062			
39332	13.261866	-1.505275	-0.850950	-1.941631	5.157467	2.373271	173.568551	-63.683201	94.005997			
39333	14.483141	-2.221835	0.644484	-2.638345	7.033753	2.784083	172.967414	-63.905826	94.162419			
39334	16.483322	-1.986270	2.900385	-2.333529	9.873103	3.645884	172.444633	-64.268650	94.268161			
39335	18.426876	-2.902205	4.464180	-3.176427	12.037178	4.778859	171.770659	-65.058819	94.368749			
39336	17.923043	-3.446381	6.039638	-3.539338	13.035997	3.866118	171.283488	-66.438518	94.525011			
39337	14.671555	-3.052396	6.820637	-2.991556	12.099522	0.944764	170.970362	-68.206884	95.131073			
39338	11.425822	0.173080	6.863712	0.212915	10.497007	-1.599992	171.013400	-69.416342	96.181866			
39339	14.045341	3.105162	6.138341	2.818591	10.457295	1.469414	170.202221	-70.376865	97.757987			
39340	15.073988	1.731695	3.808909	1.164859	8.387836	3.340400	168.824030	-71.873333	99.338947			
39341	13.155678	0.299889	2.123919	-0.299500	5.889542	2.140780	167.049736	-73.371985	100.893691			
39342	13.432106	-1.004715	-1.923826	-1.833628	1.800000	3.548506	165.189274	-74.687666	102.285061			
39343	12.955849	-0.574092	-3.918797	-1.521385	-0.566239	3.637153	163.451498	-75.878979	103.783179			
39344	13.810126	1.633019	-3.905444	0.576820	-0.712626	4.602318	161.363897	-76.794448	105.469953			
39345	14.317045	2.963409	-4.457719	1.766959	-1.441612	5.301080	159.492788	-77.461366	106.605300			
39346	14.867068	3.437753	-7.273882	1.926049	-4.319831	6.416373	158.615550	-78.076278	106.622294			
39347	15.155799	2.426669	-9.259574	0.700393	-6.413226	6.911377	158.221983	-79.314926	106.371065			
39348	12.812545	0.544632	-6.455262	-0.714304	-4.260421	3.878778	158.424040	-80.764013	106.146574			
39349	12.362334	-0.242873	-5.524008	-1.286146	-3.653369	3.163887	158.046680	-82.043860	106.935441			
39350	12.756442	-0.163747	-5.077838	-1.078479	-3.480099	3.425624	156.944366	-83.465201	108.734087			
39351	12.190759	0.033959	-4.197074	-0.675552	-3.033656	2.699660	154.832719	-85.132513	111.574914			
39352	12.090390	-0.407628	-5.223049	-1.035558	-4.406745	2.561353	151.346808	-86.858403	115.865904			
39353	12.031818	-0.232915	-4.268267	-0.640128	-3.884445	2.332948	127.498221	-88.915605	140.621297			
39354	9.680016	0.448189	-2.550840	0.261587	-2.624649	-0.146176	15.562028	-88.517594	-107.209512			
39355	8.914667	0.041157	-3.087005	-0.101463	-3.421438	-1.021729	0.193222	-87.081158	-92.259011			
39356	9.834276	-0.912971	-5.301866	-1.109892	-5.874486	-0.330667	-5.625884	-85.639825	-86.814739			
39357	8.687060	-0.101484	-3.994405	-0.219097	-4.738403	-1.510560	-8.423326	-84.177901	-84.270202			
39358	8.443651	0.135069	-3.602958	0.070373	-4.528930	-1.826766	-10.730425	-82.852627	-82.179089			
39359	7.927546	-0.071595	-3.750761	-0.110286	-4.770750	-2.454427	-12.611891	-81.560591	-80.496897			
39360	7.475881	-0.133341	-4.049031	-0.156315	-5.144291	-3.044343	-14.146553	-80.342481	-79.083371			
39361	6.748915	-0.688630	-3.872088	-0.675329	-4.947407	-3.806008	-15.346753	-79.168266	-77.850201			
39362	6.093636	-0.212314	-3.857913	-0.173397	-4.944342	-4.560763	-16.101951	-78.056822	-76.909241			
39363	5.584592	-0.552392	-4.072388	-0.497319	-5.122792	-5.166658	-16.625268	-77.078609	-76.146970			
39364	5.700144	-0.211951	-4.035975	-0.094890	-5.198285	-5.144349	-16.749272	-76.238972	-75.575130			
39365	5.676848	0.349251	-3.968000	0.528031	-5.206045	-5.261766	-16.583519	-75.461815	-75.178969			
39366	5.695354	1.290851	-3.503924	1.545592	-4.827927	-5.264893	-16.312994	-74.783795	-74.878394			
39367	5.618753	1.875386	-3.182714	2.182720	-4.537956	-5.356302	-16.072457	-74.181949	-74.649709			
39368	5.317049	2.298066	-2.766805	2.630562	-4.082206	-5.614734	-15.914548	-73.682783	-74.420085			
39369	5.141942	2.924217	-2.547822	3.273716	-3.837599	-5.808006	-15.938283	-73.272503	-74.173629			
39370	4.925274	3.312331	-1.965807	3.666043	-3.237776	-5.917687	-16.442396	-72.921257	-73.862908			
39371	4.756358	2.479474	-2.127829	2.817794	-3.388728	-6.087812	-17.574806	-72.603916	-73.402238			
39372	4.268711	1.013746	-1.913924	1.313274	-3.071019	-6.383872	-19.041190	-72.388316	-72.710976			
39373	4.204506	0.033999	-2.027033	0.320029	-3.155555	-6.388080	-20.676948	-72.289975	-71.813470			
39374	4.192030	-1.084769	-2.398686	-0.820149	-3.467119	-6.376132	-22.459322	-72.302864	-70.706948			
39375	4.496308	-1.900090	-2.518669	-1.605042	-3.614730	-6.001094	-24.063413	-72.430312	-69.463456			
39376	5.148337	-2.056645	-1.911828	-1.626810	-3.185805	-5.165728	-25.197332	-72.650787	-68.254741			
39377	6.083901	-1.345967	-0.611315	-0.695263	-2.196305	-3.991017	-25.975681	-73.009693	-67.059116			
39378	8.676871	-0.849100	1.202475	0.234087	-1.107244	-1.084935	-26.668021	-73.482102	-65.821665			
39379	11.355485	-0.246329	4.300160	1.305632	1.257054	2.196201	-26.679363	-73.839390	-64.961968			
39380	14.782377	2.025957	8.971707	4.126297	4.968118	6.355353	-26.945805	-74.022969	-64.365434			
39381	16.011665	-0.382131	10.753959	2.008433	6.414118	8.270181	-27.747761	-73.730832	-63.994955			
39382	14.588718	-3.099763	11.826160	-0.666909	7.757659	7.555913	-28.326224	-73.230640	-63.652268			
39383	12.079087	-2.528777	12.730958	-0.254891	9.158694	5.367145	-28.750903	-72.688878	-63.305635			
39384	9.452259	-3.080038	11.303966	-1.127226	8.408641	2.622521	-29.408393	-72.313838	-62.840047			
39385	8.009602	-3.358430	9.647235	-1.627534	7.177423	0.880183	-29.870594	-72.152095	-62.451065			
39386	8.050931	-2.913972	9.049864	-1.183439	6.576761	0.701797	-30.144142	-72.106603	-62.263353			
39387	8.939113	-3.260825	8.268373	-1.417207	5.599673	1.391855	-30.383174	-72.132243	-62.278007			
39388	10.026800	-4.002964	6.863480	-2.077480	3.980052	2.166923	-30.167902	-72.167918	-62.500656			
39389	10.001166	-2.897847	5.300809	-1.131620	2.456244	1.554167	-29.492331	-72.313298	-62.802738			
39390	9.712566	-1.445852	2.845947	0.054702	0.166634	0.409472	-28.843260	-72.705478	-62.772625			
39391	9.769743	0.223156	0.903507	1.569221	-1.658226	-0.268024	-28.285666	-73.350825	-62.325557			
39392	13.611912	2.167580	1.604090	3.948209	-1.806644	3.366838	-26.668653	-73.923322	-62.537358			
39393	4.627554	3.873593	-2.472430	4.451800	-3.350228	-6.423418	-24.659739	-74.482063	-62.892999			
39394	2.198040	5.518496	-6.844562	6.012195	-6.780591	-9.852346	-23.406741	-76.000848	-62.764866			
39395	9.390608	8.439860	-4.837542	9.633956	-5.944402	-2.419997	-20.690252	-77.587810	-64.703852			
39396	18.613558	6.063538	3.602392	7.434305	0.392450	8.647650	-19.056634	-77.448782	-66.271553			
39397	16.463215	1.342659	7.347536	2.407060	3.854782	7.684610	-21.154032	-76.143152	-64.691249			
39398	13.678597	-4.706268	8.346557	-3.559096	4.705495	5.810681	-25.054848	-74.921101	-61.572679			
39399	7.543065	-5.802250	3.721638	-4.963691	1.495094	-1.006968	-26.871940	-75.185614	-59.535314			
39400	10.019651	1.326298	-1.727568	2.652427	-3.685051	-0.619380	-26.342377	-76.531719	-59.394490			
39401	10.254160	4.870003	-4.649032	6.311488	-6.055703	-1.212506	-26.325491	-77.903960	-58.751132			
39402	7.649749	6.129317	-4.567161	7.238740	-5.201937	-3.690301	-28.823487	-79.069104	-56.350691			
39403	4.946352	5.692549	-6.734662	6.567898	-6.954023	-6.537774	-33.872657	-79.900126	-53.229167			
39404	5.491332	0.946176	-5.235003	1.696398	-5.868324	-5.215004	-43.648452	-80.076477	-45.382578			
39405	9.128070	-3.148555	-2.257921	-1.907789	-3.279041	-0.651439	-57.250115	-79.558010	-34.130752			
39406	13.361953	-13.787907	-9.780458	-12.034149	-10.483096	4.662307	-63.702745	-78.817541	-30.661231			
39407	8.440910	-16.125099	-5.080254	-14.841871	-4.838625	0.835435	-62.611364	-78.567560	-31.586013			
39408	5.785214	-5.954696	-0.839362	-4.969922	-1.085054	-3.198061	-64.470604	-79.713022	-27.845475			
39409	9.675100	-2.391339	-5.161867	-1.084621	-5.751840	-0.236424	-70.068963	-81.632850	-20.305443			
39410	13.406471	1.861877	-5.610695	3.574915	-6.164506	2.989326	-70.461268	-83.092516	-17.911809			
39411	10.024360	4.193962	-1.540796	5.310104	-1.700087	-0.359626	-69.585605	-83.885986	-17.284516			
39412	9.256756	3.999428	0.573860	4.865921	0.564114	-0.980046	-73.892258	-84.223367	-12.536098			
39413	8.984164	1.782688	-0.485171	2.699148	-0.491557	-1.060570	-84.753174	-84.132296	-2.026545			
39414	10.308328	-1.341370	-5.082962	0.010566	-5.098546	0.574748	-93.941480	-83.745823	6.555609			
39415	9.792576	-3.580784	-4.133387	-2.294447	-4.135219	0.357683	-96.819909	-83.535693	9.335510			
39416	7.668638	-2.832745	-1.788249	-1.887230	-1.744648	-1.848727	-101.419851	-83.664437	14.523861			
39417	8.054895	-1.341899	-1.779768	-0.404987	-1.556006	-1.611313	-112.123849	-83.914994	26.167411			
39418	9.722843	0.043318	-3.297033	1.162122	-2.723892	0.017428	-125.132212	-84.023479	40.225452			
39419	10.290474	1.947285	-2.763174	2.956734	-1.791024	0.452146	-135.116458	-83.932691	51.109120			
39420	9.508994	2.869932	-0.940507	3.551322	0.218030	-0.491725	-141.604493	-83.499325	58.048615			
39421	9.154000	2.461856	-0.114287	2.996015	1.107679	-0.887181	-146.369162	-82.696155	62.650376			
39422	9.493951	1.210865	-1.298479	1.898475	0.003323	-0.342702	-150.269527	-81.682027	66.028803			
39423	10.072350	0.143296	-2.228936	0.955314	-0.766999	0.431213	-153.339278	-80.784048	68.616357			
39424	9.706843	0.086319	-1.445291	0.769702	0.096785	-0.029246	-156.446761	-80.129948	71.345133			
39425	9.313805	0.558480	-0.899637	1.120183	0.732921	-0.535037	-159.646116	-79.489519	74.185583			
39426	9.349413	0.617259	-0.866956	1.128244	0.896734	-0.513997	-162.454095	-78.783994	76.456122			
39427	9.487591	-0.060915	-1.181782	0.439001	0.695680	-0.287113	-164.730155	-78.076885	77.985297			
39428	9.407499	-0.942238	-1.008013	-0.486480	0.929603	-0.362675	-166.506617	-77.422154	78.903874			
39429	9.194629	-1.789360	-0.763610	-1.373205	1.222272	-0.596131	-168.025795	-76.763653	79.528855			
39430	9.145674	-2.647714	-0.776220	-2.243902	1.327041	-0.622585	-169.324056	-76.016790	79.996967			
39431	9.036315	-3.335705	-1.970050	-2.935016	0.305792	-0.434392	-170.728935	-75.143258	80.802055			
39432	9.257935	-2.822808	-2.712128	-2.445571	-0.191488	-0.065196	-172.211085	-74.305045	82.137878			
39433	9.225587	-1.269265	-2.072872	-0.943006	0.553111	-0.335225	-173.568936	-73.479422	83.706280			
39434	9.460657	0.054813	-1.785032	0.334078	1.037398	-0.246947	-174.900733	-72.617753	85.280149			
39435	9.690600	0.856542	-1.545361	1.084815	1.487614	-0.136035	-176.016974	-71.768741	86.496517			
39436	9.343296	1.000642	-1.515300	1.177420	1.546948	-0.495299	-176.950665	-70.982331	87.252404			
39437	8.910123	0.243303	-1.940286	0.381593	1.127629	-0.768590	-177.811661	-70.202499	87.671812			
39438	8.731538	-0.898821	-2.604788	-0.795312	0.575029	-0.709513	-178.585918	-69.409940	87.951085			
39439	8.746942	-1.665889	-2.749587	-1.597654	0.589257	-0.650643	-179.324627	-68.625811	88.341513			
39440	8.817273	-1.772425	-2.212494	-1.731850	1.246877	-0.800173	179.936858	-67.849792	88.947865			
39441	9.094402	-1.228922	-1.303718	-1.209652	2.308068	-0.917403	179.291964	-67.032319	89.635298			
39442	9.615659	-0.605567	-0.736447	-0.617328	3.147921	-0.697985	178.703687	-66.232554	90.318362			
39443	9.942432	0.095503	-0.867987	0.032484	3.268283	-0.382399	178.125440	-65.542702	91.035460			
39444	10.032883	0.783188	-1.309585	0.660100	2.999113	-0.140269	177.586390	-64.996418	91.776236			
39445	10.086278	1.186904	-1.395644	1.012264	3.023895	-0.069981	177.141832	-64.588489	92.380301			
39446	9.977390	0.915947	-0.822719	0.716905	3.557554	-0.437523	176.809427	-64.257264	92.617238			
39447	10.252568	-0.017524	0.002419	-0.221159	4.477186	-0.592001	176.389492	-63.931796	92.594531			
39448	10.862185	-1.235628	0.505471	-1.431439	5.265045	-0.325893	175.913333	-63.667567	92.441605			
39449	10.964444	-2.283646	0.663243	-2.455380	5.526731	-0.362817	175.455051	-63.523320	92.248047			
39450	10.562853	-2.715745	0.131152	-2.890755	4.932364	-0.523908	174.775973	-63.414622	92.259622			
39451	10.252359	-2.235865	-1.225509	-2.492861	3.610776	-0.202306	174.006570	-63.232100	92.370910			
39452	10.315231	-1.941557	-2.712920	-2.335483	2.345135	0.511027	173.149611	-63.117343	92.545900			
39453	10.781904	-1.533148	-2.834084	-1.990696	2.452285	0.988020	172.408208	-63.110490	92.661926			
39454	11.471813	-1.481118	-2.286768	-1.937538	3.252662	1.353851	171.737916	-63.217059	92.737787			
39455	12.186644	-1.643541	-1.664776	-2.077768	4.118495	1.707195	171.019226	-63.488210	92.854725			
39456	12.714884	-2.025118	-0.848331	-2.406638	5.054221	1.812769	170.144964	-63.973191	93.203391			
39457	12.638436	-2.209872	-1.122172	-2.668973	4.694478	1.879611	169.133622	-64.572700	93.850930			
39458	13.692047	-1.336200	2.780730	-1.391874	8.423772	1.326862	168.562049	-65.328276	94.533130			
39459	14.786861	-0.232136	5.906261	0.006821	11.433009	1.272016	167.541285	-66.127392	95.401184			
39460	16.239085	-1.390207	8.079161	-0.968999	13.931437	1.844105	166.651894	-67.108342	96.252868			
39461	15.376958	-1.351148	7.489509	-1.056011	12.839367	1.518456	165.870678	-68.171418	97.311051			
39462	15.630934	-0.680264	5.262602	-0.816230	10.597247	2.816992	165.679078	-69.017116	98.346105			
39463	16.747524	1.736044	6.640738	1.512258	11.846021	3.787535	165.099711	-70.086385	99.752461			
39464	15.780598	0.580349	3.936959	0.006207	8.783995	3.887351	163.689500	-71.424824	101.431610			
39465	15.105115	-1.607094	1.154482	-2.482542	5.733538	4.080816	162.021678	-72.849214	103.388419			
39466	14.653890	-1.350340	-0.222392	-2.390175	3.873454	4.182925	159.944311	-74.424009	105.586506			
39467	13.749856	-1.346663	-2.786568	-2.578944	0.791285	4.020267	158.132805	-75.781321	107.096157			
39468	14.556295	-0.550948	-6.449069	-2.188775	-2.948657	5.688481	156.782011	-76.910355	108.193733			
39469	14.600468	1.018828	-8.207327	-0.817081	-5.075048	6.160423	154.899075	-77.890055	109.876932			
39470	14.230445	3.149808	-8.352395	1.250376	-5.732013	5.927830	152.367777	-78.615825	112.092655			
39471	14.338626	4.050771	-7.327025	2.161771	-5.030803	5.862209	150.012575	-79.326359	113.997031			
39472	14.091161	2.321430	-6.092549	0.568888	-3.935920	5.195602	148.589321	-80.203753	114.961081			
39473	13.273797	0.448727	-6.034062	-1.201631	-4.053074	4.148974	147.460332	-81.309427	115.475475			
39474	12.231863	-1.683761	-6.197908	-3.229213	-4.348492	2.896570	146.142285	-82.570204	116.188948			
39475	11.264406	-2.459064	-5.586563	-3.802185	-3.989870	1.752908	144.800984	-83.818753	117.313764			
39476	10.663498	-2.260275	-5.452139	-3.491620	-4.184334	1.088610	140.033509	-85.002267	122.412328			
39477	10.651630	-0.672574	-4.713132	-1.766587	-3.921243	1.032577	129.659460	-85.930165	133.660524			
39478	11.182283	1.597311	-5.131907	0.481381	-4.820872	1.608884	114.015049	-86.691711	150.466872			
39479	10.648287	2.406615	-5.220509	1.417942	-5.244522	0.999713	88.374874	-87.263385	177.174257			
39480	9.692329	1.618926	-5.048607	0.813543	-5.258956	-0.131550	57.241711	-87.061797	-150.811178			
39481	10.003709	2.294698	-4.939565	1.569516	-5.471317	0.052921	34.090124	-85.895956	-127.112096			
39482	7.758944	3.333466	-1.832234	2.906783	-2.574183	-2.093326	21.145737	-84.435006	-114.348681			
39483	7.001288	1.022346	-2.445173	0.619714	-3.184916	-3.066433	12.468396	-83.462897	-106.404412			
39484	7.917968	-0.486489	-4.330854	-1.014968	-5.197008	-2.488376	6.004400	-82.429693	-100.428105			
39485	7.067960	0.049740	-3.026057	-0.326682	-3.976381	-3.240384	1.279587	-81.361168	-95.988913			
39486	7.039125	0.215356	-3.257711	-0.133023	-4.334639	-3.378415	-2.237098	-80.412874	-92.543387			
39487	7.002697	0.334857	-3.500147	0.022027	-4.682185	-3.529695	-4.994406	-79.508171	-89.726070			
39488	6.738200	0.174571	-3.514210	-0.078071	-4.732383	-3.864546	-7.173929	-78.585204	-87.371995			
39489	6.392559	0.194489	-3.701200	-0.012381	-4.935342	-4.313371	-8.797411	-77.739638	-85.459600			
39490	6.040050	0.543266	-4.031347	0.369475	-5.280798	-4.812234	-9.819474	-76.904154	-84.034697			
39491	5.643746	0.975900	-3.937801	0.858674	-5.189556	-5.269478	-10.424471	-76.103511	-83.035877			
39492	5.404536	1.522757	-3.977952	1.449599	-5.249415	-5.606332	-10.657810	-75.382597	-82.334141			
39493	5.058087	2.211318	-3.485887	2.201166	-4.753220	-5.915658	-10.699085	-74.706874	-81.869936			
39494	4.907047	2.547047	-2.903870	2.594529	-4.192465	-5.979885	-10.819722	-74.133684	-81.480675			
39495	4.996413	2.671823	-2.601544	2.758627	-3.957076	-5.862738	-11.182147	-73.641537	-81.066837			
39496	4.650151	2.703664	-1.926479	2.819849	-3.241945	-6.046640	-11.836200	-73.258065	-80.525198			
39497	4.636300	2.476069	-1.877372	2.602777	-3.211563	-6.062755	-12.923480	-72.980129	-79.808844			
39498	4.212998	1.324038	-2.052731	1.423751	-3.236340	-6.463788	-14.403712	-72.838545	-78.910871			
39499	4.235304	0.062246	-1.892504	0.179384	-3.035931	-6.309235	-15.958230	-72.849708	-77.860285			
39500	4.551205	-0.447366	-1.810249	-0.295532	-3.008725	-5.933154	-17.573952	-72.996182	-76.707541			
39501	5.115491	-1.347528	-2.037644	-1.160059	-3.302522	-5.353600	-19.167321	-73.324484	-75.425895			
39502	6.411015	-1.535740	-1.588502	-1.191190	-3.176005	-3.941005	-20.416421	-73.736838	-74.140212			
39503	7.855800	-0.348263	1.109437	0.364941	-0.991912	-1.941968	-21.287134	-74.184094	-72.989166			
39504	9.856905	-0.420990	2.813420	0.614235	0.211323	0.425893	-22.126751	-74.607516	-71.912776			
39505	12.604376	0.353615	5.748078	1.856882	2.403140	3.708102	-22.899066	-74.941803	-70.800321			
39506	15.515089	0.888123	9.022040	2.924879	4.875823	7.233568	-23.794013	-74.829589	-69.987374			
39507	15.240869	-1.337238	10.837545	0.943994	6.749968	7.653514	-24.738013	-74.305085	-69.243456			
39508	14.086893	-3.083151	12.630692	-0.620684	8.718775	7.248205	-25.428905	-73.603985	-68.503961			
39509	11.303948	-2.873035	13.011637	-0.586360	9.649532	4.743289	-25.845183	-72.982116	-67.878767			
39510	9.251044	-2.493171	12.867475	-0.377708	9.959420	2.758548	-26.625936	-72.676240	-67.240617			
39511	8.745081	-2.991342	11.512177	-0.931369	8.807457	1.998942	-27.558572	-72.595459	-66.809694			
39512	9.309796	-3.166697	11.002264	-0.978618	8.174960	2.433202	-27.827544	-72.475883	-66.954244			
39513	9.792293	-2.453784	9.653589	-0.310986	6.669856	2.455882	-27.286017	-72.257050	-67.575691			
39514	9.609669	-1.176941	6.990430	0.624799	4.034817	1.408999	-26.229719	-72.076144	-68.234360			
39515	9.275937	0.512900	3.353606	1.856554	0.530734	-0.126405	-25.368602	-72.121884	-68.536493			
39516	9.272441	1.602680	0.227264	2.640655	-2.484796	-1.126442	-24.756089	-72.359330	-68.533694			
39517	10.063550	2.497182	-1.004755	3.518457	-3.857114	-0.798092	-24.204513	-72.711461	-68.381888			
39518	11.230461	4.038991	0.900608	5.271994	-2.318558	0.679101	-22.917711	-72.803192	-68.816496			
39519	3.945389	3.035129	-4.952515	3.269027	-5.851137	-7.719501	-21.945448	-73.148477	-68.502349			
39520	5.622635	4.715827	-6.913529	5.175329	-8.082476	-6.724689	-21.609228	-74.061282	-68.025676			
39521	11.840290	2.827147	-2.098776	4.002345	-4.942194	0.777168	-22.042122	-74.592867	-67.682156			
39522	15.200873	-2.453701	3.750050	-0.785116	-0.187180	6.014350	-23.863370	-74.035546	-66.003792			
39523	12.798236	-7.418145	8.161017	-5.722394	4.512183	5.429151	-25.863488	-73.284270	-64.315251			
39524	12.053454	-5.496678	4.747454	-3.912137	1.380356	3.634477	-24.799344	-73.584346	-64.667614			
39525	12.943709	4.879157	2.026257	6.295349	-1.106219	2.620507	-20.772593	-74.343602	-66.815434			
39526	11.886430	10.952020	1.907767	11.971051	-0.319286	1.207369	-16.548250	-75.176846	-69.398076			
39527	9.727631	13.136875	0.509561	13.870329	-0.687646	-1.175577	-15.939417	-76.185984	-69.685872			
39528	7.507613	7.503737	-2.745236	8.241426	-3.758237	-3.635275	-20.267211	-77.308058	-67.077893			
39529	5.745490	1.582835	-6.075011	2.191931	-7.000987	-5.500184	-29.351334	-78.281494	-60.668161			
39530	5.615206	-2.158691	-7.746805	-1.765608	-8.521878	-5.291091	-42.933108	-78.896106	-49.719964			
39531	9.924605	-7.422994	-8.747384	-6.689212	-9.565512	-0.126102	-53.806167	-78.630652	-41.796262			
39532	11.284499	-12.105028	-6.250052	-10.888278	-6.463560	2.540182	-57.002046	-77.964138	-40.042441			
39533	5.956817	-9.033215	-1.957551	-8.135222	-1.731551	-2.620019	-58.676127	-78.187840	-37.959984			
39534	7.549461	-4.891564	-3.246258	-3.995742	-3.571322	-1.891976	-62.727694	-79.632007	-33.093173			
39535	11.786273	-3.044154	-5.425203	-1.838314	-6.138399	1.872824	-66.042159	-81.198776	-28.551886			
39536	12.010096	0.610269	-3.069506	1.912922	-3.893472	1.815507	-67.209846	-82.232674	-26.224697			
39537	10.340982	1.732957	-1.037362	2.882767	-1.686678	0.180231	-69.958634	-82.777479	-22.961627			
39538	9.434217	0.486726	-1.749108	1.481406	-2.174098	-0.572649	-75.472481	-83.008518	-17.577152			
39539	9.475191	-1.484389	-3.904702	-0.586804	-4.114172	-0.328099	-80.859824	-83.107858	-12.377470			
39540	8.684802	-1.934486	-3.033738	-1.077216	-3.107026	-1.006040	-85.011546	-83.292305	-8.084639			
39541	8.385936	-1.345952	-2.001265	-0.492864	-2.013308	-1.336648	-91.013320	-83.706586	-1.679718			
39542	9.282888	-0.161394	-2.578337	0.709742	-2.525862	-0.541223	-99.218329	-84.139780	7.009130			
39543	9.580916	0.958894	-2.377733	1.810175	-2.220724	-0.317604	-107.827302	-84.362600	15.984372			
39544	9.213528	1.049305	-1.754293	1.847202	-1.470821	-0.675370	-116.397033	-84.226418	24.525060			
39545	9.380399	-0.308395	-2.487794	0.468723	-2.008874	-0.324853	-123.979563	-83.811519	31.731339			
39546	9.516649	-1.254131	-2.463720	-0.465813	-1.794077	-0.077601	-129.689563	-83.291610	37.010432			
39547	9.206629	-1.699926	-1.924965	-0.919206	-1.111648	-0.364156	-135.115544	-82.748355	42.028004			
39548	8.750738	-1.538226	-1.877578	-0.814114	-0.962510	-0.819601	-141.046281	-82.161470	47.743183			
39549	8.757117	-0.367842	-1.502288	0.339704	-0.501578	-0.940827	-147.111801	-81.486378	53.831115			
39550	9.264081	0.763804	-1.232550	1.480485	-0.070792	-0.553856	-152.746584	-80.728681	59.468940			
39551	9.668247	1.267330	-1.459747	1.950560	-0.092380	-0.148527	-157.456776	-79.934564	63.916756			
39552	9.727702	0.829483	-1.534036	1.470364	0.033698	-0.040048	-160.711348	-79.156250	66.527969			
39553	9.473630	-0.642113	-1.920275	-0.069338	-0.124905	-0.126248	-163.122822	-78.398694	68.002512			
39554	9.632940	-2.091743	-2.200395	-1.544306	-0.079029	0.168167	-164.994746	-77.735664	68.935523			
39555	9.490483	-2.838777	-1.438067	-2.240921	0.868441	-0.095779	-166.773939	-77.154588	69.953916			
39556	9.527139	-3.111006	-0.777260	-2.452066	1.691529	-0.211997	-168.614922	-76.550085	71.282679			
39557	9.633371	-2.978485	-0.202611	-2.266448	2.394319	-0.281539	-170.527994	-75.862665	72.845455			
39558	10.210866	-2.753602	-0.378472	-2.048768	2.476211	0.269779	-172.172720	-75.122344	74.255372			
39559	10.425327	-2.390336	-0.269344	-1.684463	2.728237	0.394723	-173.575413	-74.442515	75.427275			
39560	10.043204	-2.117071	-0.165288	-1.445468	2.819261	-0.048659	-174.729199	-73.809843	76.332990			
39561	9.690479	-1.738143	-0.183569	-1.112501	2.771702	-0.429784	-175.765228	-73.137780	77.198486			
39562	9.674843	-1.007598	-0.402012	-0.442033	2.572945	-0.433855	-176.801280	-72.407809	78.209413			
39563	9.478462	-0.206340	-1.207879	0.193292	1.763788	-0.421584	-177.960540	-71.651301	79.474518			
39564	9.495108	0.651335	-1.402955	0.975336	1.586549	-0.374482	-178.993619	-70.966980	80.716794			
39565	9.507095	1.117933	-1.037323	1.450049	1.979718	-0.502063	-179.757865	-70.384467	81.611469			
39566	9.246059	0.721047	-0.762358	1.060020	2.300389	-0.858659	179.782704	-69.847747	81.992925			
39567	8.985374	-0.366930	-1.005807	-0.066878	2.230101	-1.043157	179.397785	-69.256215	82.128498			
39568	9.172521	-1.260235	-1.311032	-0.983357	2.242007	-0.787854	178.999440	-68.642679	82.276240			
39569	9.076811	-1.664543	-0.948364	-1.341318	2.700437	-1.039644	178.515292	-68.068718	82.604878			
39570	8.906308	-1.606545	-0.498151	-1.238571	3.131364	-1.397749	178.043979	-67.493631	83.012685			
39571	9.044282	-1.588405	-0.677207	-1.254987	3.107421	-1.236628	177.628896	-66.892510	83.428987			
39572	9.474491	-1.564918	-1.099139	-1.290744	2.970300	-0.705886	177.357903	-66.417191	83.864594			
39573	9.218534	-1.128793	-0.904896	-0.865765	3.042775	-1.033962	177.023808	-66.055063	84.415299			
39574	8.883136	-0.933435	-1.110108	-0.741909	2.745238	-1.272975	176.692849	-65.710972	84.960817			
39575	9.082951	-0.572104	-1.904364	-0.518677	2.111141	-0.772355	176.151523	-65.393953	85.635123			
39576	9.321260	0.059629	-2.239883	0.029690	1.870286	-0.410170	175.582417	-65.130470	86.294238			
39577	9.584979	0.586791	-1.765326	0.582826	2.378864	-0.361043	174.982804	-64.908738	86.848726			
39578	9.809186	0.615521	-0.959309	0.694387	3.224884	-0.504781	174.455978	-64.743457	87.152700			
39579	9.875340	0.074366	-1.005591	0.130496	3.310491	-0.455198	173.799630	-64.611182	87.332212			
39580	10.222885	-0.809924	-1.787310	-0.875653	2.917440	0.141178	173.097376	-64.477705	87.412952			
39581	10.951785	-1.805922	-2.691877	-2.021337	2.610704	1.121084	172.284756	-64.447626	87.567582			
39582	11.912628	-2.497451	-2.779161	-2.742805	3.073377	1.973019	171.520930	-64.570514	87.836834			
39583	12.671768	-2.321769	-2.023944	-2.470867	4.027361	2.341965	170.682985	-64.750869	88.256081			
39584	13.912390	-2.419760	-2.724385	-2.766514	3.883254	3.755534	169.318387	-65.336672	89.103484			
39585	13.668997	-2.382538	0.478083	-2.164606	6.475109	2.275753	168.779212	-66.240500	89.421188			
39586	13.544123	-2.549834	4.366684	-1.535530	9.792922	0.711174	168.598877	-66.877096	89.314441			
39587	16.240550	-3.154275	5.390731	-1.872663	11.802673	2.834613	168.050150	-67.219231	89.471682			
39588	17.682313	-3.532230	2.934526	-2.802437	10.089996	5.156781	167.662047	-67.956196	90.159041			
39589	16.078556	-1.035021	3.715283	-0.371788	9.472366	3.734155	167.662924	-69.024231	91.728095			
39590	15.959295	2.484612	8.245686	3.558238	12.808264	2.521207	167.512792	-70.148816	94.064084			
39591	15.692285	4.013694	8.567907	4.687070	12.689897	2.546265	166.435620	-71.334740	96.582236			
39592	15.358709	1.835401	6.009691	1.938676	10.193886	3.136675	164.615564	-72.658242	98.764798			
39593	13.908499	-1.846048	1.770871	-2.289471	5.818396	2.871371	162.544909	-73.938396	100.802787			
39594	14.482422	-2.240984	-1.143926	-3.142021	2.910044	4.248636	160.759845	-75.184981	102.669545			
39595	13.993935	-0.706564	-2.920808	-1.863158	0.578085	4.366343	158.582607	-76.524520	104.597189			
39596	14.024846	-0.063420	-6.067597	-1.683483	-2.854567	5.104587	156.319136	-77.640432	106.293209			
39597	14.100056	0.586705	-8.262371	-1.427751	-5.320570	5.584368	153.958750	-78.474157	108.164578			
39598	14.570732	1.603361	-8.657723	-0.605737	-5.986189	6.112940	151.076775	-79.192333	110.862487			
39599	14.023181	2.195240	-7.819106	0.065967	-5.596414	5.395073	147.996633	-80.060241	113.934910			
39600	13.513735	2.051976	-5.713565	0.263898	-3.885642	4.480669	145.527134	-81.236139	116.359180			
39601	12.392683	0.443939	-4.516947	-1.021733	-2.939551	3.012539	143.779246	-82.519275	117.901921			
39602	11.940679	-0.632354	-4.256434	-1.941460	-2.847279	2.402665	142.116791	-83.784588	119.292913			
39603	10.735313	-1.145594	-4.522545	-2.363978	-3.379070	1.141851	138.502884	-84.922208	122.732492			
39604	10.855786	-0.898725	-5.807101	-2.276280	-4.892397	1.289399	131.502584	-85.831070	130.090055			
39605	11.182329	0.829745	-5.781558	-0.509020	-5.342314	1.604499	117.162943	-86.725158	145.370937			
39606	11.328820	1.714657	-5.593666	0.510984	-5.545044	1.656913	90.183127	-87.464648	173.483817			
39607	10.521233	0.957514	-5.560804	-0.064998	-5.762044	0.642680	48.662904	-87.038119	-144.002051			
39608	9.019604	2.727934	-2.012736	2.148177	-2.688201	-0.812903	28.531398	-85.388438	-123.464969			
39609	7.868260	3.809672	-2.756935	3.208050	-3.700544	-2.064507	19.648909	-84.373902	-115.083275			
39610	9.346317	1.285442	-5.515113	0.367982	-6.521184	-1.051633	11.381337	-83.350953	-107.660688			
39611	7.462605	-0.163132	-3.590083	-0.805401	-4.426089	-2.858248	5.249796	-82.208416	-102.148193			
39612	6.991726	0.552439	-3.585726	-0.058455	-4.582655	-3.406385	0.710812	-81.202081	-97.905184			
39613	6.659536	0.137851	-3.977599	-0.484259	-4.977524	-3.881589	-3.212162	-80.239797	-94.385140			
39614	6.187039	0.055161	-3.411839	-0.455928	-4.432783	-4.329583	-6.263536	-79.269745	-91.555679			
39615	6.260803	0.059426	-3.989824	-0.497461	-5.096360	-4.436960	-8.673361	-78.414130	-89.285963			
39616	5.789800	-0.342597	-3.794120	-0.829621	-4.833302	-4.915288	-10.339300	-77.589024	-87.520918			
39617	5.874184	-0.128891	-4.487100	-0.663206	-5.618226	-5.053343	-11.420463	-76.847076	-86.109061			
39618	5.607431	-0.000081	-4.506143	-0.479220	-5.654553	-5.391835	-11.946603	-76.120017	-85.074843			
39619	5.595685	1.064104	-4.280714	0.668118	-5.608536	-5.469232	-12.112245	-75.481013	-84.328329			
39620	5.633465	1.499721	-4.060494	1.192619	-5.487823	-5.461425	-11.974028	-74.898871	-83.816793			
39621	5.373236	2.375644	-3.697469	2.152675	-5.174600	-5.716874	-11.613283	-74.417727	-83.512338			
39622	5.339704	2.928147	-3.420812	2.779680	-4.948876	-5.742037	-11.369917	-74.075941	-83.188551			
39623	5.542492	3.630046	-2.397326	3.607069	-4.071205	-5.334087	-11.406683	-73.824021	-82.815988			
39624	5.598115	4.053244	-1.626869	4.108086	-3.391894	-5.118767	-12.216007	-73.596442	-82.309963			
39625	5.552970	2.001513	-1.524842	2.072523	-3.175765	-5.039257	-13.484872	-73.326517	-81.729372			
39626	5.242666	0.803688	-1.093014	0.913798	-2.609095	-5.156114	-14.784167	-73.103753	-81.036751			
39627	5.112556	0.033519	-1.022907	0.159133	-2.447032	-5.211341	-16.222896	-73.029439	-80.210379			
39628	5.698637	-0.570458	-1.120131	-0.406929	-2.640170	-4.624390	-17.778912	-73.106856	-79.164176			
39629	6.236668	-0.849386	-0.830858	-0.593672	-2.463732	-3.991586	-19.191292	-73.312291	-78.001743			
39630	7.057313	0.182311	0.641626	0.706892	-1.368652	-2.893339	-20.545561	-73.599163	-76.656314			
39631	8.582304	0.618255	2.024817	1.469022	-0.462750	-1.108358	-22.148662	-73.915188	-75.222768			
39632	10.627545	0.643053	3.521473	1.912664	0.479933	1.226762	-23.984524	-74.149645	-73.667884			
39633	12.705045	1.176489	5.983415	3.069050	2.268040	3.753388	-26.107685	-74.163115	-72.185005			
39634	13.616880	0.525216	8.044332	3.037543	4.070075	5.174225	-28.835312	-73.933007	-70.587575			
39635	13.318869	-2.710180	8.378076	0.186478	4.891865	5.384576	-31.365193	-73.501395	-69.131657			
39636	11.457355	-3.324744	9.673445	-0.075452	6.668733	4.022674	-33.413432	-73.049074	-67.840298			
39637	9.925716	-3.457796	9.588626	-0.123314	7.005130	2.569734	-35.843709	-72.776613	-66.473996			
39638	9.967185	-4.378082	8.818908	-0.897070	6.470116	2.581302	-38.280962	-72.608833	-65.344876			
39639	10.756238	-5.797856	9.804319	-1.639561	7.511674	3.837135	-39.617330	-72.346075	-65.149058			
39640	10.371546	-6.249408	11.366228	-1.498093	9.152453	3.964143	-39.599892	-71.964343	-65.852486			
39641	8.881289	-4.206162	10.456773	0.073458	8.174332	1.980848	-38.847765	-71.698739	-66.710973			
39642	8.116186	-3.113343	6.743316	-0.065076	4.640377	0.162283	-38.046271	-71.615420	-67.243643			
39643	7.896964	-0.814399	4.889822	1.516859	2.436024	-0.941380	-37.124764	-71.705286	-67.478596			
39644	8.299555	0.398049	2.355143	1.991517	-0.280635	-1.413725	-36.591382	-71.971960	-67.395759			
39645	10.942434	0.974122	1.272526	2.545408	-2.112841	0.740102	-35.925923	-72.297003	-67.399993			
39646	10.716136	1.201878	1.546421	2.755892	-1.792327	0.573057	-34.145726	-72.377019	-68.104594			
39647	4.969908	2.378341	-3.346161	2.144009	-4.958571	-6.295872	-32.957515	-72.850675	-67.944345			
39648	8.401813	3.767410	-4.495739	3.741347	-7.091752	-3.433080	-32.572269	-73.813900	-66.941333			
39649	16.559062	3.606818	0.791869	5.415142	-3.878840	5.790552	-31.996339	-74.834488	-67.130793			
39650	19.268001	-1.355720	4.852165	1.445291	0.042545	10.050286	-30.461880	-73.983179	-68.634597			
39651	9.823493	-8.594524	10.501298	-5.601998	8.561240	3.452032	-30.958683	-72.614604	-67.799321			
39652	9.820997	-11.412253	6.053864	-9.093743	4.465582	2.864106	-31.431556	-72.751020	-66.201552			
39653	10.011151	-4.843038	-3.188556	-4.021192	-5.257495	-0.324095	-29.067156	-73.472334	-66.625021			
39654	10.830197	3.643540	-3.424506	4.438139	-6.301343	-0.708545	-23.354700	-74.269414	-69.437017			
39655	11.897243	10.384063	1.386250	11.418759	-1.702380	1.048029	-17.316086	-75.057646	-72.074497			
39656	7.651032	17.052111	0.980565	17.567128	-0.432003	-3.372864	-15.911038	-76.349229	-72.866884			
39657	7.271774	10.672719	-6.080189	11.132903	-7.403888	-4.814240	-19.454138	-77.029389	-71.353698			
39658	5.611714	2.233507	-4.575763	2.503063	-5.694092	-5.484969	-27.355765	-76.997465	-65.464360			
39659	6.563134	-0.795401	-1.131239	-0.166696	-2.357693	-3.535975	-37.811546	-76.919523	-57.105277			
39660	8.988094	-3.646494	-2.021642	-2.598418	-3.229260	-0.814294	-50.020057	-76.998315	-47.739733			
39661	10.848377	-8.034354	-10.311051	-7.907674	-10.610033	0.836016	-56.997401	-77.342556	-43.801789			
39662	11.476762	-7.815846	-5.867596	-6.901496	-6.038932	2.151068	-58.768067	-77.479959	-42.371679			
39663	8.220519	-3.044316	-1.834234	-2.000533	-2.404142	-1.420623	-60.205085	-77.993244	-40.556510			
39664	10.288811	-1.660361	-3.819633	-0.739287	-4.747980	0.192988	-63.273649	-78.668712	-37.598602			
39665	11.881951	-1.921971	-4.794193	-0.947794	-5.714571	1.776246	-65.546393	-78.872853	-35.547255			
39666	9.943874	-2.324586	-2.997091	-1.271135	-3.600526	0.121453	-66.911718	-78.837951	-34.327728			
39667	8.665801	-2.748874	-2.863066	-1.841915	-3.212878	-1.030082	-68.213671	-78.984969	-32.915889			
39668	8.468864	-2.699926	-2.847940	-1.819242	-3.139220	-1.212840	-69.798572	-79.418909	-30.825963			
39669	9.421648	-1.790737	-2.709097	-0.770972	-3.180739	-0.399868	-71.765679	-80.015755	-28.154429			
39670	10.285603	-0.605889	-2.468100	0.533651	-3.111217	0.300996	-73.866015	-80.626757	-25.351748			
39671	10.505769	0.594543	-1.972979	1.789561	-2.713378	0.387862	-75.899172	-81.136637	-22.680564			
39672	10.117095	1.195843	-0.760009	2.480127	-1.475717	-0.013014	-78.377088	-81.499738	-19.864923			
39673	10.194099	0.898835	-0.164965	2.276080	-0.750872	0.137671	-82.402795	-81.647015	-16.051017			
39674	10.008736	-0.459535	-1.256100	0.774503	-1.522984	0.139365	-87.387413	-81.555940	-11.831197			
39675	9.782127	-2.000639	-2.466833	-0.935625	-2.358886	0.154110	-91.308932	-81.355708	-8.804433			
39676	9.128929	-2.731265	-2.035669	-1.652067	-1.704181	-0.362444	-93.705973	-81.235356	-6.895417			
39677	8.843999	-1.520972	-1.070936	-0.337587	-0.904918	-0.826954	-96.315361	-81.297066	-4.313392			
39678	9.507028	0.114543	-0.392528	1.465981	-0.473635	-0.422440	-99.553683	-81.421500	-1.031331			
39679	10.030004	0.932200	-0.125834	2.369579	-0.281107	-0.025383	-102.875956	-81.524016	2.159214			
39680	10.061135	1.189162	0.184855	2.667226	0.047934	-0.037311	-106.035744	-81.549597	4.964004			
39681	10.059551	1.048095	0.438231	2.573543	0.386568	-0.029423	-109.365155	-81.510953	7.739951			
39682	10.031249	0.791202	0.631863	2.365862	0.684246	-0.035906	-112.466096	-81.407786	10.152141			
39683	9.904304	0.328116	0.585036	1.906231	0.784485	-0.102084	-115.235390	-81.272812	12.027787			
39684	9.860467	-0.500370	0.326139	1.069104	0.765819	-0.022087	-117.433044	-81.105367	13.139994			
39685	9.646128	-1.480020	0.152936	0.089442	0.879931	-0.092654	-119.042499	-80.928150	13.505087			
39686	9.563499	-2.796638	-0.084459	-1.197611	1.062902	0.022159	-120.417147	-80.744355	13.567460			
39687	9.499925	-4.528300	-0.979994	-3.060045	0.801114	0.272339	-121.819799	-80.583282	13.787742			
39688	9.571852	-5.198642	-1.975726	-3.959757	0.169687	0.523679	-123.207344	-80.508728	14.388249			
39689	9.750123	-4.080139	-1.476782	-2.725521	0.355512	0.499359	-124.145717	-80.485182	14.949973			
39690	9.832349	-3.007366	-0.800276	-1.493210	0.674749	0.369393	-124.691905	-80.474721	15.193861			
39691	9.771472	-2.520309	-1.102036	-1.148224	0.243316	0.270490	-125.001597	-80.478593	15.243385			
39692	9.579823	-1.556884	-1.203460	-0.325080	-0.183073	-0.039970	-125.078980	-80.572208	15.180120			
39693	9.584675	-0.423306	-0.569410	0.915830	0.019756	-0.245547	-125.198524	-80.769427	15.281346			
39694	9.863581	0.709623	-0.297633	2.061995	-0.109597	-0.137031	-125.358339	-81.071595	15.495956			
39695	9.947199	1.815475	-0.673857	2.922048	-0.852467	-0.146698	-125.279541	-81.454679	15.352122			
39696	10.179879	2.556433	-1.213993	3.399957	-1.649888	0.054251	-124.251508	-81.820413	13.888501			
39697	10.014694	2.181894	-0.893477	3.079207	-1.310688	-0.083737	-122.131068	-82.074915	10.903647			
39698	9.643947	1.094317	-0.912330	1.971712	-1.039287	-0.322320	-120.269542	-82.227725	7.867780			
39699	8.967818	-0.551029	-2.341167	-0.209633	-1.799988	-0.706519	-118.871154	-82.348967	5.433688			
39700	8.919823	-0.229938	-1.561085	0.338012	-1.232725	-0.845019	-118.694785	-82.513823	4.491701			
39701	9.783151	0.030401	-0.948627	0.897781	-0.780337	-0.055851	-119.118358	-82.615699	3.989105			
39702	9.807649	-0.921081	-2.115738	-0.482729	-1.420703	0.150396	-120.012085	-82.691350	3.596235			
39703	9.875336	-1.607362	-3.182936	-1.609643	-2.029035	0.362207	-120.709853	-82.784560	2.981993			
39704	9.528993	-0.972784	-3.181643	-1.165673	-2.285740	-0.051186	-121.036423	-82.966541	2.133794			
39705	9.281881	-0.021481	-3.046300	-0.389553	-2.604364	-0.405322	-121.602346	-83.199265	1.521011			
39706	9.321408	0.115851	-2.810146	-0.242626	-2.449353	-0.392496	-122.529811	-83.459037	1.228408			
39707	9.562239	-0.311399	-2.467001	-0.490744	-1.897835	-0.128882	-124.589900	-83.702098	2.004276			
39708	10.068716	-1.202321	-2.698743	-1.390834	-1.540536	0.473167	-127.748412	-83.953009	3.705503			
39709	10.323687	-2.209206	-3.150207	-2.531213	-1.231181	0.838972	-131.757102	-84.196638	6.155957			
39710	10.157155	-3.044317	-3.759689	-3.657443	-1.088121	0.770657	-135.731399	-84.405410	8.537802			
39711	9.818550	-3.236394	-4.172607	-4.166484	-1.133408	0.465523	-139.651843	-84.582217	10.868345			
39712	9.723478	-3.228038	-4.132442	-4.212339	-0.935692	0.356934	-143.449737	-84.726176	13.070694			
39713	9.981902	-3.280663	-3.757454	-4.044549	-0.441059	0.577894	-147.402169	-84.852533	15.465454			
39714	10.240723	-2.941965	-3.815189	-3.861764	-0.542099	0.811519	-151.691091	-84.970477	18.281969			
39715	10.240961	-2.348026	-3.812591	-3.487776	-0.793318	0.776470	-156.750433	-85.057445	22.012069			
39716	10.227680	-1.582462	-3.831481	-3.030249	-1.204060	0.730349	-162.797488	-85.169946	26.946341			
39717	9.801925	-0.329884	-3.228791	-1.844036	-1.578219	0.223189	-169.740454	-85.248980	33.001498			
39718	9.566931	0.942793	-2.471229	-0.526338	-1.894610	-0.083662	-177.684311	-85.220903	40.165495			
39719	9.802248	1.974025	-2.098025	0.366844	-2.289269	0.137464	173.924993	-85.055934	47.730375			
39720	10.183807	2.342922	-2.170513	0.474591	-2.479943	0.557110	165.511614	-84.784570	55.194623			
39721	10.800853	2.852683	-2.184976	0.701422	-2.710139	1.220469	157.549344	-84.411283	61.988305			
39722	11.291670	2.287959	-2.410034	0.046100	-2.237298	1.742971	150.095176	-83.905413	68.011785			
39723	11.662810	1.634161	-3.417250	-1.289358	-2.130729	2.194044	143.248214	-83.351005	73.512140			
39724	11.550309	2.096185	-3.069335	-0.916178	-2.134368	2.096317	136.173373	-82.903774	79.266093			
39725	11.008372	2.497864	-1.811602	0.132245	-1.682203	1.494583	129.753102	-82.551616	84.041532			
39726	11.058229	1.689590	-1.865984	-0.541544	-0.963158	1.474364	124.576148	-82.363788	87.239738			
39727	10.715089	0.639575	-1.420497	-0.856851	0.166951	0.979750	119.862668	-82.280232	89.824138			
39728	10.232441	0.091741	-1.117749	-0.966207	0.769969	0.406577	114.991291	-82.201067	92.580215			
39729	9.363304	0.482290	-0.889584	-0.666277	0.456820	-0.429613	110.487651	-82.064718	95.107611			
39730	9.455015	1.082639	-1.260832	-0.831724	-0.187877	-0.250718	106.951911	-81.936565	96.801304			
39731	9.762683	2.534748	-0.909427	-0.042824	-1.293864	0.231445	103.394552	-81.806671	98.468462			
39732	9.864172	4.066228	-0.652291	0.600324	-2.590007	0.540573	99.966959	-81.650716	99.683357			
39733	10.200986	5.364221	-0.866877	0.590122	-3.841643	1.071866	95.949517	-81.565724	101.199034			
39734	10.446213	6.784645	0.099870	1.581797	-4.944077	1.510021	90.325324	-81.623402	103.869362			
39735	9.955470	7.540458	-0.201665	1.023792	-5.939832	1.126060	84.191646	-81.734856	106.380590			
39736	9.132784	7.570346	-2.920151	-2.181047	-6.600832	0.231442	78.837854	-81.893431	107.386174			
39737	8.574125	7.126352	-5.181218	-5.089368	-6.244759	-0.528437	73.949575	-82.141444	107.043653			
39738	8.629490	5.110569	-7.221963	-7.707868	-3.750188	-0.912458	69.926036	-82.705840	105.267465			
39739	9.707740	2.716357	-8.039168	-8.628022	-0.475611	-0.245513	64.843642	-83.391350	104.481896			
39740	9.672774	0.847143	-7.113993	-7.388958	1.842969	-0.492477	57.427489	-83.985447	106.302458			
39741	8.582785	-1.298698	-5.831627	-5.355135	3.923456	-1.733766	47.595911	-84.431881	110.701248			
39742	6.180510	-4.190680	-4.477119	-2.586982	6.159574	-4.231174	35.837187	-84.820092	117.443017			
39743	3.933900	-7.437660	-3.691914	0.222277	8.564275	-6.497351	27.117076	-85.333620	121.628780			
39744	4.355531	-9.370134	-5.811257	0.052146	11.279038	-6.168014	23.838062	-86.034717	121.623441			
39745	6.658008	-7.298321	-5.731871	-0.618220	9.622486	-3.692165	26.387766	-86.706676	117.039025			
39746	9.062848	-3.681091	-4.325758	-1.385585	5.976141	-1.051527	32.675833	-87.325705	109.113086			
39747	10.263407	-2.029326	-3.952582	-1.903410	4.486959	0.253057	40.931295	-87.744069	99.260865			
39748	9.860198	-1.088573	-3.620363	-2.074860	3.546253	-0.084749	49.904123	-87.919017	88.950876			
39749	9.042231	-0.444770	-2.083610	-1.221494	2.042085	-0.832809	60.502160	-87.905190	77.314506			
39750	9.018968	-0.172695	-1.149344	-0.617780	1.220171	-0.822613	73.139811	-87.802436	63.935184			
39751	9.138104	0.150831	-0.273753	-0.107928	0.396805	-0.678522	82.443839	-87.499261	53.871544			
39752	9.164625	0.131591	-0.581237	-0.232059	0.649915	-0.654712	87.047288	-87.022557	48.247620			
39753	8.805812	0.733230	-0.329703	-0.414101	0.075695	-0.980305	89.199915	-86.585031	44.861130			
39754	8.724564	0.047617	-1.149125	-0.423972	1.174386	-1.101705	91.528863	-86.235111	41.170361			
39755	9.081284	-0.507760	-1.891383	-0.410321	2.140003	-0.781853	93.603397	-85.881707	37.909623			
39756	9.163844	-0.303929	-1.982515	-0.517757	2.099619	-0.684630	96.117529	-85.508107	34.480953			
39757	10.391145	0.503454	-1.396230	-0.568948	1.204850	0.598971	98.374816	-85.117513	31.245255			
39758	10.555283	0.500574	-1.435894	-0.486787	1.267731	0.764721	99.376497	-84.786366	29.006301			
39759	10.528767	-0.000115	-1.462675	-0.026468	1.614843	0.693754	100.427723	-84.528887	26.627727			
39760	9.854928	-0.351810	-1.336884	0.352818	1.693401	-0.012787	101.716912	-84.334053	24.095866			
39761	8.979415	-0.503336	-1.492150	0.385384	1.856686	-0.895662	103.601492	-84.079925	21.126038			
39762	8.713448	-0.281926	-1.737557	0.126378	1.904926	-1.130675	105.690961	-83.728906	18.157475			
39763	9.046475	0.123215	-1.554458	0.016203	1.529103	-0.761100	107.059978	-83.331438	16.155221			
39764	9.431743	0.926463	-0.349121	0.132073	0.086007	-0.330461	108.519255	-82.883965	14.046454			
39765	10.261256	1.623427	0.155518	0.003299	-0.710292	0.553017	110.856269	-82.399247	10.867922			
39766	10.715136	1.899090	-0.376167	-0.362592	-0.432841	1.061252	113.565066	-81.962299	7.078301			
39767	10.607563	2.013927	-0.839893	-0.630353	-0.138907	0.997698	115.981178	-81.580660	3.291972			
39768	10.393393	2.152088	-0.930104	-0.758488	-0.167973	0.813474	117.931862	-81.249676	-0.197877			
39769	10.035659	2.248045	-0.951470	-0.854161	-0.218398	0.477889	119.467529	-80.947156	-3.432820			
39770	9.807985	1.981142	-1.006125	-0.630377	-0.068095	0.223825	120.616681	-80.652480	-6.333182			
39771	9.890763	1.944645	-0.843906	-0.476829	-0.211156	0.289241	121.040181	-80.394668	-8.586591			
39772	9.577582	1.710078	-0.336725	-0.105484	-0.591774	-0.096387	121.566674	-80.251707	-11.038836			
39773	8.976941	0.939351	-0.701732	0.388688	0.003562	-0.767862	123.080572	-80.118892	-14.886784			
39774	8.994693	-0.193478	-1.791886	1.159963	1.297964	-0.805978	125.718868	-79.956438	-20.167328			
39775	9.271063	-1.386322	-2.980870	2.125779	2.584589	-0.563007	128.778460	-79.769739	-26.006108			
39776	10.159432	-2.854315	-4.196598	3.558230	3.811724	0.275709	131.322434	-79.650264	-31.029745			
39777	10.474422	-4.229655	-4.156254	5.079573	3.787489	0.420949	131.982549	-79.725072	-33.587500			
39778	9.397035	-3.772538	-2.323721	4.796952	1.887146	-0.792543	131.572430	-79.702201	-34.375728			
39779	9.237707	-2.576284	-1.862226	3.701609	1.202732	-0.852158	132.056485	-79.353676	-35.480856			
39780	10.040556	-1.089733	-1.019359	2.504458	0.004575	0.024265	133.339274	-78.742314	-37.168728			
39781	12.394465	-0.541678	-0.261482	2.451584	-1.200494	2.292344	134.542716	-78.297605	-38.843069			
39782	13.439225	-1.726008	1.340179	3.890808	-2.848985	2.920420	134.870108	-78.612061	-39.802388			
39783	11.611062	-3.924132	2.414602	5.732177	-3.451493	0.735863	134.620288	-79.508658	-40.319162			
39784	8.731111	-6.276623	2.399282	7.511625	-2.892910	-2.290119	135.440654	-80.328986	-41.687109			
39785	7.346824	-6.770756	1.184248	7.683172	-1.523250	-3.498435	138.248188	-80.232771	-44.366612			
39786	9.938628	-3.833786	-0.125531	5.006663	-0.821375	-0.445313	142.327838	-79.409445	-47.523465			
39787	11.043176	-1.229390	-0.805009	2.554566	-0.679251	1.009558	145.556108	-78.357300	-49.596153			
39788	11.486508	0.697599	-1.958130	0.667654	-0.015691	1.841128	147.271146	-77.382436	-50.312450			
39789	11.447033	2.330632	-1.982080	-0.888211	-0.359397	1.997278	148.214834	-76.805580	-50.396081			
39790	10.732558	2.996782	-0.674163	-1.459898	-1.706319	1.122566	149.242332	-76.648541	-50.662864			
39791	9.873709	2.852749	0.630324	-1.271669	-2.857731	-0.002409	150.778651	-76.662323	-51.404807			
39792	9.203077	2.842941	1.083271	-1.291119	-3.239879	-0.769015	152.576583	-76.514175	-52.286670			
39793	9.270861	3.645608	0.603779	-2.118375	-3.042681	-0.546786	154.256305	-76.126791	-52.945128			
39794	9.845180	4.657090	-0.193842	-3.119156	-2.723637	0.262265	155.264209	-75.700203	-53.107305			
39795	10.105308	5.121356	-0.251986	-3.509100	-2.917630	0.559503	155.837647	-75.571395	-53.209867			
39796	8.844839	4.838440	0.348483	-3.310519	-3.208341	-0.839950	156.605558	-75.621929	-54.026790			
39797	8.317361	4.056598	0.039080	-2.732725	-2.635197	-1.373272	157.583817	-75.503931	-55.600050			
39798	8.724627	2.948369	-1.169216	-1.877550	-1.342582	-0.820966	158.959249	-75.297350	-57.806624			
39799	8.975874	1.888605	-2.348142	-1.063440	-0.091864	-0.404859	160.547715	-75.077266	-60.345217			
39800	9.973033	0.775037	-3.248313	-0.026854	0.694598	0.681593	162.063307	-74.843033	-62.897967			
39801	10.782148	-0.286100	-2.914464	1.126127	0.290642	1.299350	163.330881	-74.674013	-65.233417			
39802	11.131653	-1.220300	-2.294694	2.119884	-0.328076	1.415231	164.441984	-74.567264	-67.334180			
39803	10.809236	-1.812169	-1.296568	2.725185	-1.202826	0.814187	165.432358	-74.536951	-69.240046			
39804	10.640067	-2.558856	-0.948655	3.415321	-1.485276	0.521103	166.482496	-74.491488	-71.250064			
39805	10.733485	-3.776848	-1.298516	4.531295	-1.142500	0.642890	167.721515	-74.478776	-73.436929			
39806	10.685508	-5.041188	-1.753132	5.682993	-0.678068	0.671106	168.922631	-74.562525	-75.378663			
39807	10.458958	-5.593618	-1.593978	6.159766	-0.784367	0.417693	170.061946	-74.717534	-76.799528			
39808	9.660509	-4.742967	-1.726624	5.205012	-0.508549	-0.249664	171.018216	-74.764280	-77.541049			
39809	9.983343	-3.131439	-1.996422	3.566672	-0.420207	0.215319	171.798632	-74.726802	-77.766030			
39810	10.289282	-1.551026	-2.049742	1.978789	-0.545850	0.592253	172.422791	-74.764379	-77.692342			
39811	10.290736	-0.332431	-2.182494	0.728358	-0.491905	0.675419	172.995651	-74.979165	-77.648267			
39812	9.875035	0.326257	-1.696155	0.060328	-0.873744	0.173920	173.626611	-75.312237	-77.843942			
39813	9.266599	0.694743	-1.406722	-0.345412	-0.989705	-0.472865	174.313154	-75.664721	-78.210485			
39814	9.187305	1.035410	-1.065300	-0.683799	-1.291121	-0.621457	174.852023	-75.988523	-78.509761			
39815	9.648840	1.203125	-0.561433	-0.803744	-1.860013	-0.286044	175.445722	-76.311392	-78.971620			
39816	9.563381	1.078872	-0.629183	-0.726506	-1.717111	-0.350048	176.161867	-76.584701	-79.833346			
39817	9.674618	0.521218	-1.860394	-0.333432	-0.451041	0.036993	176.710325	-76.793341	-80.771178			
39818	9.488212	0.491760	-2.977278	-0.443537	0.710093	0.108558	177.036519	-76.995665	-81.469399			
39819	9.076160	0.951002	-2.769435	-0.905096	0.592938	-0.337459	177.202766	-77.199287	-82.048279			
39820	8.482471	1.261859	-2.820510	-1.240583	0.778335	-0.904547	177.373106	-77.317351	-82.781204			
39821	8.388107	1.124540	-3.146039	-1.130873	1.151958	-0.929187	177.690659	-77.368233	-83.765250			
39822	8.432013	0.455438	-2.864879	-0.441849	0.927713	-0.955041	177.977992	-77.380312	-84.759186			
39823	8.770584	-0.308713	-2.603333	0.342406	0.642902	-0.687709	178.214838	-77.365522	-85.675986			
39824	9.249378	-0.907581	-2.436687	0.955381	0.387997	-0.260263	178.374354	-77.305414	-86.510621			
39825	9.377227	-1.425626	-2.748432	1.468686	0.653793	-0.069275	178.374119	-77.196126	-87.117442			
39826	9.119065	-1.393041	-3.083782	1.439793	0.999941	-0.245316	178.096167	-77.017083	-87.235457			
39827	9.154524	-0.527758	-2.547263	0.598450	0.416902	-0.323731	177.818629	-76.792145	-87.202625			
39828	9.402208	-0.238908	-2.194067	0.326513	-0.031074	-0.160498	177.686026	-76.515026	-87.379869			
39829	9.510191	-0.929167	-2.318511	1.019300	0.017676	-0.032962	177.811037	-76.229256	-87.902976			
39830	9.213743	-1.596630	-2.301233	1.678984	0.013479	-0.330151	178.046815	-75.945050	-88.494057			
39831	9.082252	-1.743674	-2.180774	1.818210	-0.131073	-0.487448	178.151572	-75.623991	-88.850489			
39832	9.557011	-1.601857	-1.945397	1.674440	-0.536902	-0.086710	178.142155	-75.279517	-88.949227			
39833	10.114368	-1.465165	-1.463258	1.532889	-1.200764	0.326170	178.156734	-74.975164	-89.010270			
39834	10.490240	-1.706551	-1.400605	1.771895	-1.414534	0.664833	178.260376	-74.721428	-89.181473			
