// General information: 
//  MT Manager version: 2022.0.0 
//  XDA version: 2022.0.0 build 7085 rev 119802 built on 2022-11-08
// Device information: 
//  DeviceId: 00B49380
//  ProductCode: MTW2-3A7G6
//  Firmware Version: 4.6.0
//  Hardware Version: 2.0.0
// Device settings: 
//  Filter Profile: human(46.1)
//  Option Flags: Orientation Smoother Disabled, Position/Velocity Smoother Disabled, Continuous Zero Rotation Update Disabled, AHS Disabled, ICC Disabled
// Coordinate system: ENU
PacketCounter	Acc_X	Acc_Y	Acc_Z	FreeAcc_E	FreeAcc_N	FreeAcc_U	Roll	Pitch	Yaw	Vel_E	Vel_N	Vel_U
38738	8.969197	1.890389	3.216336	0.606055	0.064765	-0.117669	35.173799	-70.608875	156.218065			
38739	9.030227	1.907149	3.327928	0.698654	0.086089	-0.026892	35.275945	-70.619111	156.070343			
38740	9.203295	1.989270	3.426489	0.756069	0.053924	0.178514	35.331411	-70.628201	155.966720			
38741	9.378818	2.040915	3.282453	0.577262	-0.001663	0.314939	35.358189	-70.623138	155.908097			
38742	9.488327	2.058559	3.172126	0.443790	-0.025475	0.391762	35.402974	-70.617327	155.858443			
38743	9.409089	2.032421	3.163811	0.455899	-0.008638	0.309737	35.490872	-70.610537	155.786536			
38744	9.119935	1.882713	3.162601	0.521173	0.102957	0.007579	35.652217	-70.622248	155.649940			
38745	8.971838	1.858924	3.262285	0.661131	0.135501	-0.110290	35.839538	-70.634780	155.493360			
38746	8.986606	1.861759	3.294138	0.694021	0.151028	-0.087869	36.045678	-70.649630	155.333769			
38747	9.157943	1.897738	3.292265	0.652669	0.148358	0.079751	36.201507	-70.662277	155.223783			
38748	9.217676	1.863310	3.306239	0.647860	0.198904	0.132633	36.307339	-70.680488	155.144605			
38749	9.310288	1.864517	3.299891	0.618764	0.212746	0.218216	36.374741	-70.697450	155.099386			
38750	9.318815	1.827023	3.379112	0.688424	0.268644	0.239706	36.398940	-70.715119	155.084717			
38751	9.264812	1.706793	3.306679	0.618138	0.360178	0.145835	36.364707	-70.726474	155.104413			
38752	9.205223	1.674945	3.249419	0.577521	0.366525	0.068225	36.294119	-70.733782	155.141374			
38753	9.019046	1.595066	3.111068	0.488051	0.383811	-0.159674	36.215491	-70.728124	155.206124			
38754	8.854649	1.597234	3.065440	0.493011	0.346572	-0.326396	36.179777	-70.723280	155.262286			
38755	8.804263	1.665004	3.168403	0.613761	0.295645	-0.333132	36.145038	-70.712970	155.336461			
38756	8.809842	1.697739	3.127645	0.577509	0.255484	-0.332234	36.122846	-70.705558	155.398336			
38757	8.860295	1.696751	3.067114	0.502936	0.250461	-0.300836	36.112167	-70.692207	155.447511			
38758	8.879334	1.725924	3.065740	0.499073	0.225636	-0.277481	36.118144	-70.680107	155.476089			
38759	8.991091	1.821764	3.100816	0.512081	0.157943	-0.143849	36.128709	-70.660930	155.492135			
38760	9.014132	1.832879	2.960674	0.373342	0.122227	-0.157363	36.165099	-70.640288	155.480219			
38761	9.024824	1.821362	2.895435	0.304837	0.125455	-0.166979	36.260392	-70.618830	155.436099			
38762	9.043212	1.871511	2.832362	0.249296	0.073567	-0.156759	36.420883	-70.604774	155.347753			
38763	9.159290	1.859000	2.800665	0.184286	0.105729	-0.058352	36.642376	-70.591769	155.253153			
38764	9.292647	1.797012	2.619878	-0.031546	0.157016	0.006713	36.924718	-70.588083	155.160385			
38765	9.225254	2.031955	2.776986	0.183765	-0.023841	0.031673	37.324995	-70.569107	155.117535			
38766	9.093246	2.316128	2.943389	0.439111	-0.256679	0.008534	37.620965	-70.567009	155.017504			
38767	9.126885	2.383065	3.016397	0.516004	-0.280826	0.073289	37.927926	-70.548214	154.941478			
38768	9.043459	2.419963	3.186285	0.712671	-0.268101	0.046976	38.215238	-70.531731	154.859375			
38769	9.021238	2.339149	3.146063	0.670458	-0.186255	-0.001070	38.467106	-70.514703	154.785173			
38770	9.014937	2.348162	3.230357	0.756778	-0.160489	0.016844	38.659259	-70.503545	154.745398			
38771	9.183322	2.251570	3.325398	0.775023	-0.010515	0.180334	38.718596	-70.474131	154.785965			
38772	9.237009	2.134176	3.209624	0.623169	0.084357	0.176470	38.689649	-70.442259	154.894922			
38773	9.071565	1.975900	3.377501	0.790303	0.253678	0.031908	38.553713	-70.412912	155.070248			
38774	9.108766	1.740644	3.040101	0.409891	0.392319	-0.070011	38.382662	-70.395140	155.295817			
38775	9.104337	1.691739	2.898683	0.259935	0.395102	-0.120958	38.176550	-70.356194	155.594387			
38776	9.082262	1.703682	3.069225	0.414616	0.417844	-0.093447	37.967540	-70.295902	155.929197			
38777	9.141018	1.626688	3.027952	0.326082	0.484833	-0.064282	37.807336	-70.224989	156.277784			
38778	9.112082	1.463320	2.427969	-0.270783	0.478326	-0.285660	37.734576	-70.154565	156.598454			
38779	9.139614	1.397925	2.007760	-0.694917	0.434718	-0.386875	37.812498	-70.092139	156.819539			
38780	9.112755	1.542920	1.842118	-0.819007	0.252013	-0.427486	37.813056	-70.009071	156.942074			
38781	8.755737	1.013207	1.471880	-1.179720	0.613115	-0.975931	37.882517	-69.902555	156.994377			
38782	8.519279	1.246981	1.808845	-0.755547	0.460681	-1.059294	37.994873	-69.801567	156.952296			
38783	8.664204	1.076218	1.611125	-1.034877	0.599047	-1.015384	38.109882	-69.695066	156.873652			
38784	9.205403	0.802015	1.708405	-1.188761	0.974151	-0.542349	38.368714	-69.623870	156.738926			
38785	9.902913	0.921563	2.489629	-0.675875	1.193064	0.347774	38.635970	-69.528490	156.652701			
38786	10.654737	0.706859	2.379356	-1.081019	1.491168	0.971197	38.966827	-69.427654	156.590936			
38787	11.136852	0.751235	2.130662	-1.468107	1.470454	1.359416	39.432198	-69.337609	156.464856			
38788	11.027651	1.136508	1.900520	-1.561928	1.051937	1.276337	39.936485	-69.249052	156.337055			
38789	10.500273	1.757429	1.701460	-1.431084	0.359820	0.867281	40.391296	-69.140663	156.240518			
38790	9.917286	2.344551	2.147268	-0.695836	-0.112398	0.577855	40.781387	-69.041693	156.138013			
38791	9.286562	2.624383	2.608978	-0.002810	-0.297712	0.179595	41.096271	-68.971899	156.023998			
38792	8.920434	2.607411	2.963232	0.438260	-0.203729	-0.070004	41.383694	-68.972652	155.878524			
38793	9.128345	2.441024	2.788689	0.185346	-0.058131	0.037402	41.735229	-69.081755	155.627113			
38794	9.073964	2.246072	2.625067	0.037117	0.074828	-0.103644	42.145303	-69.274710	155.263617			
38795	9.120176	1.963494	2.391122	-0.221082	0.279710	-0.188599	42.592573	-69.507984	154.801510			
38796	9.080669	1.681317	2.284665	-0.331384	0.511568	-0.318828	43.052541	-69.746315	154.282980			
38797	9.198060	1.276726	2.420829	-0.300607	0.958859	-0.268853	43.524384	-69.981644	153.725819			
38798	9.243896	0.909449	2.492150	-0.296543	1.340449	-0.294148	43.999126	-70.197790	153.176831			
38799	9.321270	0.739469	2.483072	-0.327654	1.518121	-0.263535	44.485215	-70.387879	152.622057			
38800	9.086707	0.762419	2.259907	-0.416897	1.401377	-0.532658	44.943070	-70.541211	152.080623			
38801	8.890515	0.906371	2.119487	-0.417568	1.204922	-0.717157	45.430914	-70.662922	151.487707			
38802	8.895371	1.057622	2.239634	-0.238595	1.117309	-0.649896	45.953481	-70.754460	150.830023			
38803	8.873622	1.015003	2.353010	-0.111384	1.208078	-0.656482	46.499739	-70.808437	150.140420			
38804	8.970083	0.873533	2.467569	-0.042788	1.414695	-0.576289	47.109693	-70.844699	149.392586			
38805	9.310153	0.748336	2.431687	-0.177840	1.605155	-0.297238	47.760450	-70.864847	148.607829			
38806	9.434843	0.740418	2.433081	-0.190176	1.664590	-0.185786	48.378688	-70.844707	147.854282			
38807	9.527332	0.770505	2.497315	-0.133026	1.703944	-0.082369	48.942474	-70.775818	147.148770			
38808	9.606252	0.865244	2.619353	-0.009781	1.698418	0.036420	49.415005	-70.667534	146.516620			
38809	9.617226	0.764496	2.529112	-0.121645	1.800189	-0.003695	49.755158	-70.512294	146.009601			
38810	9.492672	0.577471	2.600276	-0.072326	2.003797	-0.159439	50.027085	-70.334089	145.574152			
38811	9.411353	0.386704	2.884215	0.159836	2.278219	-0.230104	50.246537	-70.146031	145.175742			
38812	9.345314	0.311615	2.983871	0.244865	2.391992	-0.296710	50.489496	-69.969356	144.745755			
38813	9.356415	0.250135	2.885533	0.130428	2.451928	-0.331003	50.796831	-69.809532	144.267375			
38814	9.437850	0.205087	2.862682	0.075318	2.534382	-0.279525	51.160482	-69.661956	143.737228			
38815	9.410894	-0.000189	2.723769	-0.091253	2.714208	-0.399479	51.539353	-69.508326	143.213740			
38816	9.283679	-0.117959	2.595313	-0.199960	2.795268	-0.588661	51.932200	-69.354651	142.692244			
38817	9.246245	-0.160843	2.495642	-0.291686	2.833208	-0.667476	52.319920	-69.193471	142.193685			
38818	9.128144	-0.070001	2.507544	-0.229259	2.759418	-0.760139	52.697927	-69.027139	141.724817			
38819	8.958980	-0.019839	2.781704	0.081852	2.782546	-0.854327	53.031936	-68.849867	141.310039			
38820	8.937375	0.083000	2.957507	0.268077	2.761408	-0.816406	53.348524	-68.666223	140.928584			
38821	9.024101	0.164013	2.941546	0.236677	2.733358	-0.724970	53.654731	-68.473125	140.581245			
38822	9.139898	0.185946	2.913992	0.172689	2.765895	-0.626636	53.958456	-68.275437	140.246559			
38823	9.157114	0.047291	2.497988	-0.260576	2.819990	-0.753186	54.275878	-68.079553	139.919719			
38824	9.066005	-0.039824	2.320173	-0.427218	2.866094	-0.914368	54.659004	-67.892402	139.556920			
38825	9.039182	0.061434	2.150462	-0.565963	2.755256	-0.957000	55.074084	-67.703903	139.197423			
38826	9.023891	0.263081	2.007041	-0.662603	2.563161	-0.951589	55.545527	-67.515103	138.832096			
38827	8.987643	0.625400	1.901404	-0.684971	2.228708	-0.904954	56.052831	-67.325424	138.467820			
38828	9.075196	0.926465	1.833563	-0.716915	1.995672	-0.752740	56.610686	-67.145052	138.072175			
38829	9.491356	1.294890	1.798909	-0.794317	1.797533	-0.266148	57.216031	-66.985107	137.636128			
38830	10.059320	1.503422	1.486992	-1.201815	1.712155	0.251374	57.841560	-66.839499	137.179279			
38831	10.398672	1.653859	1.350580	-1.388995	1.670364	0.578275	58.419799	-66.704131	136.757459			
38832	10.566530	1.786412	1.538082	-1.227813	1.692144	0.809812	58.924839	-66.573127	136.380647			
38833	10.583965	1.902690	1.481954	-1.254321	1.613542	0.848446	59.387562	-66.462167	136.006762			
38834	10.851881	2.054499	1.820866	-0.969209	1.687867	1.210535	59.919766	-66.388973	135.516584			
38835	11.525233	1.821562	2.275224	-0.766502	2.259860	1.833389	60.378544	-66.347642	135.019108			
38836	12.515410	1.514356	2.527177	-0.851524	2.925912	2.678478	60.769842	-66.338798	134.550083			
38837	13.371013	1.243660	2.571659	-1.079676	3.451574	3.373098	61.042691	-66.364271	134.179846			
38838	13.636765	0.894659	2.719494	-1.060485	3.899531	3.522469	61.201220	-66.417976	133.910564			
38839	13.936376	0.824566	2.817899	-1.036883	4.077955	3.793859	61.342864	-66.503443	133.677380			
38840	14.367900	1.295866	2.464352	-1.352186	3.669987	4.290202	61.669010	-66.614466	133.376820			
38841	14.703664	1.860144	2.363582	-1.372138	3.225633	4.780349	62.127260	-66.749925	133.017326			
38842	14.997189	2.155415	2.369189	-1.328097	3.047610	5.158035	62.620009	-66.892633	132.686945			
38843	15.006549	2.245797	1.920888	-1.681985	2.838067	5.122039	63.061576	-67.024930	132.512715			
38844	15.212005	2.955862	1.292185	-2.132140	2.059796	5.452407	63.411394	-67.121818	132.588693			
38845	15.038500	4.099524	0.928537	-2.146856	0.844084	5.630863	63.521236	-67.172503	133.016697			
38846	14.239940	5.214478	0.092230	-2.449795	-0.686677	5.137295	63.314153	-67.196206	133.829895			
38847	12.447873	6.178202	0.038299	-1.794033	-2.130879	3.802071	62.653406	-67.171945	135.143853			
38848	10.825894	6.975327	0.759945	-0.501770	-3.115344	2.696314	61.588336	-67.093146	136.903009			
38849	8.128018	7.056796	0.999641	0.479442	-3.878709	0.266391	60.245058	-66.982508	138.923440			
38850	6.406432	6.887231	2.018938	1.853493	-3.848689	-1.192684	58.905892	-66.927110	140.782898			
38851	5.228582	6.571142	2.856845	2.865057	-3.592315	-2.225459	57.421828	-66.958516	142.512772			
38852	5.283042	5.984486	3.519497	3.252626	-2.865382	-2.241626	55.795127	-67.067876	144.125522			
38853	5.701882	5.412850	3.349156	2.766261	-2.397425	-2.090863	53.959320	-67.226214	145.804741			
38854	5.857180	4.978882	3.238937	2.453841	-2.109270	-2.124054	51.974824	-67.418688	147.494452			
38855	6.592466	4.403967	3.337177	2.097826	-1.513900	-1.609148	49.800821	-67.589823	149.252879			
38856	6.955547	3.953241	3.422289	1.877759	-1.125709	-1.390991	47.482977	-67.677630	151.134043			
38857	7.278137	3.608219	3.440716	1.635545	-0.866802	-1.187073	45.281548	-67.716384	152.929584			
38858	7.894451	3.322561	3.462187	1.317999	-0.603879	-0.688790	43.382239	-67.746252	154.464715			
38859	8.574785	2.932711	3.055357	0.574220	-0.365987	-0.273376	41.853612	-67.788367	155.664556			
38860	9.116637	2.700564	2.659739	-0.060032	-0.275421	0.056475	40.669142	-67.825324	156.551324			
38861	9.442645	2.485496	2.259130	-0.616349	-0.218374	0.188162	39.671038	-67.817813	157.286842			
38862	9.117246	2.548467	2.076624	-0.683815	-0.432280	-0.154712	38.823106	-67.727391	157.960134			
38863	8.628006	2.425684	2.169831	-0.495966	-0.395394	-0.613119	38.081202	-67.570587	158.609261			
38864	8.340211	1.969055	2.486000	-0.258754	0.062697	-0.893863	37.439475	-67.403993	159.204765			
38865	8.065530	1.572596	2.968367	0.141293	0.520305	-1.092241	36.798744	-67.250043	159.871783			
38866	7.657665	1.428871	3.531409	0.726384	0.746737	-1.323463	36.093680	-67.117697	160.625462			
38867	7.326572	1.392376	3.942010	1.174469	0.832815	-1.501029	35.297268	-67.003849	161.506631			
38868	7.125003	1.277461	3.921310	1.171339	0.875252	-1.711085	34.469475	-66.909415	162.472978			
38869	6.861338	1.401704	3.892897	1.243999	0.682795	-1.927040	33.591622	-66.791453	163.542756			
38870	6.303799	1.505409	3.107213	0.748875	0.243652	-2.668559	32.740892	-66.635189	164.653038			
38871	5.787649	1.743043	2.598630	0.527635	-0.222587	-3.258305	32.035472	-66.475503	165.722016			
38872	5.698629	1.753312	2.802162	0.722590	-0.194719	-3.267424	31.455985	-66.336902	166.685652			
38873	5.676275	1.670944	3.287609	1.117142	0.023599	-3.136468	30.887853	-66.227795	167.590469			
38874	5.454124	1.495341	3.597217	1.409049	0.256158	-3.264986	30.274303	-66.117097	168.484582			
38875	5.443260	1.219422	3.644572	1.358636	0.510076	-3.309393	29.594726	-66.028332	169.357960			
38876	5.338694	0.677846	3.535104	1.135347	0.949566	-3.546323	28.915107	-65.972071	170.181574			
38877	5.121175	0.392854	3.362194	0.977691	1.117109	-3.856075	28.204803	-65.940786	170.974992			
38878	5.246339	-0.021183	3.301559	0.749010	1.464432	-3.836137	27.475614	-65.982500	171.704228			
38879	5.121993	-0.403212	3.470464	0.837165	1.841287	-3.951780	26.712959	-66.080682	172.393254			
38880	5.238411	-0.650158	3.628571	0.868198	2.099593	-3.823698	25.984308	-66.258006	172.973525			
38881	5.616655	-0.774738	3.957530	0.991354	2.310486	-3.371588	25.322373	-66.515122	173.448206			
38882	5.907260	-0.753125	4.628867	1.505341	2.488740	-2.853580	24.710851	-66.846967	173.853717			
38883	6.330019	-0.657155	5.025044	1.761945	2.503788	-2.304141	24.050801	-67.209878	174.266458			
38884	6.809592	-0.626715	5.201916	1.796174	2.501564	-1.791548	23.293115	-67.569384	174.704975			
38885	7.351409	-0.410593	5.545906	2.012263	2.363366	-1.133200	22.393641	-67.901926	175.205782			
38886	8.060957	-0.221242	5.524451	1.836404	2.128801	-0.450921	21.434132	-68.184897	175.741249			
38887	9.057380	0.031121	5.147806	1.246449	1.730691	0.384741	20.493835	-68.382019	176.366169			
38888	10.182958	-0.060579	4.456025	0.220326	1.574305	1.188454	19.601692	-68.477830	177.056389			
38889	11.346093	-0.447666	4.485264	-0.273659	1.913129	2.242046	18.841515	-68.478859	177.748371			
38890	12.366340	-0.684256	5.044201	-0.217464	2.265734	3.365231	18.347741	-68.443882	178.254852			
38891	13.085106	-0.508908	5.176876	-0.326976	2.119205	4.104248	18.273842	-68.427329	178.432319			
38892	13.411787	0.089655	4.920252	-0.520582	1.488052	4.386170	18.635083	-68.437538	178.227529			
38893	12.993786	0.217262	4.805178	-0.434200	1.365960	3.968490	19.161009	-68.448081	177.792660			
38894	12.292777	-0.394803	5.884302	0.624971	2.296033	3.612320	19.504246	-68.455055	177.367104			
38895	12.738338	-0.555301	7.928476	2.241418	3.059578	4.714850	19.356604	-68.397938	177.302496			
38896	14.351918	-1.593293	8.436820	1.806953	4.179703	6.279559	18.644332	-68.231508	177.804564			
38897	16.112940	-2.306954	6.738133	-0.605908	4.318438	7.255823	17.821298	-68.011140	178.732636			
38898	16.761885	-1.976220	4.614502	-2.737377	3.317221	7.147899	17.407040	-67.810333	179.697327			
38899	15.160321	0.479845	4.934869	-1.277991	1.017754	6.053899	17.449754	-67.499254	-179.571393			
38900	13.792140	2.775264	4.982620	-0.157269	-1.141015	5.067644	17.746702	-67.080782	-179.162432			
38901	13.228687	5.680085	5.096377	0.920258	-3.819852	4.945206	18.144773	-66.562188	-178.988598			
38902	12.219984	7.041191	4.460859	1.064879	-5.264270	3.969815	18.490626	-65.859450	-178.960496			
38903	9.333327	6.911969	3.967436	1.662366	-5.243250	1.158665	19.001422	-65.185575	-179.101316			
38904	7.204424	6.999187	5.015586	3.400274	-4.902668	-0.302182	19.728483	-64.799625	-179.631688			
38905	7.472323	6.311902	5.168481	3.162548	-4.152895	-0.058696	20.524958	-64.732044	179.464687			
38906	8.212612	5.615890	4.356370	1.927874	-3.726181	0.205388	21.360048	-64.858232	178.303994			
38907	8.510792	4.986647	3.167417	0.600603	-3.482942	-0.074060	22.204626	-65.085111	177.060258			
38908	8.280732	4.200271	2.301978	-0.259490	-2.982691	-0.727104	23.007351	-65.355652	175.878050			
38909	7.960711	3.300488	1.928643	-0.681512	-2.217289	-1.291848	23.735908	-65.633219	174.840983			
38910	8.040318	2.208596	2.021869	-0.909318	-1.110225	-1.353794	24.348719	-65.888685	173.977550			
38911	8.130875	1.505950	2.387749	-0.792260	-0.290840	-1.247177	24.820764	-66.060462	173.349675			
38912	8.115173	1.285255	2.657617	-0.589289	0.029635	-1.197431	25.207671	-66.148583	172.899666			
38913	8.246853	1.077022	2.422428	-0.895020	0.180218	-1.198447	25.589040	-66.156540	172.579473			
38914	8.636790	1.363690	2.433081	-0.963123	-0.042723	-0.788044	26.013993	-66.104501	172.321415			
38915	8.405681	1.704911	2.523077	-0.700352	-0.321230	-0.905704	26.490191	-66.062039	172.051762			
38916	8.131083	2.008660	2.850741	-0.209751	-0.481776	-0.980944	27.144520	-66.147553	171.609373			
38917	8.475293	2.032752	2.970038	-0.203195	-0.403146	-0.615969	27.949669	-66.390433	170.981624			
38918	8.255866	1.874674	2.794767	-0.261071	-0.281944	-0.905593	28.829525	-66.716979	170.258223			
38919	8.178766	2.129546	2.829098	-0.060905	-0.469209	-0.912885	29.791988	-67.133473	169.401017			
38920	7.613698	1.866828	2.271577	-0.337550	-0.410918	-1.668354	30.734096	-67.575378	168.493444			
38921	7.664873	2.274851	2.044103	-0.368517	-0.828778	-1.610225	31.681134	-67.989548	167.583696			
38922	6.756122	2.497924	1.663249	-0.246324	-1.207305	-2.523473	32.546160	-68.353694	166.719358			
38923	6.381777	2.760025	1.560248	-0.078382	-1.493032	-2.845357	33.293515	-68.664203	165.976887			
38924	6.347741	2.876063	1.552136	0.004800	-1.585454	-2.851308	34.002838	-69.004509	165.214562			
38925	7.081613	2.310980	1.528535	-0.388785	-0.977487	-2.281459	34.731955	-69.349288	164.387843			
38926	7.975223	1.783252	1.919914	-0.446497	-0.241217	-1.433402	35.475888	-69.634026	163.544055			
38927	8.488216	1.122831	1.933590	-0.752818	0.458738	-1.079305	36.173625	-69.829280	162.751614			
38928	8.657098	0.619143	1.630742	-1.196736	0.873692	-1.106805	36.788658	-69.884796	162.093085			
38929	8.217007	0.206223	1.597645	-1.194133	1.230571	-1.616720	37.308656	-69.803538	161.620790			
38930	7.640414	0.436309	1.879438	-0.690884	1.077660	-2.037095	37.890171	-69.684399	161.162109			
38931	7.455695	0.774148	2.014498	-0.416561	0.819198	-2.105535	38.547973	-69.589433	160.625984			
38932	7.403387	0.758839	1.919092	-0.491684	0.827955	-2.187628	39.234878	-69.496892	160.028299			
38933	7.267720	0.701251	1.744424	-0.621791	0.839549	-2.378783	39.987164	-69.399944	159.359877			
38934	7.116240	0.906816	1.876762	-0.392871	0.713901	-2.442390	40.803730	-69.292045	158.603159			
38935	7.237406	0.684702	1.786339	-0.576222	0.946286	-2.409161	41.763515	-69.198900	157.680213			
38936	7.736060	0.558404	1.928141	-0.641250	1.230661	-1.941843	42.871685	-69.114767	156.616028			
38937	8.219443	0.459870	1.996306	-0.757101	1.471419	-1.505018	44.000750	-69.003913	155.557526			
38938	8.557899	0.466670	1.782528	-1.051295	1.500576	-1.252573	45.098360	-68.856349	154.592187			
38939	8.627165	0.662142	1.399186	-1.362628	1.253806	-1.245597	46.071131	-68.655694	153.797725			
38940	8.569236	0.967828	1.292518	-1.358791	0.981404	-1.255271	46.920302	-68.419231	153.138510			
38941	8.408049	1.382168	1.598570	-0.922870	0.738661	-1.224116	47.626950	-68.174419	152.558656			
38942	8.073278	1.663824	2.112859	-0.283640	0.661100	-1.333737	48.229391	-67.934627	152.021746			
38943	7.910056	1.992514	2.702383	0.381666	0.593883	-1.248609	48.787744	-67.723817	151.465497			
38944	8.047202	2.467129	3.334053	1.032834	0.460360	-0.830411	49.321327	-67.558065	150.865749			
38945	8.387680	2.667266	3.222310	0.874149	0.334518	-0.486667	49.768146	-67.445149	150.287945			
38946	8.868745	2.635367	2.679822	0.219921	0.283513	-0.187074	50.133319	-67.388536	149.770743			
38947	9.265631	2.274471	2.536032	-0.138311	0.655695	0.036552	50.379737	-67.387502	149.355695			
38948	9.573175	1.669989	2.386488	-0.533555	1.223645	0.104361	50.549090	-67.437735	148.975187			
38949	9.973368	0.958496	2.308007	-0.913653	1.928581	0.245117	50.697626	-67.542494	148.561268			
38950	10.450967	0.316747	2.199392	-1.308639	2.576172	0.473759	50.913555	-67.696025	148.029600			
38951	11.092172	-0.142655	2.122755	-1.652814	3.106887	0.919402	51.311425	-67.923103	147.299324			
38952	11.756878	0.017810	3.024588	-0.916871	3.416610	1.800151	51.897214	-68.208896	146.387336			
38953	12.349880	-0.034816	3.213693	-0.842054	3.663097	2.382406	52.591927	-68.510004	145.410689			
38954	13.631666	0.601180	3.685376	-0.528416	3.518230	3.866048	53.311925	-68.763592	144.575007			
38955	15.000903	1.502712	2.802887	-1.421812	2.703853	5.214240	53.986184	-68.948709	144.007612			
38956	15.995572	3.183921	2.114335	-1.823851	1.157788	6.490647	54.611968	-69.128530	143.662296			
38957	16.027805	4.342258	1.113006	-2.363214	-0.233422	6.659857	55.106212	-69.338189	143.535568			
38958	16.523532	5.182380	0.862616	-2.411102	-1.006480	7.327935	55.494422	-69.618033	143.613561			
38959	16.462055	5.765842	-0.093174	-2.996865	-1.941680	7.260683	55.669303	-69.968606	143.989217			
38960	16.195734	6.142617	-0.985873	-3.524864	-2.757159	6.949677	55.315484	-70.317136	144.931760			
38961	13.861116	6.710493	-0.741860	-2.420076	-3.779684	4.937448	54.012790	-70.563932	146.888331			
38962	11.408392	7.305383	0.531327	-0.360922	-4.437580	2.992705	52.201982	-70.733931	149.442673			
38963	8.681778	7.355803	1.579628	1.401034	-4.651009	0.597914	50.242056	-70.836764	152.132561			
38964	7.225808	7.436458	2.172406	2.403794	-4.791736	-0.675236	48.273738	-70.905905	154.646241			
38965	7.380112	7.502084	2.282448	2.484700	-4.864006	-0.532398	46.286550	-70.984564	156.814153			
38966	8.697581	7.611756	2.645289	2.435821	-4.749021	0.774876	44.266440	-71.092042	158.788135			
38967	9.357803	7.659418	3.319582	2.815989	-4.575078	1.518306	42.000337	-71.186624	160.780396			
38968	9.223587	7.146027	3.654584	2.921674	-4.140490	1.314485	39.749789	-71.260187	162.564820			
38969	9.854930	6.278697	3.570268	2.301240	-3.471382	1.673835	37.774656	-71.371543	163.929326			
38970	10.028403	5.012024	3.166450	1.423457	-2.576435	1.458966	36.194320	-71.505215	164.869135			
38971	10.002951	3.409741	3.088739	0.819098	-1.223713	1.098624	35.058370	-71.656055	165.405893			
38972	9.449087	2.253504	2.844388	0.404370	-0.346893	0.295229	34.305476	-71.826039	165.630406			
38973	9.121706	1.648495	2.791250	0.282002	0.130448	-0.137076	33.778112	-71.968077	165.706062			
38974	9.151331	1.184048	2.442026	-0.170087	0.417577	-0.278069	33.328252	-72.061271	165.756774			
38975	9.077269	1.134592	2.103506	-0.467466	0.317877	-0.443098	32.706176	-72.049171	166.045860			
38976	8.884392	1.524111	2.139340	-0.283848	-0.082594	-0.552855	31.815550	-71.888073	166.679303			
38977	7.994510	1.478739	1.564446	-0.597609	-0.327448	-1.561531	30.740278	-71.541512	167.628953			
38978	6.697327	1.322246	1.243818	-0.593209	-0.401901	-2.910818	29.814752	-71.064358	168.666788			
38979	5.911221	0.941653	1.501602	-0.279075	-0.029857	-3.647866	29.098127	-70.602771	169.609337			
38980	5.891005	0.539735	2.436892	0.398886	0.643024	-3.459664	28.582607	-70.222321	170.417577			
38981	5.809447	0.139909	3.266291	0.997899	1.282622	-3.347649	28.023459	-69.838138	171.259794			
38982	5.109249	-0.141921	3.352090	1.173150	1.532825	-4.013122	27.470636	-69.406235	172.153871			
38983	4.192967	-0.133233	3.119998	1.237218	1.399506	-4.929699	27.070361	-68.984473	172.986626			
38984	3.911456	0.241264	3.358626	1.620474	1.125120	-5.043402	26.750600	-68.619340	173.740583			
38985	3.878472	0.410164	3.762122	2.002320	1.114687	-4.902248	26.338845	-68.315204	174.485496			
38986	4.190530	0.568889	3.926756	2.050759	1.036081	-4.518878	25.817867	-68.072084	175.263733			
38987	4.401159	0.749637	3.912694	1.991457	0.858974	-4.286612	25.131367	-67.850742	176.131740			
38988	4.476646	0.973985	3.423843	1.590534	0.455238	-4.337782	24.381542	-67.661510	177.035758			
38989	5.038345	1.196248	3.222139	1.262644	0.164117	-3.848053	23.739924	-67.595600	177.766660			
38990	5.438077	1.164735	3.351699	1.211142	0.225816	-3.437323	23.238427	-67.672665	178.261755			
38991	5.845038	1.370321	3.607448	1.364555	0.111349	-2.943815	22.821354	-67.918037	178.486011			
38992	6.516716	0.957540	3.411720	0.845419	0.406757	-2.454437	22.441883	-68.306619	178.482170			
38993	6.970640	0.687718	3.511562	0.736018	0.673127	-2.041036	22.068849	-68.782580	178.345523			
38994	7.493801	0.320496	4.053251	0.980947	1.182574	-1.426560	21.672044	-69.307510	178.112035			
38995	8.104801	0.177025	4.721412	1.403944	1.513081	-0.661220	21.231310	-69.840875	177.846077			
38996	8.659835	0.046936	5.366400	1.850847	1.804719	0.041718	20.701881	-70.342620	177.634326			
38997	9.202041	-0.032506	5.650788	2.006312	1.916503	0.623331	20.088027	-70.809544	177.529689			
38998	10.032310	-0.282657	5.586493	1.709450	2.085424	1.352601	19.491596	-71.238423	177.518960			
38999	11.064804	-0.447103	4.901841	0.800934	2.005847	2.103365	19.011038	-71.550247	177.628438			
39000	11.740172	-0.761991	3.595091	-0.630055	1.908539	2.323922	18.671000	-71.703885	177.815982			
39001	11.714389	-0.884378	3.265675	-0.943415	1.914778	2.192197	18.533965	-71.658971	178.030214			
39002	11.334877	-0.337568	3.842976	-0.178993	1.550020	2.058584	18.592730	-71.473805	178.163699			
39003	11.311264	0.108739	3.933242	-0.017320	1.158206	2.107250	18.792244	-71.231168	178.186303			
39004	11.506687	0.663033	4.412483	0.449728	0.790300	2.495289	19.076451	-70.960970	178.092098			
39005	11.591696	0.958175	4.738465	0.742622	0.625395	2.709122	19.267750	-70.725443	177.944128			
39006	11.722766	1.010380	5.514964	1.367464	0.814159	3.084055	19.225515	-70.524235	177.842637			
39007	11.659297	0.833270	6.461359	2.148259	1.240479	3.310902	18.824578	-70.301936	177.969082			
39008	12.501951	1.644135	7.643359	3.082446	0.759868	4.586715	17.990758	-69.947991	178.546662			
39009	14.454494	3.094434	6.089510	1.281825	-1.157530	6.080838	16.741392	-69.437836	179.630073			
39010	17.207070	2.603336	4.211468	-1.652041	-1.344466	7.965285	15.375841	-68.939391	-179.174971			
39011	16.298674	0.892907	4.457752	-1.690385	0.239123	7.021763	14.299241	-68.520460	-178.245399			
39012	14.218949	3.005321	3.692355	-1.172623	-2.056198	4.994069	13.924331	-68.136015	-177.823189			
39013	13.908949	5.668619	2.910459	-1.173610	-4.845834	4.651130	14.050701	-67.582951	-177.812648			
39014	12.784926	6.143247	3.843332	0.055594	-5.020567	3.998661	14.206010	-66.904022	-178.045096			
39015	9.857165	5.206987	3.317354	0.347655	-4.219530	1.020345	14.349159	-66.341784	-178.449069			
39016	6.521887	4.655336	4.184202	2.216081	-3.413446	-1.741023	14.622654	-66.079580	-179.069916			
39017	5.405209	3.898078	4.885086	3.061901	-2.495756	-2.555188	14.923615	-66.147852	-179.885327			
39018	5.790622	2.946752	4.485926	2.330606	-1.696223	-2.462230	15.113338	-66.464915	179.273491			
39019	6.946516	2.074736	3.418455	0.756338	-1.122372	-1.912529	15.227874	-66.878986	178.597163			
39020	8.262159	1.063014	2.579111	-0.678810	-0.325969	-1.124894	15.357249	-67.269398	178.106969			
39021	9.274505	0.755704	2.262581	-1.362653	-0.074718	-0.334074	15.631353	-67.606192	177.726498			
39022	9.708137	0.816392	2.027904	-1.673271	-0.160356	-0.004476	16.046892	-67.888128	177.344262			
39023	10.528393	0.567366	1.591185	-2.385917	0.021616	0.579981	16.575498	-68.076335	176.906606			
39024	11.087806	0.691769	1.454464	-2.666874	-0.086702	1.069114	17.125301	-68.132663	176.465991			
39025	10.617553	0.975790	1.687059	-2.216886	-0.281850	0.748403	17.695672	-68.094573	176.013393			
39026	9.905889	1.192245	2.203525	-1.444544	-0.349729	0.296441	18.249381	-68.035014	175.609013			
39027	9.570279	1.429801	3.148223	-0.420318	-0.324523	0.349193	18.764283	-68.003490	175.292770			
39028	9.199409	1.489621	3.751612	0.283999	-0.212346	0.227076	19.222652	-68.096095	175.042445			
39029	9.278164	1.534587	3.370281	-0.046712	-0.322008	0.171899	19.683748	-68.336199	174.811247			
39030	9.299256	1.496187	2.845780	-0.482351	-0.395509	0.006872	20.122310	-68.675904	174.618957			
39031	9.344472	1.381178	2.547604	-0.731335	-0.342261	-0.062573	20.540033	-69.035924	174.458434			
39032	8.362018	1.549767	1.920972	-0.849443	-0.686867	-1.162736	21.045710	-69.347625	174.246839			
39033	7.600194	1.929094	1.254833	-1.045588	-1.236579	-2.038605	21.768276	-69.598494	173.853736			
39034	7.138459	2.499174	1.064772	-0.870074	-1.821864	-2.446505	22.821790	-69.882494	173.144302			
39035	6.966157	2.568139	1.209459	-0.613065	-1.812502	-2.537795	24.037113	-70.168660	172.213729			
39036	6.920853	2.373511	1.086701	-0.710496	-1.617394	-2.629963	25.332906	-70.443909	171.171321			
39037	7.529425	2.309153	1.385156	-0.610958	-1.388534	-1.961485	26.624250	-70.694879	170.089691			
39038	7.759147	1.919178	1.350035	-0.780025	-0.966565	-1.802240	27.712655	-70.858853	169.155854			
39039	7.800123	1.434137	1.439759	-0.816085	-0.435482	-1.805453	28.577993	-70.908058	168.450877			
39040	7.430184	1.061853	1.759571	-0.500741	0.023302	-2.119839	29.215908	-70.831352	167.970412			
39041	6.581224	0.730863	1.540714	-0.521623	0.238720	-3.038372	29.799000	-70.733407	167.532375			
39042	6.065767	0.790543	1.506820	-0.374115	0.158336	-3.525883	30.430649	-70.677651	167.023990			
39043	5.996980	1.237461	1.868237	0.098526	-0.135584	-3.412902	31.020626	-70.664954	166.482097			
39044	6.300303	1.160693	1.960075	0.068098	0.009217	-3.113570	31.518113	-70.676732	165.947628			
39045	7.117493	1.104890	2.227802	0.040567	0.229359	-2.276885	31.969891	-70.700445	165.405076			
39046	7.835174	1.036867	2.345036	-0.092802	0.410190	-1.579381	32.456609	-70.707883	164.852429			
39047	8.586625	1.192375	2.443014	-0.195797	0.383487	-0.816314	33.005304	-70.684801	164.304430			
39048	9.589164	1.099750	2.508011	-0.481149	0.611928	0.129424	33.544807	-70.605542	163.840765			
39049	9.922139	1.044267	2.412292	-0.703787	0.697779	0.403777	33.983169	-70.434732	163.571373			
39050	9.745312	0.971664	2.225322	-0.862317	0.720796	0.167494	34.365288	-70.239514	163.393823			
39051	9.305879	0.873345	1.893603	-1.072606	0.692429	-0.361878	34.763675	-70.072829	163.192659			
39052	8.876512	1.110566	1.819147	-0.950978	0.428969	-0.743692	35.214503	-69.958610	162.907511			
39053	8.643715	1.209413	1.926571	-0.756938	0.374802	-0.914672	35.726265	-69.893347	162.490497			
39054	8.807717	1.147992	2.103632	-0.666562	0.537236	-0.725002	36.297029	-69.860985	161.946735			
39055	9.059218	0.902550	2.235569	-0.691542	0.870644	-0.504334	36.917753	-69.841392	161.313395			
39056	9.487186	0.596903	2.181379	-0.955130	1.223792	-0.184015	37.602940	-69.824030	160.617306			
39057	9.658312	0.448219	2.214331	-1.011260	1.433405	-0.050018	38.287329	-69.798028	159.922194			
39058	9.381863	0.332130	2.437763	-0.741302	1.621804	-0.278934	38.926420	-69.764585	159.243941			
39059	9.217801	0.439316	2.672307	-0.434888	1.614736	-0.351955	39.545284	-69.743356	158.531318			
39060	9.305252	0.785001	2.771748	-0.264746	1.369153	-0.172057	40.124239	-69.724117	157.802104			
39061	9.232826	1.015367	2.523637	-0.392742	1.096488	-0.258204	40.669604	-69.679167	157.081446			
39062	9.429092	1.060705	2.240792	-0.691603	1.024078	-0.141759	41.241728	-69.628343	156.372398			
39063	9.677698	0.907123	2.103138	-0.927842	1.195088	0.016588	41.827123	-69.581813	155.696086			
39064	9.794631	0.366798	1.928502	-1.252166	1.699200	-0.048820	42.468911	-69.577484	154.989692			
39065	10.046771	-0.017206	1.805428	-1.519512	2.094760	0.061538	43.233829	-69.635565	154.190567			
39066	10.344983	0.223154	2.359780	-1.003277	2.132925	0.535296	44.156616	-69.770224	153.260320			
39067	10.867911	0.534296	2.572505	-0.828798	2.033972	1.150443	45.178449	-69.978722	152.179096			
39068	11.280407	0.676772	2.095568	-1.281606	1.858862	1.456675	46.237120	-70.193784	151.092320			
39069	12.206759	1.207985	1.727637	-1.691882	1.437925	2.374129	47.046700	-70.332841	150.319392			
39070	12.833334	1.835392	1.570105	-1.818462	0.935431	3.084850	47.501555	-70.364774	150.064286			
39071	13.341862	2.569819	2.086236	-1.285585	0.514963	3.863705	47.693302	-70.362513	150.261674			
39072	13.298746	3.328220	1.825944	-1.297516	-0.285090	3.953318	47.800119	-70.392959	150.773060			
39073	13.489110	4.208757	1.228762	-1.625831	-1.290835	4.218343	47.868275	-70.469743	151.548367			
39074	13.275386	5.448121	0.158542	-2.115048	-2.881690	4.085688	47.888301	-70.557940	152.582298			
39075	13.137389	6.334116	-0.470262	-2.287411	-4.002792	4.032082	47.696312	-70.624795	153.856452			
39076	12.429070	7.049752	-0.519633	-1.804369	-4.844772	3.518566	47.187368	-70.599527	155.501511			
39077	10.639781	8.200824	0.529763	0.140398	-5.764636	2.331769	46.423765	-70.473639	157.357340			
39078	9.334193	8.639737	1.215012	1.366845	-6.065606	1.349227	45.641054	-70.330690	159.032048			
39079	7.907011	9.089913	1.780781	2.520438	-6.408546	0.232030	44.838196	-70.212338	160.378407			
39080	7.985219	8.948680	2.409399	2.994649	-6.024681	0.404107	43.958339	-70.191548	161.302684			
39081	8.737182	8.613825	3.160773	3.248307	-5.378058	1.189632	42.897682	-70.247885	162.023430			
39082	9.238254	7.472045	3.268306	2.696758	-4.358481	1.393930	41.529712	-70.328384	162.751394			
39083	9.632019	6.286723	4.048773	2.748506	-3.052335	1.668520	39.876841	-70.391337	163.586218			
39084	10.002170	5.016372	4.261948	2.304267	-1.926622	1.778168	38.100918	-70.477436	164.446839			
39085	10.492141	3.808397	4.116306	1.561613	-0.982070	1.940105	36.389639	-70.568329	165.300415			
39086	11.002662	2.691866	3.971634	0.878183	-0.091563	2.158025	34.939622	-70.674063	166.058784			
39087	11.983711	1.852102	3.601270	-0.040054	0.526038	2.825736	33.735484	-70.777952	166.711939			
39088	12.467999	1.001627	3.118902	-0.896214	1.097028	3.000378	32.630750	-70.809057	167.405420			
39089	11.893739	0.686959	2.413741	-1.459201	1.034318	2.210608	31.684335	-70.713532	168.209792			
39090	11.209510	1.222766	2.356348	-1.164093	0.413784	1.640429	30.828176	-70.510261	169.119661			
39091	9.763621	1.288004	2.385126	-0.702688	0.225636	0.293295	29.971824	-70.194046	170.160567			
39092	8.427571	1.448535	2.782356	0.081390	0.099375	-0.821206	29.110639	-69.818899	171.324638			
39093	7.393027	1.391490	3.146881	0.673519	0.196248	-1.688440	28.238918	-69.421624	172.556971			
39094	6.499034	1.244807	3.128735	0.860938	0.257862	-2.548534	27.374900	-69.014383	173.824462			
39095	6.068414	0.932318	3.241009	0.952429	0.549048	-2.957753	26.581722	-68.617859	175.010242			
39096	5.952501	0.421211	3.096576	0.643607	0.943692	-3.187477	25.894441	-68.250734	176.060667			
39097	5.693939	0.013450	2.919984	0.396482	1.228957	-3.545338	25.372131	-67.888592	176.946426			
39098	5.840882	-0.278430	3.203305	0.431968	1.596332	-3.353627	24.990522	-67.533004	177.713652			
39099	5.805296	-0.094172	3.459644	0.676573	1.516713	-3.261272	24.688791	-67.169671	178.438737			
39100	5.590918	0.438813	3.538221	0.968947	1.051566	-3.337728	24.447614	-66.850385	179.131884			
39101	5.343316	1.213036	3.667382	1.418402	0.390682	-3.385592	24.139018	-66.554641	179.874413			
39102	5.465475	1.511662	3.666618	1.447187	0.112069	-3.217718	23.720394	-66.295833	-179.345162			
39103	5.690562	1.879835	3.570269	1.389399	-0.278045	-2.982220	23.193135	-66.092402	-178.551350			
39104	5.770413	2.081905	3.323376	1.208954	-0.588461	-2.966603	22.530684	-65.906157	-177.736223			
39105	5.515201	2.066774	2.829154	0.882697	-0.805610	-3.388914	21.855161	-65.773618	-177.018454			
39106	5.761160	1.874372	2.734987	0.625300	-0.703169	-3.232499	21.292181	-65.785871	-176.483272			
39107	5.860938	1.414480	2.869835	0.525233	-0.255182	-3.160901	20.835002	-65.882499	-176.102513			
39108	5.966137	0.893064	3.298145	0.650558	0.374526	-2.978467	20.477835	-66.034316	-175.819096			
39109	5.846020	0.449847	3.475115	0.697579	0.841222	-3.085103	20.232285	-66.253858	-175.640713			
39110	5.863124	0.227299	3.895077	0.984605	1.207570	-2.944519	20.061268	-66.538801	-175.524008			
39111	6.078475	0.050679	4.159696	1.090398	1.465115	-2.677016	19.935095	-66.873100	-175.457472			
39112	6.452268	0.106381	4.377467	1.194003	1.488203	-2.251954	19.821802	-67.239314	-175.405261			
39113	6.973796	0.120429	4.407472	1.077156	1.468177	-1.765448	19.704941	-67.631630	-175.376176			
39114	7.708009	0.093981	4.549910	0.970124	1.523711	-1.045664	19.567510	-68.044105	-175.360717			
39115	8.313944	0.083098	4.833877	1.049564	1.624482	-0.391755	19.422593	-68.455406	-175.400636			
39116	8.867745	0.014590	4.978716	1.020046	1.720421	0.158463	19.232152	-68.868640	-175.482734			
39117	9.316523	-0.177623	4.926496	0.824060	1.848749	0.531487	18.946818	-69.271985	-175.571488			
39118	9.761734	-0.503437	4.875016	0.585756	2.093665	0.891680	18.512365	-69.641589	-175.553212			
39119	10.077120	-0.849287	4.883172	0.432628	2.374160	1.155024	17.901444	-69.907568	-175.349594			
39120	10.110690	-1.138191	4.415449	-0.032894	2.424529	1.010344	17.260962	-70.070954	-174.967319			
39121	10.166502	-1.315824	3.880217	-0.543782	2.352316	0.879178	16.721867	-70.199468	-174.544018			
39122	10.498843	-1.224332	4.021816	-0.474427	2.285669	1.253038	16.445173	-70.310343	-174.213355			
39123	10.948546	-1.035484	4.151866	-0.425450	2.136777	1.738677	16.466240	-70.416749	-174.098344			
39124	11.564436	-0.960937	4.025419	-0.696814	2.011359	2.284106	16.765220	-70.531017	-174.255117			
39125	11.964457	-0.640857	4.078929	-0.647403	1.753202	2.705443	17.303615	-70.645028	-174.697772			
39126	11.773544	-0.707126	4.112578	-0.561668	1.877160	2.523854	17.946673	-70.739585	-175.315916			
39127	11.146919	-0.917968	4.559434	-0.030964	2.303561	2.043847	18.549163	-70.794548	-175.931778			
39128	10.477577	-1.028397	5.924328	1.339677	2.975521	1.818579	18.955483	-70.787207	-176.321320			
39129	10.514670	-0.476694	7.688447	3.050021	3.154098	2.461135	18.986754	-70.684693	-176.254588			
39130	11.916396	0.043308	7.594540	2.659066	2.598871	3.820155	18.600163	-70.508826	-175.680121			
39131	14.962592	0.221528	6.351333	0.567107	1.835446	6.329687	17.967479	-70.233840	-174.712356			
39132	16.305910	-0.221092	3.958703	-2.207580	1.197390	6.779311	17.429135	-69.909028	-173.737925			
39133	14.828076	0.818345	3.673453	-1.634379	0.131582	5.397400	17.364318	-69.634741	-173.187011			
39134	12.941531	3.278443	4.027655	0.214243	-1.896961	4.000663	17.795315	-69.337799	-173.207446			
39135	12.341209	6.359630	2.359668	0.168604	-5.321495	3.224607	18.581741	-68.935741	-173.556999			
39136	12.319996	7.279295	1.857443	0.034198	-6.318910	3.159957	19.229329	-68.317527	-173.880332			
39137	10.401499	7.259149	2.539239	1.187442	-5.900193	1.637666	19.856371	-67.636437	-174.207792			
39138	8.519204	6.839019	4.304227	3.100963	-4.650685	0.513476	20.678750	-67.207600	-174.882990			
39139	7.754810	6.161714	4.384678	3.126316	-3.928346	-0.214614	21.581750	-67.048108	-175.902321			
39140	7.836979	5.958016	3.702164	2.410681	-4.001670	-0.389455	22.350275	-67.112512	-177.129822			
39141	8.229940	4.684645	2.038656	0.351649	-3.526824	-0.797608	22.967969	-67.330012	-178.341669			
39142	8.167447	3.572259	2.084164	-0.015223	-2.462856	-0.995319	23.452036	-67.517696	-179.249910			
39143	7.747967	2.564734	2.206198	-0.122120	-1.465299	-1.487179	23.853610	-67.689386	-179.934474			
39144	7.751016	1.677700	1.890528	-0.701939	-0.759215	-1.725797	24.241351	-67.887313	179.491308			
39145	8.188513	1.216299	1.531293	-1.318212	-0.456312	-1.510279	24.656941	-68.063855	178.992447			
39146	8.888562	1.319468	1.519419	-1.531424	-0.526187	-0.844189	25.089899	-68.155528	178.602696			
39147	9.082684	1.571623	1.435707	-1.574228	-0.765572	-0.649606	25.515517	-68.136127	178.328127			
39148	9.137932	1.967568	1.406994	-1.474119	-1.116576	-0.542684	25.958869	-68.074899	178.130739			
39149	9.332070	2.356558	1.767524	-1.098633	-1.298486	-0.175679	26.406984	-68.014557	177.974781			
39150	9.435355	2.417411	2.191832	-0.753273	-1.150971	0.075776	26.881832	-68.018159	177.799769			
39151	9.499976	2.314753	2.291706	-0.716261	-0.985194	0.156052	27.442419	-68.133911	177.533530			
39152	9.360492	2.300546	2.074359	-0.816096	-1.032529	-0.041206	28.103525	-68.377208	177.157718			
39153	9.215829	2.338078	2.011436	-0.747451	-1.058768	-0.181286	28.816361	-68.697423	176.694908			
39154	9.397706	2.530554	2.189256	-0.523900	-1.112061	0.086898	29.539299	-69.047641	176.173698			
39155	8.888112	2.731924	1.779466	-0.546393	-1.447771	-0.472799	30.205248	-69.351968	175.665429			
39156	8.445205	3.107080	1.609698	-0.332790	-1.838477	-0.864192	30.842734	-69.595250	175.168376			
39157	7.713008	3.566472	1.552095	0.098380	-2.267391	-1.477922	31.454155	-69.797280	174.637942			
39158	7.430043	3.901668	1.820070	0.590543	-2.430575	-1.597784	32.049083	-70.005459	173.996479			
39159	7.661131	3.557794	2.091977	0.629293	-1.970514	-1.359986	32.575359	-70.201511	173.306163			
39160	7.859111	3.193227	2.145154	0.483003	-1.593401	-1.222476	33.020929	-70.364066	172.648998			
39161	8.348090	2.521874	2.308593	0.207558	-0.882252	-0.837245	33.360400	-70.473995	172.080428			
39162	8.586087	1.714232	2.246461	-0.234142	-0.159650	-0.777991	33.581950	-70.518931	171.639948			
39163	8.271773	1.297495	2.055879	-0.454083	0.128792	-1.203995	33.767895	-70.512166	171.293126			
39164	7.867460	1.071209	1.899445	-0.541114	0.255809	-1.670571	33.983844	-70.527918	170.940043			
39165	7.792346	1.016845	1.782722	-0.630589	0.262562	-1.783608	34.240550	-70.584545	170.543836			
39166	8.105113	1.064673	1.799528	-0.688006	0.255848	-1.474471	34.495048	-70.660022	170.141504			
39167	7.914423	1.209643	1.819933	-0.538439	0.135142	-1.620907	34.771882	-70.742079	169.695566			
39168	8.525214	1.531135	1.652470	-0.742536	-0.174218	-1.027897	35.170216	-70.836898	169.112213			
39169	8.716657	1.747388	1.382358	-0.939681	-0.447931	-0.876208	35.689330	-70.920364	168.378283			
39170	9.177204	1.896553	1.394398	-1.005007	-0.516277	-0.406007	36.325348	-70.982854	167.520594			
39171	9.733173	1.904266	1.568601	-1.015752	-0.374129	0.169774	36.972131	-70.993147	166.641147			
39172	10.042156	1.586950	1.450606	-1.332333	-0.071540	0.370004	37.518512	-70.919146	165.911596			
39173	9.823215	1.424582	1.642050	-1.166856	0.171712	0.178817	37.904046	-70.773161	165.394037			
39174	9.673500	1.261679	1.899287	-0.974854	0.438381	0.068259	38.116997	-70.596116	165.058571			
39175	9.406426	1.180396	2.129945	-0.743035	0.600802	-0.143266	38.197354	-70.410539	164.877787			
39176	8.967118	1.143992	2.213638	-0.565756	0.640544	-0.545126	38.218852	-70.256609	164.761123			
39177	8.541468	1.064417	2.511948	-0.212887	0.801422	-0.884534	38.190602	-70.147522	164.665993			
39178	8.324885	0.972942	2.837132	0.099116	0.995591	-1.020724	38.070747	-70.083370	164.616592			
39179	8.310323	0.762051	2.966667	0.137807	1.232227	-1.043086	37.881656	-70.048961	164.588945			
39180	8.398451	0.460383	2.706553	-0.226413	1.403144	-1.091949	37.613283	-70.028398	164.614531			
39181	8.485531	-0.093239	2.212320	-0.879356	1.713438	-1.257096	37.309805	-70.023549	164.670126			
39182	8.524830	-0.423796	2.339561	-0.888089	2.058875	-1.251251	37.053530	-70.040365	164.709507			
39183	8.621296	-0.500761	2.546651	-0.753769	2.209057	-1.117010	36.893428	-70.085891	164.657315			
39184	8.836799	-0.788610	2.170797	-1.236976	2.347752	-1.073053	36.912519	-70.164974	164.470913			
39185	9.108644	-0.640644	2.086409	-1.333362	2.209797	-0.808809	37.126512	-70.241159	164.181487			
39186	9.324490	-0.321047	2.007420	-1.351843	1.918810	-0.562305	37.474602	-70.292487	163.801522			
39187	9.758417	0.040873	2.041665	-1.329397	1.659326	-0.072254	37.920339	-70.319615	163.354277			
39188	10.022068	0.446932	1.957627	-1.343147	1.305299	0.235496	38.430880	-70.336995	162.835624			
39189	10.447659	0.569784	1.812598	-1.556526	1.210659	0.621639	38.963787	-70.338568	162.265957			
39190	10.664090	0.628489	1.552220	-1.826431	1.115220	0.767838	39.522858	-70.335912	161.660436			
39191	10.677455	0.590862	1.484197	-1.890255	1.162549	0.753072	40.121799	-70.341196	161.002265			
39192	10.536596	0.489738	1.624300	-1.739081	1.331322	0.632460	40.747687	-70.337426	160.326502			
39193	10.209419	0.544975	1.707464	-1.529876	1.314116	0.354766	41.424847	-70.325357	159.637931			
39194	9.798024	1.111702	2.387762	-0.596185	1.039740	0.262129	42.141405	-70.320190	158.947795			
39195	9.859861	1.355432	2.622794	-0.310044	0.951249	0.430942	42.871096	-70.341450	158.252302			
39196	10.069312	1.886971	2.561316	-0.243164	0.502713	0.732458	43.443126	-70.330211	157.792262			
39197	10.413536	2.563121	2.841601	0.124283	0.061140	1.280860	43.772487	-70.278915	157.676511			
39198	10.936366	3.040472	2.734374	0.020638	-0.330713	1.858455	43.936715	-70.237043	157.842085			
39199	11.085463	3.680608	2.529435	0.010821	-0.966871	2.099384	44.015700	-70.255048	158.236074			
39200	11.308726	4.406663	2.012617	-0.243505	-1.806242	2.354262	44.039739	-70.360678	158.776637			
39201	11.679151	5.026070	1.490544	-0.557049	-2.552354	2.719692	43.875552	-70.503588	159.577493			
39202	11.639006	5.760078	0.906465	-0.732947	-3.495716	2.705655	43.572848	-70.649553	160.579922			
39203	11.355487	6.225202	0.769210	-0.522392	-4.046255	2.501786	43.149264	-70.790053	161.715894			
39204	10.809213	6.628635	1.250900	0.284827	-4.299692	2.177880	42.499448	-70.873208	163.027358			
39205	9.935673	6.765755	1.501896	0.876584	-4.437740	1.425039	41.673511	-70.896558	164.439056			
39206	9.052664	6.998572	1.963482	1.671075	-4.557909	0.733342	40.652267	-70.869231	165.828193			
39207	9.257071	6.747343	2.547507	2.004677	-4.107739	0.995510	39.518319	-70.877082	167.001562			
39208	9.634022	6.412412	2.688219	1.851847	-3.791505	1.293818	38.314628	-70.904311	167.992322			
39209	9.423606	6.139866	3.320846	2.318769	-3.366350	1.179145	36.943584	-70.901457	168.955472			
39210	9.509583	5.488703	3.723702	2.330797	-2.703241	1.218299	35.472347	-70.860301	169.879954			
39211	9.632858	4.803267	3.968434	2.182753	-2.081946	1.255814	34.020550	-70.792626	170.750203			
39212	9.977352	3.914323	4.142013	1.835485	-1.288840	1.456508	32.759118	-70.745882	171.426973			
39213	10.545217	3.041331	3.992809	1.165029	-0.616283	1.791459	31.766288	-70.742447	171.869129			
39214	11.319309	2.546769	3.748949	0.506599	-0.296229	2.366093	30.980794	-70.770495	172.135666			
39215	11.909075	2.084953	3.156554	-0.375193	-0.136150	2.676406	30.292931	-70.785433	172.346214			
39216	12.170444	1.806616	2.853606	-0.834695	-0.031527	2.790041	29.628099	-70.746266	172.628057			
39217	11.917057	1.780102	2.697230	-0.926631	-0.121830	2.499350	28.861389	-70.585902	173.125612			
39218	11.087228	1.947225	2.724747	-0.621410	-0.347137	1.747390	28.001936	-70.321145	173.826094			
39219	9.549892	1.946854	2.906193	-0.010186	-0.381937	0.350488	27.138445	-69.984694	174.642016			
39220	8.520341	1.987030	3.282970	0.623480	-0.352663	-0.495558	26.346554	-69.654017	175.457277			
39221	7.719670	1.848733	3.494144	0.986354	-0.204512	-1.198446	25.579502	-69.366736	176.248568			
39222	6.893283	1.473163	3.603658	1.200557	0.131111	-1.988675	24.824539	-69.095525	177.023499			
39223	6.692347	1.064831	3.613121	1.101326	0.478095	-2.227549	24.131562	-68.829537	177.750258			
39224	6.781305	0.705873	3.557550	0.859905	0.762212	-2.208746	23.492188	-68.566186	178.446426			
39225	6.585673	0.306395	3.503669	0.707923	1.083929	-2.459836	22.915339	-68.280461	179.123090			
39226	6.348342	0.395870	3.812173	1.052711	1.093904	-2.554187	22.433544	-67.994317	179.757648			
39227	6.565211	0.508597	4.001981	1.134345	1.043212	-2.262765	21.997913	-67.724784	-179.652945			
39228	6.391519	0.753286	3.828871	1.098070	0.734372	-2.441529	21.584597	-67.423250	-179.035874			
39229	5.962319	1.270090	3.614277	1.225046	0.163393	-2.834305	21.223433	-67.135718	-178.443347			
39230	5.783854	1.457408	3.432394	1.178083	-0.090156	-3.033140	20.874610	-66.934700	-177.923220			
39231	6.076288	1.548768	3.599077	1.218798	-0.128881	-2.687296	20.495047	-66.809072	-177.476667			
39232	6.145707	1.411823	3.622827	1.151474	-0.013775	-2.632039	20.074439	-66.751257	-177.088694			
39233	6.247461	1.311677	3.748557	1.179834	0.102564	-2.505132	19.638973	-66.768889	-176.802668			
39234	6.699521	1.011461	3.390000	0.599633	0.209677	-2.263174	19.263394	-66.868159	-176.648509			
39235	6.963377	0.750137	3.363090	0.399335	0.416358	-2.064862	18.958045	-67.027511	-176.629790			
39236	7.147368	0.576150	3.335719	0.270926	0.549628	-1.928002	18.763718	-67.235260	-176.737223			
39237	7.123034	1.183241	3.956958	1.063416	0.197984	-1.650282	18.418029	-67.558013	-177.037746			
39238	7.716050	-0.469313	2.815215	-0.654890	1.302628	-1.715951	18.338345	-67.873084	-177.412610			
39239	7.680843	-0.009670	3.677731	0.306853	1.185479	-1.385265	18.518516	-68.144972	-177.812175			
39240	7.931881	-0.365265	3.753423	0.205423	1.556624	-1.171456	18.861087	-68.420775	-178.224299			
39241	8.020615	-0.149789	4.241969	0.711978	1.547130	-0.899423	19.269209	-68.697357	-178.635038			
39242	8.142100	-0.206735	4.237308	0.688800	1.621331	-0.802252	19.664735	-68.979792	-179.017212			
39243	8.181577	-0.167321	4.319268	0.804709	1.633633	-0.740435	19.988824	-69.264898	-179.383911			
39244	8.273544	-0.211406	4.387871	0.869418	1.713300	-0.644368	20.230701	-69.587315	-179.787783			
39245	8.489324	-0.435204	4.313320	0.710461	1.908143	-0.500505	20.474680	-69.879878	179.807404			
39246	8.651515	-0.303666	4.395030	0.820357	1.825128	-0.312534	20.731847	-70.142452	179.415722			
39247	8.885767	-0.099582	4.231883	0.708778	1.592144	-0.125678	21.040449	-70.385591	179.037119			
39248	8.947474	0.306182	4.209932	0.842021	1.220906	-0.031338	21.376140	-70.621276	178.692086			
39249	9.167090	0.536317	3.975936	0.678247	0.945807	0.125948	21.774600	-70.870321	178.332213			
39250	9.505309	0.703377	3.854227	0.557537	0.773244	0.424096	22.208959	-71.118407	177.958698			
39251	9.828872	0.637718	3.721186	0.355031	0.817194	0.678576	22.660732	-71.327882	177.561512			
39252	9.981763	0.616430	3.692576	0.307461	0.855997	0.809144	23.154782	-71.477795	177.142164			
39253	10.181169	0.674920	3.571195	0.178181	0.792531	0.967164	23.719752	-71.567635	176.680633			
39254	10.323454	0.652812	3.485076	0.063157	0.819960	1.071668	24.326103	-71.614499	176.196168			
39255	10.481795	0.527178	3.807573	0.267219	1.090807	1.295066	24.920659	-71.641309	175.683985			
39256	10.645351	0.362975	4.190610	0.508989	1.417428	1.534039	25.413645	-71.658841	175.204424			
39257	10.687589	0.020463	4.494266	0.659531	1.872218	1.610237	25.770936	-71.669170	174.769943			
39258	10.835714	-0.370548	5.036334	0.974554	2.448990	1.847816	25.939336	-71.669037	174.467341			
39259	11.103970	-0.967708	5.466020	1.085229	3.169060	2.141028	25.911585	-71.655077	174.334736			
39260	11.337191	-1.101277	5.951154	1.398697	3.460968	2.484721	25.664493	-71.593113	174.523384			
39261	11.581512	-0.874326	6.098223	1.502805	3.282492	2.798847	25.131117	-71.463959	175.095801			
39262	12.243628	-0.574368	6.002445	1.254259	2.947155	3.454046	24.398939	-71.247195	176.006674			
39263	13.128589	-0.089651	5.634443	0.719132	2.334336	4.263798	23.611947	-70.910327	177.078897			
39264	13.889704	0.125068	4.695672	-0.399528	1.759946	4.738270	22.983242	-70.496543	178.109221			
39265	13.665295	0.790353	4.416271	-0.471305	0.991832	4.528198	22.546100	-70.011884	178.958203			
39266	12.479468	1.810308	3.334492	-0.786397	-0.390309	3.201196	22.338745	-69.476329	179.520302			
39267	11.249816	3.450603	2.046344	-1.011527	-2.402138	1.843141	22.504894	-68.949352	179.652146			
39268	11.014706	4.670833	2.705512	-0.021932	-3.265679	2.010775	22.876392	-68.422436	179.574448			
39269	10.302442	5.265424	3.301064	0.872072	-3.553988	1.648982	23.370908	-67.889791	179.407773			
39270	9.381329	6.061694	4.205352	2.202868	-3.892181	1.252398	23.989242	-67.501141	179.054579			
39271	9.008183	6.099444	4.550922	2.605564	-3.747019	1.060771	24.544596	-67.330273	178.482885			
39272	8.671133	5.789701	3.972251	2.105036	-3.662373	0.514158	25.028623	-67.320582	177.743191			
39273	8.007801	5.166564	2.994211	1.292190	-3.462646	-0.532393	25.394399	-67.428142	176.952332			
39274	7.333947	4.440398	2.577493	0.938726	-2.956009	-1.414581	25.700161	-67.600617	176.218552			
39275	7.081885	3.643077	2.853352	1.008104	-2.114991	-1.683897	25.913003	-67.796505	175.604763			
39276	6.966650	2.882365	2.778445	0.748390	-1.439170	-1.943084	26.055655	-67.996241	175.104467			
39277	7.122155	2.129934	2.671227	0.370301	-0.772342	-1.960077	26.196861	-68.190115	174.649413			
39278	7.809253	1.619802	2.398208	-0.263833	-0.365564	-1.496661	26.413104	-68.356515	174.188121			
39279	8.668893	1.433970	1.901007	-1.051384	-0.322645	-0.890231	26.754031	-68.479571	173.684572			
39280	9.397196	1.489601	1.494923	-1.638642	-0.465168	-0.333268	27.190633	-68.537834	173.162988			
39281	10.364933	1.780212	1.410843	-1.965013	-0.694181	0.591553	27.650737	-68.533293	172.698407			
39282	10.685140	2.153002	1.626420	-1.775787	-0.920732	1.024823	28.047317	-68.485193	172.338850			
39283	10.574406	1.865666	1.797183	-1.681727	-0.571873	0.928512	28.396703	-68.438153	172.102051			
39284	10.270621	1.911617	2.402475	-1.027891	-0.392744	0.850379	28.703703	-68.424365	171.993583			
39285	10.014390	2.084569	2.814328	-0.512768	-0.399278	0.776528	29.029481	-68.459530	171.923373			
39286	9.330890	2.290236	3.020688	-0.003479	-0.531019	0.244807	29.355381	-68.523966	171.867902			
39287	8.733327	2.384015	2.965301	0.212796	-0.650473	-0.311157	29.682686	-68.600573	171.808256			
39288	7.762580	2.584399	2.549239	0.288162	-1.022104	-1.309301	30.110350	-68.704114	171.647358			
39289	6.941757	2.627070	2.510065	0.586842	-1.095908	-2.076771	30.650637	-68.828850	171.337525			
39290	6.533403	2.545542	2.589820	0.799448	-0.986801	-2.446596	31.241226	-68.983831	170.903579			
39291	6.679730	2.499067	2.165484	0.390734	-1.073220	-2.447306	31.921960	-69.180566	170.304163			
39292	7.257232	2.479389	2.040212	0.104655	-1.039900	-1.946002	32.681776	-69.380332	169.591322			
39293	7.814888	2.637690	1.975142	-0.057967	-1.142901	-1.409039	33.431077	-69.556824	168.866220			
39294	8.380505	2.677858	1.595018	-0.540053	-1.256976	-0.976621	34.126468	-69.692337	168.200786			
39295	8.803935	2.818428	1.389715	-0.790698	-1.404042	-0.604677	34.758921	-69.779025	167.605323			
39296	8.912235	3.093696	1.358400	-0.741419	-1.629361	-0.451089	35.357009	-69.826648	167.035510			
39297	8.780257	3.092302	1.352894	-0.689904	-1.609181	-0.570391	35.939582	-69.855454	166.432235			
39298	8.694968	3.124364	1.365419	-0.629405	-1.610402	-0.634514	36.487127	-69.885673	165.820617			
39299	8.449580	3.186608	1.740793	-0.188617	-1.514657	-0.743486	36.950072	-69.920323	165.218853			
39300	8.238140	3.200542	1.911402	0.043878	-1.460134	-0.889126	37.293429	-69.978637	164.668390			
39301	8.316230	3.265864	2.167215	0.273712	-1.402665	-0.730838	37.531181	-70.059761	164.152249			
39302	8.513117	3.041523	2.177764	0.154378	-1.167978	-0.588878	37.732111	-70.169420	163.621829			
39303	8.873775	2.582504	2.081427	-0.185045	-0.740985	-0.370112	37.943456	-70.279870	163.066669			
39304	9.096611	2.132359	2.000294	-0.457565	-0.325158	-0.274273	38.180682	-70.382636	162.526394			
39305	9.337677	1.776640	2.051675	-0.584856	0.057799	-0.106370	38.416131	-70.461904	162.027871			
39306	9.396788	1.536072	2.220505	-0.512356	0.359140	-0.055727	38.636292	-70.521137	161.569121			
39307	9.464920	1.411572	2.339157	-0.453090	0.535826	0.013628	38.853238	-70.555445	161.131772			
39308	9.359813	1.288160	2.364313	-0.427332	0.658982	-0.105033	39.011051	-70.548617	160.774296			
39309	9.272906	1.317002	2.427956	-0.332722	0.654852	-0.165060	39.120313	-70.512264	160.472162			
39310	9.075340	1.192930	2.268447	-0.453937	0.701342	-0.419456	39.213784	-70.462796	160.183877			
39311	8.952180	1.020548	2.148917	-0.578090	0.816076	-0.603957	39.312037	-70.404931	159.885501			
39312	8.792683	0.936829	1.904106	-0.777036	0.802328	-0.836774	39.427108	-70.346850	159.564036			
39313	8.656206	0.856636	1.741348	-0.909254	0.816842	-1.026218	39.491069	-70.273086	159.273249			
39314	8.351120	0.630885	1.720095	-0.903483	0.994266	-1.369163	39.524680	-70.186268	159.001541			
39315	8.072800	0.553214	2.023905	-0.568614	1.144128	-1.570116	39.578498	-70.103498	158.712862			
39316	8.036768	0.498988	2.196566	-0.418433	1.257325	-1.572082	39.707823	-70.046455	158.353694			
39317	8.347452	0.574027	2.351195	-0.353468	1.288879	-1.224823	39.927532	-70.016407	157.908784			
39318	8.739937	0.476494	2.111621	-0.712544	1.369756	-0.942034	40.272578	-70.020670	157.344440			
39319	9.020224	0.595142	1.923603	-0.926069	1.256757	-0.703254	40.686817	-70.033646	156.724594			
39320	9.164022	0.723799	1.890522	-0.952209	1.168432	-0.549575	41.079224	-70.040281	156.109444			
39321	9.485709	0.834795	1.982322	-0.925679	1.161451	-0.200235	41.464927	-70.038364	155.490057			
39322	9.752876	0.989633	2.179215	-0.776285	1.139234	0.134494	41.831441	-70.019425	154.899654			
39323	9.747507	0.876384	2.328266	-0.656513	1.314070	0.139445	42.151825	-69.989341	154.358064			
39324	9.810960	0.716515	2.606109	-0.451990	1.578857	0.230370	42.427087	-69.957062	153.887832			
39325	9.828405	0.696393	2.779841	-0.292952	1.670763	0.283487	42.713342	-69.947485	153.442257			
39326	9.715792	0.774292	2.768281	-0.235332	1.593646	0.190531	43.060272	-69.976989	152.957745			
39327	9.568742	0.893857	3.026369	0.099012	1.551243	0.142335	43.498205	-70.055186	152.408544			
39328	9.473735	0.959335	3.098271	0.243176	1.512954	0.082915	44.063640	-70.190018	151.761902			
39329	9.671182	0.941604	2.949627	0.088580	1.536815	0.224681	44.773999	-70.388098	151.003604			
39330	9.923033	1.078235	2.895040	0.050403	1.450564	0.478255	45.421890	-70.602665	150.298955			
39331	9.907873	1.280455	3.062139	0.310036	1.319155	0.548090	45.999759	-70.804947	149.702252			
39332	10.673266	1.572278	3.326625	0.463014	1.259621	1.396941	46.650358	-71.040537	149.085738			
39333	11.788632	1.850349	3.028376	0.006881	1.109324	2.448455	47.354582	-71.307192	148.526382			
39334	12.724286	2.569482	2.347861	-0.638051	0.398716	3.357568	47.979334	-71.557803	148.200727			
39335	13.327526	3.515458	1.418273	-1.364005	-0.664950	3.960107	48.489050	-71.760474	148.153493			
39336	14.225282	4.268562	0.393065	-2.292926	-1.544076	4.784970	48.974853	-71.946392	148.258713			
39337	14.581544	4.503848	-0.292370	-2.883993	-1.941862	5.050110	49.372373	-72.131657	148.455405			
39338	14.360625	4.922895	-0.547503	-2.877300	-2.481391	4.895324	49.542090	-72.281277	148.813353			
39339	13.418129	5.933842	-0.115935	-1.897789	-3.461397	4.318379	49.394056	-72.351366	149.386558			
39340	12.315455	6.911891	0.425351	-0.808253	-4.389926	3.592564	48.899309	-72.339863	150.147546			
39341	10.982567	6.907273	0.609484	-0.303809	-4.560936	2.344779	48.029266	-72.255087	151.139993			
39342	8.627784	6.552642	1.270199	0.784077	-4.395067	0.140069	46.793237	-72.118642	152.319825			
39343	7.300624	5.669249	2.448367	1.911946	-3.411561	-1.086907	45.474109	-72.049992	153.394824			
39344	6.388821	5.113022	3.367767	2.800523	-2.768191	-1.888319	44.190089	-72.063708	154.339052			
39345	5.725129	4.877229	4.005060	3.468656	-2.493429	-2.440059	42.896215	-72.145825	155.176518			
39346	6.267288	4.339314	4.013511	3.150577	-1.998179	-2.047556	41.580605	-72.321376	155.913363			
39347	6.885706	3.506840	3.784350	2.522924	-1.302785	-1.690560	39.999614	-72.491101	156.843864			
39348	7.210328	2.525968	3.607829	1.993022	-0.488870	-1.616726	38.161675	-72.599523	158.012446			
39349	7.975528	1.600516	3.480459	1.408757	0.343432	-1.084514	36.367276	-72.648388	159.209433			
39350	8.934836	1.147307	3.130031	0.684454	0.694697	-0.326219	34.818584	-72.645930	160.312445			
39351	10.322480	0.963652	2.876136	-0.009113	0.871991	0.910818	33.616442	-72.601966	161.198121			
39352	11.352216	0.862394	2.382951	-0.808855	0.886599	1.756863	32.841050	-72.533869	161.798846			
39353	12.146013	1.194830	2.519880	-0.862991	0.648918	2.602506	32.357154	-72.401003	162.224983			
39354	12.297418	1.547625	2.508489	-0.881759	0.308453	2.798469	32.060093	-72.176056	162.550372			
39355	11.726206	1.850674	2.482818	-0.728930	-0.042418	2.293501	31.827936	-71.876547	162.877249			
39356	10.879276	2.262035	2.647688	-0.297367	-0.467148	1.596898	31.576192	-71.528354	163.259514			
39357	10.100403	2.372330	2.876779	0.104754	-0.581854	0.937753	31.165893	-71.153686	163.788526			
39358	9.135423	2.336954	3.131983	0.558312	-0.573188	0.091145	30.587169	-70.758571	164.496318			
39359	7.755349	2.170976	3.421453	1.155841	-0.468468	-1.151907	29.938313	-70.372917	165.294643			
39360	6.875980	1.907456	3.597828	1.483818	-0.254844	-1.964442	29.310878	-70.030753	166.063486			
39361	6.636249	1.683353	3.672240	1.530539	-0.051191	-2.196030	28.734422	-69.741177	166.786957			
39362	6.470718	1.403743	3.776671	1.575035	0.220587	-2.357863	28.197869	-69.505267	167.469414			
39363	6.374101	1.129889	3.699344	1.439128	0.441756	-2.510316	27.717343	-69.318245	168.105598			
39364	6.357432	0.931519	3.644889	1.321625	0.603327	-2.569819	27.286019	-69.186992	168.696119			
39365	6.274247	0.755525	3.501176	1.157676	0.713605	-2.717214	26.904849	-69.091542	169.232621			
39366	6.754755	0.680143	3.577808	1.024655	0.827851	-2.252613	26.533603	-69.032150	169.727584			
39367	6.869712	0.684303	3.639402	1.026969	0.833573	-2.121335	26.079429	-68.963535	170.255782			
39368	6.960508	0.781219	3.757136	1.108292	0.760618	-1.978907	25.543298	-68.854549	170.818398			
39369	6.778739	0.735552	3.211627	0.648903	0.614035	-2.328792	25.048096	-68.705023	171.356165			
39370	6.556379	0.765700	2.718053	0.273556	0.413298	-2.691273	24.719958	-68.602725	171.767796			
39371	6.641545	0.822449	3.073717	0.566861	0.456250	-2.484333	24.475286	-68.593240	172.042429			
39372	6.746578	0.516450	3.431183	0.774015	0.847218	-2.313410	24.268369	-68.667979	172.189418			
39373	7.025891	0.332481	3.602957	0.794849	1.075937	-2.023880	24.137732	-68.810258	172.223117			
39374	7.120903	0.258873	3.534312	0.705748	1.122796	-1.970060	24.116163	-69.023094	172.151141			
39375	7.235711	0.244021	3.628125	0.780946	1.163915	-1.836871	24.145132	-69.295118	172.004082			
39376	7.518598	0.180176	3.602412	0.687710	1.225999	-1.593020	24.197965	-69.623672	171.821579			
39377	7.882375	0.259715	3.759873	0.777602	1.205781	-1.194271	24.231299	-69.976184	171.630037			
39378	8.289881	0.315045	3.872412	0.813403	1.194998	-0.772389	24.227456	-70.332163	171.435020			
39379	8.671568	0.536280	4.158200	1.059267	1.068751	-0.299026	24.193962	-70.657451	171.253360			
39380	9.044906	0.890469	4.225403	1.137746	0.751218	0.116979	24.125084	-70.930611	171.111844			
39381	9.525327	1.107557	4.076886	0.941229	0.509886	0.552326	23.961621	-71.130389	171.078384			
39382	9.953593	1.057155	4.196348	0.931959	0.591807	0.984629	23.704411	-71.263357	171.175582			
39383	10.388203	1.002436	4.365429	0.956066	0.687774	1.438510	23.393978	-71.352188	171.345754			
39384	10.905576	0.674718	4.206539	0.583999	0.962865	1.841221	23.069025	-71.419373	171.532589			
39385	11.224840	0.335021	3.877753	0.114472	1.198030	2.006695	22.786473	-71.483263	171.682525			
39386	11.413908	0.083678	3.935462	0.065165	1.444690	2.174002	22.541233	-71.553976	171.749916			
39387	11.254596	-0.309334	3.907349	0.017292	1.791930	1.969401	22.295797	-71.623515	171.758453			
39388	10.799789	-0.670628	4.176000	0.344490	2.169283	1.575888	22.030363	-71.676362	171.775036			
39389	10.611744	-0.649509	4.894493	1.085295	2.294536	1.612907	21.701280	-71.701103	171.885354			
39390	10.862240	-0.710679	5.293707	1.370505	2.432316	1.965348	21.240973	-71.706742	172.173109			
39391	11.456469	-0.939016	6.038370	1.820310	2.816215	2.731217	20.551212	-71.645730	172.743668			
39392	12.408365	-1.596794	6.110271	1.425809	3.452605	3.599948	19.615523	-71.531387	173.604031			
39393	13.420778	-2.443947	5.757466	0.558297	4.157430	4.387379	18.580731	-71.368470	174.642632			
39394	13.018214	-2.641493	5.006716	-0.106560	4.094843	3.779180	17.765798	-71.178371	175.583369			
39395	11.175336	-1.293066	3.700397	-0.492667	2.395179	1.774940	17.537531	-70.951341	176.228335			
39396	9.980080	1.140899	2.925931	-0.330882	-0.177757	0.643098	17.836256	-70.686594	176.558720			
39397	10.573872	2.858455	3.951814	0.760590	-1.541074	1.704283	18.237778	-70.333346	176.821207			
39398	10.837716	4.075980	3.529756	0.529053	-2.781877	1.956329	18.661837	-69.917168	177.038120			
39399	10.672563	5.211678	3.697226	0.972960	-3.785914	1.996396	19.194852	-69.526386	177.044352			
39400	10.043359	5.884388	4.039090	1.635345	-4.289822	1.621119	19.882349	-69.217972	176.729886			
39401	9.567655	6.072516	3.541576	1.380568	-4.562847	1.060780	20.684676	-69.032686	176.144514			
39402	8.161785	6.023038	3.161757	1.512107	-4.609403	-0.359902	21.422355	-68.949679	175.386886			
39403	7.023084	5.406363	2.828763	1.443973	-4.117691	-1.596006	22.032316	-68.978323	174.549094			
39404	6.568466	4.686204	2.425922	1.050932	-3.541822	-2.240280	22.537515	-69.104818	173.759075			
39405	6.774062	3.862926	2.665119	0.990530	-2.663330	-2.077155	22.956260	-69.314133	173.066234			
39406	7.084619	2.919389	2.689905	0.690514	-1.728517	-1.907905	23.319550	-69.578219	172.458398			
39407	7.984544	2.088044	2.443825	-0.013248	-0.947161	-1.257706	23.699570	-69.870227	171.847914			
39408	9.567664	1.701133	1.905271	-1.095597	-0.631117	0.008988	24.040496	-70.096874	171.291799			
39409	10.594861	1.498013	1.130231	-2.169500	-0.575079	0.710384	24.314136	-70.167341	170.898354			
39410	11.043647	1.843653	1.037203	-2.321284	-0.891132	1.153373	24.491817	-70.093943	170.708133			
39411	11.028277	2.126927	1.216560	-2.105768	-1.103460	1.231532	24.603280	-69.931813	170.676726			
39412	10.651502	2.026720	1.683803	-1.604564	-0.892530	1.005167	24.698316	-69.766400	170.734273			
39413	9.914241	1.758560	2.303052	-0.874546	-0.496964	0.467241	24.875214	-69.681370	170.748951			
39414	9.608544	1.581345	2.633949	-0.510857	-0.239299	0.259263	25.181619	-69.746668	170.650417			
39415	9.595885	1.696948	2.729765	-0.364188	-0.307007	0.295983	25.602686	-69.940587	170.440188			
39416	9.391402	1.605982	2.630469	-0.364591	-0.242335	0.061781	26.037432	-70.190140	170.195012			
39417	8.986457	1.596381	2.523165	-0.282839	-0.271840	-0.351339	26.443497	-70.441532	169.974623			
39418	8.639513	1.950390	2.403523	-0.141317	-0.650687	-0.659623	26.853631	-70.683555	169.739854			
39419	8.105756	2.155513	1.978947	-0.258646	-0.987575	-1.255620	27.324853	-70.909146	169.410772			
39420	7.692699	2.361106	1.758606	-0.233306	-1.255934	-1.675539	27.896042	-71.134729	168.950705			
39421	7.547471	2.402483	1.669345	-0.220028	-1.309306	-1.827695	28.577804	-71.355953	168.337311			
39422	7.894880	2.301639	1.636212	-0.348828	-1.174922	-1.518017	29.343369	-71.566284	167.602384			
39423	8.220586	2.128307	1.591524	-0.502108	-0.971224	-1.242674	30.156475	-71.729846	166.812044			
39424	8.497884	2.050652	1.767309	-0.416195	-0.790026	-0.938847	31.040907	-71.855944	165.973022			
39425	8.528604	1.778796	1.746455	-0.491325	-0.496595	-0.954747	31.990763	-71.935286	165.057410			
39426	8.443898	1.692177	1.573650	-0.625602	-0.430536	-1.091316	33.027444	-71.984373	164.068578			
39427	8.247107	1.713985	1.451509	-0.655341	-0.459502	-1.302776	34.082255	-71.999161	163.036819			
39428	8.055343	1.721780	1.494198	-0.544625	-0.425708	-1.469566	35.084857	-71.976009	162.013614			
39429	8.039351	1.852076	1.433016	-0.553317	-0.525469	-1.474075	36.015274	-71.933010	161.002063			
39430	7.909309	1.835987	1.525701	-0.429510	-0.454227	-1.574674	36.839397	-71.876780	160.040863			
39431	7.891421	1.795249	1.824158	-0.158042	-0.289875	-1.523183	37.579268	-71.813295	159.110772			
39432	8.307836	1.508696	2.006386	-0.182642	0.117625	-1.136594	38.277318	-71.754840	158.194698			
39433	8.834020	1.134324	2.168076	-0.277881	0.617256	-0.671089	38.935189	-71.679086	157.338090			
39434	9.284718	0.842252	2.207465	-0.443525	0.996204	-0.294335	39.518156	-71.580816	156.606529			
39435	9.545744	0.585260	2.030989	-0.750671	1.255416	-0.145786	39.971440	-71.440543	156.045196			
39436	9.609425	0.485553	1.970151	-0.863662	1.372130	-0.126122	40.307718	-71.259790	155.650694			
39437	9.558279	0.410947	2.129496	-0.741639	1.511882	-0.157202	40.572397	-71.048355	155.359417			
39438	9.459534	0.377624	2.115273	-0.758868	1.554489	-0.267672	40.852388	-70.836790	155.077153			
39439	9.325540	0.473137	2.154866	-0.682852	1.487306	-0.370521	41.208334	-70.637213	154.746560			
39440	9.209014	0.549314	2.258429	-0.553775	1.461576	-0.444380	41.626845	-70.450680	154.366591			
39441	9.177738	0.497520	2.465454	-0.383525	1.601260	-0.440088	42.072591	-70.265787	153.964500			
39442	9.106600	0.506464	2.507665	-0.338093	1.630023	-0.501209	42.520721	-70.077058	153.577735			
39443	8.915333	0.434308	2.362893	-0.445870	1.662756	-0.741229	43.060783	-69.905730	153.135269			
39444	8.750010	0.537538	2.396263	-0.349660	1.588860	-0.871389	43.693357	-69.758425	152.632264			
39445	8.584132	0.714503	2.261163	-0.384260	1.396902	-1.025677	44.428336	-69.634667	152.040547			
39446	8.403997	1.026663	2.195799	-0.311307	1.098251	-1.140923	45.222631	-69.523555	151.385411			
39447	8.422804	1.469342	2.196520	-0.203368	0.732238	-1.017826	46.031540	-69.410484	150.723289			
39448	8.514237	1.793254	2.012402	-0.315474	0.433801	-0.898100	46.808573	-69.294457	150.091949			
39449	8.463585	1.986558	1.961994	-0.294414	0.272063	-0.909471	47.489704	-69.176049	149.539379			
39450	8.576984	1.959293	1.942212	-0.349896	0.350618	-0.816566	48.113304	-69.089328	148.997300			
39451	8.770269	1.835235	2.031522	-0.349089	0.563621	-0.649000	48.687499	-69.057357	148.449724			
39452	9.087958	1.878165	2.204349	-0.257848	0.665188	-0.301190	49.228550	-69.101881	147.875893			
39453	9.304826	1.980541	2.355981	-0.130502	0.677930	-0.036376	49.679684	-69.208399	147.329646			
39454	9.651075	2.159978	2.337828	-0.165332	0.581747	0.331682	50.167930	-69.414264	146.688720			
39455	10.296208	2.687726	2.587478	0.061683	0.293743	1.134477	50.592019	-69.688964	146.041139			
39456	11.056625	2.829710	2.166810	-0.446969	0.168190	1.794328	50.916537	-70.016021	145.444377			
39457	11.564512	2.917438	1.986263	-0.664549	0.108257	2.259626	51.155958	-70.390191	144.898388			
39458	12.139690	2.809637	2.107527	-0.655359	0.321833	2.803730	51.303218	-70.816208	144.390790			
39459	13.006662	2.652080	2.206591	-0.739262	0.615680	3.609279	51.393415	-71.299285	143.925326			
39460	13.668416	2.393864	1.481725	-1.547684	0.718535	4.037901	51.439616	-71.809455	143.607846			
39461	14.481779	2.058779	0.775759	-2.398347	0.920312	4.608207	51.250064	-72.256845	143.677095			
39462	14.259567	1.460741	-0.614451	-3.735231	0.980426	4.005151	50.534566	-72.551558	144.446369			
39463	13.580675	1.748542	-0.550141	-3.434169	0.514231	3.443859	49.554472	-72.729434	145.687470			
39464	12.957535	2.920215	0.335281	-2.189488	-0.543946	3.281101	48.442527	-72.797468	147.229588			
39465	11.563978	3.872679	0.920799	-1.086611	-1.575626	2.266526	47.406460	-72.773732	148.798864			
39466	10.263613	4.601677	0.861313	-0.646876	-2.530924	1.161595	46.583839	-72.680324	150.208869			
39467	8.830316	5.270669	1.239508	0.236808	-3.286809	0.007269	45.759065	-72.514537	151.547611			
39468	7.641422	5.663529	1.735794	1.095535	-3.692443	-0.944462	44.752311	-72.334270	152.804927			
39469	8.061195	5.610823	2.520034	1.655874	-3.369042	-0.393448	43.560608	-72.200174	153.961635			
39470	8.364388	5.537834	3.494958	2.402939	-3.006293	0.088464	42.156282	-72.113285	155.152426			
39471	8.996823	5.701367	4.096907	2.770735	-2.972125	0.851340	40.520345	-72.089312	156.437004			
39472	9.501164	5.056755	3.818187	2.138995	-2.497218	1.123872	38.469738	-72.057409	157.992953			
39473	9.844192	4.161825	3.535222	1.480411	-1.820425	1.197275	36.213957	-71.992383	159.763371			
39474	10.225361	3.275548	3.567801	1.112508	-1.056937	1.397125	33.987821	-71.925493	161.536063			
39475	10.710458	2.375448	3.529092	0.664862	-0.283953	1.688930	32.062901	-71.915172	163.075269			
39476	11.274615	1.952066	3.544888	0.382381	0.067130	2.159869	30.487843	-71.959704	164.324142			
39477	11.380621	1.639766	3.219955	-0.037134	0.197150	2.126101	29.220622	-72.014378	165.352299			
39478	11.106537	1.630487	2.889301	-0.274009	0.026402	1.775479	28.220682	-72.036629	166.217013			
39479	10.630953	1.755793	2.608191	-0.380916	-0.256379	1.263935	27.355697	-71.975530	167.017306			
39480	10.074469	1.903835	2.503379	-0.306743	-0.507252	0.724617	26.577928	-71.822841	167.802431			
39481	9.526599	2.172937	2.554669	-0.072486	-0.823462	0.253120	25.864380	-71.597846	168.556714			
39482	8.675578	2.189841	2.653197	0.239202	-0.895592	-0.526086	25.192159	-71.332848	169.283322			
39483	8.093685	2.100251	2.828779	0.516375	-0.821304	-1.038898	24.588477	-71.047940	169.950890			
39484	7.458946	1.873234	3.002208	0.779507	-0.612138	-1.616617	24.025418	-70.731138	170.593785			
39485	6.807242	1.622622	3.214312	1.081475	-0.364776	-2.196888	23.529266	-70.398642	171.200602			
39486	6.254717	1.649286	3.512629	1.498918	-0.349659	-2.614701	23.127951	-70.061261	171.749592			
39487	6.009671	1.754692	3.663965	1.702327	-0.426957	-2.774267	22.825757	-69.733410	172.211644			
39488	5.891980	1.712537	3.729763	1.752719	-0.374309	-2.859481	22.617371	-69.404877	172.581269			
39489	5.479966	1.774167	3.426697	1.600011	-0.530240	-3.325881	22.517867	-69.099273	172.862594			
39490	5.386136	1.814079	3.322505	1.519312	-0.595321	-3.434787	22.482991	-68.853662	173.052568			
39491	5.763734	1.662428	3.397105	1.390883	-0.408258	-3.073003	22.427198	-68.664929	173.198601			
39492	6.023352	1.482687	3.350850	1.191968	-0.237684	-2.867904	22.298703	-68.520896	173.340211			
39493	6.295642	1.263920	3.300888	0.978163	-0.035958	-2.659343	22.092142	-68.407905	173.464643			
39494	6.410026	1.017125	3.019892	0.612139	0.118437	-2.681491	21.865535	-68.343603	173.540888			
39495	6.504125	0.741407	2.908150	0.406372	0.345794	-2.669443	21.646745	-68.339111	173.551224			
39496	6.729225	0.503803	2.923254	0.285928	0.575628	-2.486803	21.418163	-68.405537	173.512919			
39497	7.013030	0.134546	3.066958	0.241720	0.967561	-2.222413	21.187133	-68.541821	173.410321			
39498	7.206424	0.003229	3.348717	0.423053	1.159877	-1.962715	20.965663	-68.731706	173.269245			
39499	7.671404	-0.407443	3.545604	0.380772	1.609295	-1.514932	20.753013	-68.972260	173.072981			
39500	8.143235	-0.588729	3.516246	0.193668	1.782239	-1.105865	20.612287	-69.234083	172.869162			
39501	8.583486	-0.574501	3.706471	0.264559	1.820968	-0.628022	20.518665	-69.500445	172.702160			
39502	8.871996	-0.621395	3.761683	0.255679	1.881396	-0.344664	20.460325	-69.778624	172.575762			
39503	8.979088	-0.437510	4.194150	0.706405	1.798342	-0.082680	20.435439	-70.082184	172.445323			
39504	9.198786	0.075435	4.892031	1.437742	1.458921	0.402958	20.428262	-70.424728	172.290904			
39505	9.572601	0.811444	5.024342	1.647431	0.776412	0.874686	20.403405	-70.764554	172.164713			
39506	9.707008	1.507987	4.560545	1.370818	-0.015206	0.930636	20.299592	-71.041977	172.141856			
39507	9.511276	2.020561	3.822227	0.890077	-0.704371	0.573264	20.083952	-71.211679	172.271897			
39508	8.935012	2.265945	3.312390	0.667619	-1.100841	-0.102730	19.728283	-71.286826	172.527381			
39509	8.453863	1.961312	3.109823	0.578285	-0.890028	-0.655235	19.342253	-71.325198	172.752052			
39510	8.524664	1.577986	3.594230	0.936469	-0.430899	-0.484465	19.004372	-71.396604	172.846479			
39511	9.154008	0.851481	4.167921	1.148969	0.400960	0.207864	18.715328	-71.529026	172.790342			
39512	9.658529	-0.037455	4.572804	1.237483	1.347576	0.715921	18.484687	-71.716851	172.609169			
39513	9.979477	-0.824358	4.971738	1.421442	2.185068	1.058943	18.352859	-71.945501	172.293928			
39514	10.329239	-1.694599	5.229314	1.474193	3.077569	1.379516	18.257717	-72.195333	171.896483			
39515	10.824033	-2.126050	5.560082	1.636819	3.558216	1.902848	18.165642	-72.400282	171.521873			
39516	11.500248	-2.481107	5.785685	1.651214	3.951227	2.578712	17.974097	-72.516124	171.340931			
39517	12.470195	-2.814711	5.999696	1.543911	4.331938	3.539289	17.631051	-72.502811	171.463023			
39518	13.593684	-2.975624	5.967629	1.142992	4.504366	4.597698	17.135849	-72.367610	171.895124			
39519	14.620435	-3.127000	5.083167	-0.073286	4.518735	5.318373	16.603769	-72.165901	172.528699			
39520	14.319313	-2.810068	4.431367	-0.626326	4.054784	4.875470	16.164334	-71.916166	173.192992			
39521	13.296195	-1.143827	3.677363	-0.861054	2.234709	3.821243	16.129694	-71.583035	173.612874			
39522	11.316558	1.564927	2.243542	-1.249752	-0.735881	1.739062	16.634585	-71.119683	173.765507			
39523	10.676174	3.706427	3.311010	0.229014	-2.618197	1.666552	17.324043	-70.576622	173.813979			
39524	10.751134	5.034805	3.934451	0.942581	-3.727863	2.088140	17.966451	-69.970409	173.877293			
39525	10.908573	6.248625	3.876266	0.988706	-4.851521	2.375506	18.590168	-69.407886	173.820142			
39526	10.795470	7.251968	4.261775	1.514912	-5.676897	2.547448	19.340256	-68.989277	173.406541			
39527	10.308455	7.307765	3.821188	1.254593	-5.777223	1.990625	20.269215	-68.788227	172.566484			
39528	9.154455	6.532015	3.282396	1.000015	-5.137517	0.668293	21.154763	-68.782985	171.480736			
39529	7.521890	5.119213	3.164390	1.189887	-3.838862	-1.057930	21.860905	-68.907241	170.342523			
39530	6.723941	3.833706	3.510190	1.552067	-2.542326	-1.852928	22.437162	-69.129440	169.272890			
39531	6.502351	2.742580	3.641764	1.575297	-1.459582	-2.167247	22.924214	-69.389476	168.363701			
39532	6.659338	1.748166	3.264588	1.034552	-0.551231	-2.283668	23.395141	-69.664880	167.578934			
39533	7.136867	1.199064	2.676940	0.274855	-0.086607	-2.101952	23.949881	-69.921855	166.821329			
39534	7.962514	0.959662	1.639364	-0.966266	0.027591	-1.684004	24.656316	-70.115310	166.004340			
39535	9.821172	0.670701	0.611016	-2.548825	0.294960	-0.289303	25.497511	-70.247409	165.165375			
39536	10.336216	1.524054	0.156377	-2.984374	-0.539777	0.186639	26.429541	-70.178120	164.491439			
39537	11.022729	1.668543	-0.511114	-3.806212	-0.711573	0.654027	27.418491	-70.030244	163.964643			
39538	10.992109	3.929057	0.758206	-2.228126	-2.596236	1.373624	28.511305	-69.804558	163.628832			
39539	10.241402	4.511138	1.315879	-1.352575	-3.055600	0.948441	29.276599	-69.584536	163.387501			
39540	8.711616	4.881328	2.929215	0.711031	-3.153237	0.079298	29.575583	-69.507907	162.971151			
39541	8.887872	3.755694	2.486520	0.029525	-2.133622	-0.079802	29.887923	-69.592905	162.420216			
39542	9.628104	3.237945	2.498724	-0.276606	-1.539570	0.530493	30.257348	-69.798788	161.881892			
39543	8.661550	2.550581	1.857265	-0.635445	-1.114607	-0.684105	30.636737	-70.088886	161.441797			
39544	8.690797	2.674533	2.255516	-0.202777	-1.139437	-0.515871	30.907165	-70.394205	161.128374			
39545	8.076346	2.766782	1.846582	-0.324996	-1.390781	-1.195712	31.085981	-70.683559	160.920534			
39546	7.624439	3.044257	1.668654	-0.260163	-1.754179	-1.624950	31.216264	-70.948568	160.720975			
39547	7.249902	2.911400	1.574746	-0.225139	-1.692918	-2.028059	31.304429	-71.181146	160.507082			
39548	7.339445	2.745202	1.545231	-0.284066	-1.534134	-1.979616	31.409408	-71.396644	160.202212			
39549	7.736045	2.149683	1.326372	-0.687137	-0.961678	-1.760996	31.647828	-71.614934	159.709339			
39550	8.175658	2.009539	1.542119	-0.609879	-0.725662	-1.306269	32.031696	-71.804024	159.079525			
39551	8.414828	1.692723	1.677052	-0.578188	-0.350042	-1.093156	32.507553	-71.943659	158.336792			
39552	8.663658	1.580765	1.679752	-0.639263	-0.192100	-0.872123	33.124464	-72.055050	157.475258			
39553	8.694852	1.125651	1.574450	-0.793982	0.261117	-0.944333	33.858283	-72.134570	156.481959			
39554	8.471488	1.006754	1.598185	-0.702454	0.386816	-1.170312	34.648251	-72.177791	155.445614			
39555	8.429928	0.865096	1.684846	-0.608646	0.570397	-1.212987	35.425714	-72.193231	154.414441			
39556	8.437345	0.754128	1.628816	-0.661386	0.702039	-1.240631	36.127192	-72.191288	153.476050			
39557	8.375835	0.554145	1.676243	-0.610888	0.927274	-1.325145	36.755645	-72.189053	152.623115			
39558	8.415931	0.535753	1.894107	-0.401458	1.016668	-1.239023	37.309976	-72.175301	151.883398			
39559	8.789540	0.532225	2.009051	-0.381644	1.118699	-0.858450	37.783298	-72.142561	151.265449			
39560	9.332348	0.555895	1.970339	-0.553789	1.192521	-0.349330	38.213244	-72.093423	150.755316			
39561	9.439335	0.666561	1.925758	-0.608639	1.116503	-0.239975	38.570974	-72.017627	150.379877			
39562	9.516955	0.703243	1.991061	-0.565334	1.126619	-0.146127	38.903800	-71.926787	150.067881			
39563	9.654992	0.624298	2.011144	-0.600491	1.250806	-0.028610	39.194182	-71.818079	149.826494			
39564	9.762587	0.418504	2.046534	-0.634608	1.495946	0.037739	39.423855	-71.681185	149.661281			
39565	9.699653	0.201908	2.022865	-0.686088	1.714513	-0.075867	39.640325	-71.522005	149.538371			
39566	9.770204	0.080729	1.983880	-0.778377	1.859812	-0.048758	39.888624	-71.360807	149.406439			
39567	9.593971	-0.013976	1.909944	-0.833659	1.933828	-0.259803	40.150356	-71.193778	149.290817			
39568	9.347267	-0.065538	1.776378	-0.922131	1.942520	-0.544063	40.394982	-71.007878	149.215758			
39569	9.022438	-0.052055	1.886178	-0.752019	1.919806	-0.828621	40.598914	-70.796966	149.202513			
39570	8.546551	0.097283	2.221629	-0.307820	1.782803	-1.168882	40.760802	-70.578330	149.233988			
39571	8.271286	0.395517	2.680526	0.220661	1.561582	-1.252986	40.973551	-70.382372	149.214314			
39572	8.043497	0.904437	3.044205	0.684443	1.129374	-1.266400	41.270185	-70.234013	149.100327			
39573	8.133648	1.187002	2.922915	0.575417	0.873780	-1.151626	41.643378	-70.139362	148.884964			
39574	8.376699	1.165436	2.617791	0.212779	0.898181	-1.007683	42.057684	-70.095444	148.611474			
39575	8.453615	0.598847	2.006762	-0.466846	1.349691	-1.221431	42.474625	-70.088680	148.327711			
39576	8.486841	0.270186	1.975009	-0.547916	1.681818	-1.276214	42.922285	-70.108241	148.061659			
39577	8.538678	0.097443	2.228524	-0.337839	1.926477	-1.206913	43.387785	-70.170335	147.778481			
39578	8.594605	-0.012481	2.347205	-0.239919	2.081619	-1.153242	43.926238	-70.282372	147.430377			
39579	8.693043	0.139885	2.550613	-0.022083	2.011535	-0.978248	44.556294	-70.451508	146.980429			
39580	9.038008	0.640220	2.923674	0.356908	1.690838	-0.450164	45.223954	-70.664455	146.476562			
39581	9.582436	1.149175	2.655447	0.090380	1.254206	0.117751	45.957952	-70.919104	145.899450			
39582	10.449940	2.073641	2.542358	-0.030907	0.511467	1.128150	46.633302	-71.183014	145.369737			
39583	11.289778	2.465522	2.031961	-0.607402	0.175035	1.903408	47.108216	-71.426866	145.009847			
39584	12.068928	2.816969	1.945468	-0.773577	-0.048598	2.708420	47.376681	-71.670071	144.824646			
39585	12.797977	2.837376	2.030277	-0.825561	0.059375	3.426481	47.405348	-71.920438	144.831226			
39586	12.839433	2.677336	2.055177	-0.795388	0.187424	3.437778	47.261117	-72.183971	145.023670			
39587	13.369486	2.584341	1.977281	-0.976081	0.300357	3.909128	46.964837	-72.467615	145.383483			
39588	14.109190	2.461738	1.001863	-2.065458	0.253760	4.393016	46.588166	-72.768817	145.902874			
39589	14.511354	2.265213	0.250055	-2.873013	0.256027	4.590529	46.105358	-73.065986	146.608557			
39590	14.366808	2.355792	-0.073128	-3.090813	-0.018130	4.414260	45.467316	-73.337806	147.532416			
39591	13.974695	3.006216	-0.192977	-2.953026	-0.824764	4.150308	44.692773	-73.549458	148.727819			
39592	12.964191	4.445456	0.116624	-2.100466	-2.367761	3.522491	43.693658	-73.646223	150.256800			
39593	11.473281	5.410156	0.260117	-1.386329	-3.545427	2.290251	42.462726	-73.634225	152.045291			
39594	9.643529	5.684968	0.840182	-0.323502	-3.963412	0.685351	41.160973	-73.557156	153.884958			
39595	8.611022	5.964241	1.548623	0.666802	-4.215331	-0.122163	39.885889	-73.478409	155.590904			
39596	7.444387	5.694424	2.207454	1.510282	-3.955044	-1.164295	38.495489	-73.413570	157.174076			
39597	7.562699	5.482531	3.007000	2.153655	-3.564473	-0.927273	37.095058	-73.412354	158.531015			
39598	8.165955	5.479649	3.401760	2.337170	-3.453612	-0.279012	35.616828	-73.473487	159.799541			
39599	8.639561	5.041695	3.439311	2.109955	-3.063735	0.089346	33.853513	-73.538277	161.195644			
39600	8.968737	4.130309	3.189095	1.530960	-2.329704	0.182086	31.784311	-73.539525	162.813112			
39601	9.148024	3.341083	3.298023	1.352566	-1.634894	0.248258	29.632363	-73.472409	164.522538			
39602	9.405188	2.543196	3.399453	1.149037	-0.923176	0.400450	27.699106	-73.384724	166.048874			
39603	9.867434	1.857492	3.558675	0.981593	-0.277881	0.791055	26.193547	-73.324905	167.210202			
39604	10.340554	1.451282	3.417795	0.608219	0.043671	1.157384	25.181752	-73.312653	167.955025			
39605	10.832616	1.360975	3.029351	0.077160	0.024344	1.517280	24.575771	-73.317734	168.407792			
39606	10.483645	1.570602	2.695014	-0.104735	-0.304601	1.120423	24.147439	-73.265681	168.757070			
39607	10.074980	1.681203	2.503436	-0.163785	-0.495687	0.690944	23.845707	-73.167327	169.041238			
39608	10.071452	1.871718	2.444732	-0.203264	-0.705831	0.693244	23.554709	-73.022146	169.336419			
39609	9.295184	1.875984	2.254434	-0.194478	-0.806219	-0.101135	23.180200	-72.770760	169.734233			
39610	8.714459	1.983291	2.670297	0.337905	-0.855216	-0.530450	22.795732	-72.468464	170.178846			
39611	7.918290	1.788049	2.921792	0.718111	-0.657358	-1.240331	22.386170	-72.144086	170.649949			
39612	7.544027	1.446625	3.234314	1.001970	-0.281134	-1.543307	21.965335	-71.820787	171.139754			
39613	7.017221	1.227393	3.430546	1.252589	-0.056050	-2.006010	21.560539	-71.484025	171.658765			
39614	6.477382	0.985056	3.533471	1.420712	0.172797	-2.507636	21.201894	-71.154893	172.180097			
39615	6.268604	0.789592	3.598200	1.463126	0.366801	-2.699990	20.925941	-70.845367	172.682808			
39616	6.273453	0.802519	3.654525	1.477877	0.370164	-2.668840	20.748418	-70.579484	173.131506			
39617	6.463919	0.808298	3.490360	1.232417	0.336647	-2.533543	20.647965	-70.355306	173.532529			
39618	6.460942	1.088204	3.284024	1.080174	0.019965	-2.563856	20.593848	-70.167515	173.908837			
39619	6.855715	1.317841	3.172801	0.875172	-0.211218	-2.197333	20.515119	-69.996031	174.278044			
39620	6.852122	1.273836	2.870187	0.568844	-0.247150	-2.300863	20.375125	-69.827811	174.652171			
39621	6.854731	1.368406	2.589824	0.315110	-0.414483	-2.376564	20.251880	-69.668365	174.971850			
39622	6.995699	1.323817	2.414583	0.080354	-0.416726	-2.306532	20.166768	-69.561529	175.209273			
39623	6.780145	1.356835	2.583146	0.306767	-0.410296	-2.449158	20.148842	-69.515369	175.328671			
39624	6.956068	1.230061	2.871306	0.476649	-0.204609	-2.205107	20.178930	-69.578451	175.305706			
39625	6.967115	1.122090	3.341598	0.886854	0.027779	-2.055192	20.244226	-69.736341	175.151365			
39626	7.240329	0.964617	3.847670	1.241310	0.321729	-1.657140	20.292042	-69.977518	174.924746			
39627	7.651817	1.044587	4.244432	1.519761	0.356945	-1.139774	20.316797	-70.251558	174.681686			
39628	7.957368	1.158331	4.343882	1.579951	0.272946	-0.814921	20.299601	-70.549330	174.461689			
39629	8.041635	1.052994	3.952321	1.219533	0.265136	-0.877379	20.313992	-70.881717	174.227320			
39630	8.135585	0.957490	3.666728	0.961496	0.280656	-0.893838	20.421512	-71.260097	173.925486			
39631	8.263861	0.854112	3.668756	0.961405	0.384287	-0.790031	20.647575	-71.663751	173.543443			
39632	8.329535	0.800670	3.728629	1.049594	0.456270	-0.723424	20.951334	-72.060677	173.091207			
39633	8.484437	0.707198	3.748460	1.063895	0.563196	-0.588407	21.304927	-72.434441	172.599175			
39634	8.726145	0.779148	3.672258	0.998441	0.490728	-0.378698	21.644320	-72.777000	172.125211			
39635	8.971670	0.635966	3.361131	0.661078	0.568792	-0.250693	21.902682	-73.073293	171.724811			
39636	9.465109	0.520389	3.075376	0.277455	0.636053	0.128907	22.120308	-73.334438	171.364902			
39637	9.933314	0.375517	3.058166	0.142813	0.795079	0.556083	22.276879	-73.557023	171.033610			
39638	10.437202	0.382548	3.163651	0.143611	0.835542	1.067171	22.377287	-73.744307	170.716553			
39639	10.808540	0.154390	3.270862	0.132472	1.097611	1.426729	22.458443	-73.917117	170.360766			
39640	10.957732	-0.244624	3.394221	0.163937	1.518643	1.559173	22.529294	-74.066841	169.979104			
39641	10.841828	-0.683698	3.648556	0.383306	1.994367	1.465615	22.582431	-74.193042	169.589416			
39642	10.809057	-1.105379	3.909030	0.592334	2.455976	1.454757	22.636880	-74.316543	169.220817			
39643	10.851657	-1.527233	4.459028	1.054142	2.981265	1.587953	22.683030	-74.403274	168.921317			
39644	10.958310	-1.680466	4.851692	1.391762	3.213617	1.771055	22.713170	-74.437219	168.752562			
39645	11.230400	-1.448249	5.225791	1.719898	3.076219	2.150047	22.673403	-74.398072	168.809306			
39646	11.872445	-0.690355	5.618553	2.036131	2.447573	2.949094	22.395738	-74.241233	169.225078			
39647	12.597205	-0.480472	4.488907	0.755191	2.034570	3.391874	21.920663	-73.976719	169.919036			
39648	13.342927	-0.450722	4.060354	0.066029	1.934830	4.006665	21.442184	-73.617616	170.721993			
39649	13.393551	0.290372	4.165079	0.182221	1.226300	4.161614	21.096117	-73.155566	171.484307			
39650	12.830473	1.731124	3.561587	-0.047614	-0.331196	3.610789	21.066390	-72.661745	171.993620			
39651	13.065816	3.751619	3.419141	0.061887	-2.293562	4.015375	21.280844	-72.093806	172.326289			
39652	12.982802	6.055723	2.840925	-0.071941	-4.633233	4.037295	21.501494	-71.342511	172.607006			
39653	12.203707	7.119052	2.698903	0.145998	-5.686201	3.398652	21.805388	-70.564155	172.711899			
39654	11.283251	7.663810	3.883882	1.530339	-5.899029	2.993102	22.132781	-69.918805	172.565424			
39655	8.840820	7.383254	3.936095	2.240956	-5.685533	0.714300	22.497464	-69.508613	172.097876			
39656	7.293894	6.750925	4.288341	2.883466	-5.045424	-0.680614	22.826115	-69.386239	171.337072			
39657	6.504144	5.638683	3.944321	2.552651	-4.115540	-1.676201	22.917262	-69.472015	170.544906			
39658	6.435214	4.489024	3.791979	2.172594	-3.076272	-1.954019	22.801672	-69.675678	169.934961			
39659	6.406844	3.570453	3.668035	1.882904	-2.251710	-2.155364	22.516825	-69.888328	169.616654			
39660	6.416570	2.803477	3.238741	1.348067	-1.632481	-2.393865	22.198798	-70.109983	169.477169			
39661	6.714733	2.131678	2.500860	0.463709	-1.138371	-2.438747	22.026562	-70.371755	169.303593			
39662	6.799335	2.049468	1.683764	-0.311475	-1.228453	-2.625186	22.191876	-70.611792	168.866352			
39663	8.493592	2.228358	1.232771	-1.223884	-1.371736	-1.138200	22.702939	-70.850320	168.031073			
39664	10.278807	2.518082	-0.132974	-3.000833	-1.763248	0.182211	23.377583	-70.932349	167.031058			
39665	11.236243	3.235374	-0.460115	-3.501937	-2.398745	1.092109	24.053642	-70.838915	166.074317			
39666	11.134450	3.937377	-0.515645	-3.448039	-3.040889	1.078056	24.618698	-70.611244	165.245499			
39667	10.413516	4.479748	0.047122	-2.661566	-3.470699	0.645874	25.098531	-70.355339	164.507070			
39668	9.606171	4.529571	0.885315	-1.655376	-3.391597	0.154049	25.575196	-70.196550	163.733013			
39669	8.961493	4.295027	1.774298	-0.667667	-3.029312	-0.206379	26.069940	-70.252059	162.857321			
39670	8.941235	4.186598	2.376587	-0.100272	-2.802728	-0.052766	26.493259	-70.521016	161.934589			
39671	8.926959	4.079271	2.514122	0.052250	-2.675783	-0.040831	26.724228	-70.904831	161.119627			
39672	8.734150	4.084020	2.247225	-0.102174	-2.756777	-0.304574	26.738126	-71.327510	160.475758			
39673	8.652514	3.938932	1.828247	-0.456187	-2.704590	-0.528258	26.601800	-71.745738	159.958375			
39674	8.663540	3.863368	1.634020	-0.621167	-2.678689	-0.588197	26.424258	-72.165171	159.459390			
39675	8.796819	3.797905	1.375384	-0.884792	-2.651725	-0.545261	26.271666	-72.559718	158.909829			
39676	8.941228	3.728841	1.128387	-1.148236	-2.607793	-0.485093	26.164237	-72.865394	158.294281			
39677	8.877670	3.641495	1.021689	-1.234522	-2.540723	-0.585660	26.144740	-73.062741	157.573270			
39678	8.800037	3.305918	0.895769	-1.357048	-2.218088	-0.734657	26.250886	-73.190795	156.697793			
39679	8.826989	3.097942	0.928281	-1.349928	-1.986234	-0.723838	26.540713	-73.272925	155.623034			
39680	8.738003	2.901839	0.687119	-1.571002	-1.783538	-0.891011	27.042053	-73.356964	154.291971			
39681	8.565607	2.761707	0.503021	-1.704317	-1.629588	-1.112732	27.839301	-73.483116	152.633313			
39682	8.535347	2.669674	0.486721	-1.702380	-1.491197	-1.146998	28.764180	-73.620163	150.757290			
39683	8.458427	2.660036	0.524588	-1.637676	-1.435916	-1.201540	29.706544	-73.722420	148.783565			
39684	8.384714	2.833692	0.783168	-1.374988	-1.565892	-1.175341	30.565558	-73.789198	146.825720			
39685	8.246162	3.032416	0.886023	-1.263417	-1.735503	-1.246978	31.314769	-73.830178	144.925332			
39686	8.179503	3.117129	0.824691	-1.331362	-1.779499	-1.306129	31.924532	-73.849587	143.136550			
39687	8.287599	3.269901	0.969711	-1.255112	-1.876482	-1.139731	32.384938	-73.840421	141.484509			
39688	8.836390	3.284421	1.200170	-1.184894	-1.773822	-0.552074	32.701843	-73.795042	139.960589			
39689	9.467560	3.163717	1.179716	-1.357149	-1.495778	0.033938	32.948927	-73.700832	138.535976			
39690	9.946884	3.023572	0.926873	-1.712942	-1.185115	0.414851	33.190526	-73.565686	137.167389			
39691	10.278358	2.879835	0.806917	-1.902144	-0.899677	0.683082	33.489162	-73.391906	135.770325			
39692	10.468250	2.934111	0.679934	-2.102165	-0.818204	0.844067	33.878678	-73.191846	134.298605			
39693	10.568235	3.139616	0.594561	-2.278987	-0.891829	0.953385	34.311923	-72.947500	132.762514			
39694	10.470419	3.199603	0.477786	-2.418802	-0.848742	0.842051	34.717553	-72.663278	131.212435			
39695	10.234893	3.157319	0.599849	-2.284369	-0.783716	0.639486	35.042583	-72.349649	129.675379			
39696	9.796694	2.926309	0.633407	-2.141802	-0.574114	0.188404	35.297226	-72.032577	128.144699			
39697	9.441267	2.808207	0.883918	-1.840781	-0.517727	-0.109721	35.496781	-71.721311	126.626684			
39698	9.259883	2.666345	1.217406	-1.487065	-0.438284	-0.224527	35.599207	-71.422517	125.166785			
39699	9.144032	2.667727	1.302921	-1.422274	-0.417685	-0.313750	35.662019	-71.139036	123.722928			
39700	9.273901	2.703321	1.262570	-1.529055	-0.326805	-0.196977	35.668906	-70.859956	122.324247			
39701	9.159010	2.708340	0.786970	-1.969194	-0.121411	-0.434587	35.707993	-70.588932	120.913373			
39702	9.147468	2.578900	0.613610	-2.087460	0.138891	-0.521509	35.776232	-70.345803	119.438135			
39703	9.215316	2.542140	0.481745	-2.207131	0.330516	-0.504882	35.904498	-70.126422	117.843297			
39704	9.351312	2.626584	0.440784	-2.299427	0.407465	-0.374142	36.153506	-69.947563	116.065574			
39705	9.783617	2.697236	0.446666	-2.378001	0.574351	0.046732	36.435540	-69.802615	114.157623			
39706	10.257297	2.654588	0.207633	-2.600255	0.966808	0.414974	36.665595	-69.667707	112.253317			
39707	10.609030	2.680984	0.090679	-2.725795	1.220584	0.714731	36.802213	-69.510068	110.447580			
39708	10.859004	2.736197	0.130563	-2.720500	1.348222	0.967010	36.886611	-69.344753	108.706916			
39709	10.921005	2.718778	0.214786	-2.611761	1.447595	1.040347	37.005361	-69.193304	106.917335			
39710	10.866741	2.725736	0.057578	-2.686799	1.614165	0.943401	37.205789	-69.076323	105.011698			
39711	10.864316	2.800183	0.150124	-2.603352	1.610178	0.982016	37.431600	-68.971910	103.017499			
39712	10.504521	2.757536	0.056830	-2.555768	1.671875	0.609593	37.633037	-68.887594	100.986219			
39713	10.189863	2.857857	0.545069	-2.182556	1.284826	0.477240	37.796495	-68.824676	98.939153			
39714	10.020628	3.032130	0.904704	-1.990249	0.954549	0.461187	37.887105	-68.814536	96.910118			
39715	10.073222	3.308974	1.218171	-1.940514	0.650326	0.661766	37.903042	-68.839188	94.925861			
39716	9.951944	3.561821	1.577755	-1.866567	0.259136	0.707084	37.812717	-68.887918	93.027479			
39717	9.767439	3.656500	1.541733	-1.958261	0.215568	0.544353	37.634735	-68.956709	91.197439			
39718	9.475586	3.607916	1.315938	-2.061537	0.358269	0.195156	37.428703	-69.052882	89.390901			
39719	9.321217	3.387415	1.161985	-1.973803	0.595783	-0.042387	37.240332	-69.142240	87.594341			
39720	9.350064	3.164335	1.344024	-1.675207	0.633538	-0.012930	37.121833	-69.213499	85.765469			
39721	9.523285	2.905226	1.610438	-1.289602	0.656709	0.168911	37.155876	-69.244941	83.835343			
39722	9.935383	2.895213	1.324798	-1.378700	1.078593	0.472478	37.352741	-69.222901	81.810157			
39723	10.616146	2.935152	0.791167	-1.577503	1.792098	0.968900	37.736916	-69.138744	79.683354			
39724	11.037068	3.039666	0.917299	-1.495720	1.856194	1.421818	38.165165	-68.967271	77.542593			
39725	10.845155	2.832085	1.348331	-1.043602	1.578101	1.317249	38.555244	-68.709111	75.404025			
39726	10.309670	2.562576	1.783121	-0.586396	1.185716	0.877727	38.857303	-68.390884	73.293334			
39727	9.599754	2.351967	2.261202	-0.217962	0.653228	0.302911	39.070998	-68.052761	71.228328			
39728	8.802993	2.346724	2.901869	-0.038701	-0.139775	-0.252385	39.183423	-67.733341	69.224048			
39729	8.329131	2.063653	3.415901	0.343150	-0.651909	-0.606241	39.233808	-67.458560	67.246330			
39730	8.031204	1.688381	3.903966	0.788339	-1.092766	-0.825132	39.232521	-67.242709	65.307250			
39731	8.033557	1.364390	4.057001	1.115047	-1.169450	-0.854570	39.302212	-67.070788	63.377197			
39732	8.527001	1.548604	4.522859	1.117842	-1.467387	-0.212618	39.376869	-66.848689	61.581886			
39733	8.276339	1.249683	3.809041	1.192149	-0.843142	-0.733252	39.421929	-66.502904	59.985075			
39734	7.835720	1.260954	2.907641	0.940728	-0.159753	-1.414340	40.041247	-66.325494	58.058297			
39735	8.932856	1.656361	3.659857	0.963221	-0.561747	-0.081792	40.857099	-66.299442	55.855722			
39736	9.578659	1.256279	2.964701	1.431605	0.270591	0.187060	41.722757	-66.335117	53.547067			
39737	10.154843	1.371026	3.009657	1.517634	0.324072	0.753742	42.623469	-66.407671	51.192254			
39738	10.667089	1.508270	3.348497	1.599334	0.066354	1.354717	43.475582	-66.458433	48.881935			
39739	10.678854	1.789827	3.562657	1.395081	-0.214495	1.498418	44.247767	-66.413997	46.757072			
39740	10.278163	2.153595	3.576541	0.984057	-0.392545	1.230293	44.991615	-66.293758	44.840744			
39741	9.305976	2.278267	3.119797	0.614987	-0.262655	0.241038	45.641811	-66.171901	43.073527			
39742	8.429175	2.162807	3.348333	0.500033	-0.765038	-0.533430	46.259065	-66.135515	41.310774			
39743	8.009477	2.098678	3.739026	0.436059	-1.295776	-0.831198	46.795288	-66.180843	39.540207			
39744	7.703009	1.946177	3.661213	0.466269	-1.358429	-1.183350	47.267434	-66.303774	37.741481			
39745	7.425785	1.998166	3.603163	0.296082	-1.407777	-1.443222	47.675776	-66.481282	35.932903			
39746	7.477289	2.148032	3.717232	0.113228	-1.523269	-1.326927	47.975572	-66.717541	34.129808			
39747	7.648243	2.227841	3.694239	0.029975	-1.484421	-1.158130	48.127939	-67.006512	32.372062			
39748	7.827127	2.260361	3.759411	-0.030257	-1.532584	-0.972106	48.136541	-67.338344	30.684344			
39749	8.118192	2.198437	3.647056	0.048594	-1.406218	-0.754069	47.996273	-67.700656	29.099609			
39750	8.332775	1.914237	3.491463	0.313118	-1.313725	-0.676771	47.744238	-68.078195	27.618778			
39751	8.517030	1.547005	3.311477	0.651028	-1.239093	-0.650872	47.386705	-68.444680	26.278644			
39752	8.652346	1.315283	3.306332	0.810822	-1.307524	-0.584632	46.938123	-68.784286	25.096990			
39753	8.785824	1.258614	3.301580	0.815027	-1.318202	-0.470703	46.415981	-69.054363	24.088301			
39754	8.734858	1.334587	3.442917	0.608136	-1.433266	-0.458116	45.843834	-69.229342	23.247016			
39755	8.521317	1.248220	3.504367	0.529428	-1.542479	-0.658910	45.250801	-69.315439	22.542040			
39756	8.209583	1.269463	3.465489	0.369767	-1.526522	-0.949775	44.766940	-69.343206	21.838982			
39757	7.937114	1.377856	3.365540	0.182099	-1.413070	-1.199146	44.436793	-69.344026	21.061561			
39758	7.776188	1.573276	3.321310	-0.055180	-1.299483	-1.310710	44.277584	-69.356931	20.146924			
39759	7.751262	1.733189	3.295480	-0.219942	-1.203919	-1.301029	44.309627	-69.410589	19.050802			
39760	7.910279	2.070375	3.542521	-0.588468	-1.251257	-1.009486	44.569103	-69.543490	17.716477			
39761	8.334149	2.361289	3.784789	-0.840698	-1.289796	-0.485965	44.967284	-69.761409	16.208889			
39762	8.863652	2.731423	4.065119	-1.156953	-1.314239	0.161481	45.447103	-70.044494	14.578505			
39763	9.347775	2.952299	4.202552	-1.315562	-1.291952	0.692455	45.885306	-70.372483	12.934452			
39764	9.601840	3.003414	4.149100	-1.330341	-1.209681	0.920305	46.238847	-70.707971	11.321274			
39765	9.713785	2.896898	4.010573	-1.222214	-1.145638	0.958918	46.482639	-71.024497	9.779901			
39766	9.795044	2.770950	3.976693	-1.159603	-1.178175	0.990174	46.623750	-71.312154	8.318702			
39767	9.846678	2.535400	3.926114	-1.009390	-1.259697	0.966622	46.694476	-71.563938	6.939811			
39768	10.036345	3.270103	3.435959	-1.300549	-0.389514	1.204757	46.337050	-71.730409	5.840173			
39769	9.529543	1.652136	2.535966	0.248845	-0.638837	0.162404	45.046218	-71.705610	5.382448			
39770	8.366066	1.684266	3.645969	-0.838564	-1.439823	-0.683389	44.143228	-71.718023	4.742691			
39771	7.983422	1.442632	4.160277	-1.162168	-1.934979	-0.979304	43.626568	-71.850732	3.743146			
39772	7.870443	1.517553	4.365066	-1.461000	-1.989408	-1.025901	43.495025	-72.087003	2.416248			
39773	8.211090	1.196866	3.872183	-0.897763	-1.825462	-0.884678	43.548845	-72.363203	0.989339			
39774	8.386203	1.256034	4.284079	-1.249659	-2.052278	-0.621103	43.691779	-72.611449	-0.399164			
39775	8.333250	1.396494	4.553598	-1.626936	-2.111924	-0.592016	43.893894	-72.833970	-1.790786			
39776	8.500937	1.222495	4.497327	-1.506890	-2.183391	-0.488102	44.197289	-73.053278	-3.252621			
39777	8.688327	0.974383	4.453659	-1.343902	-2.330929	-0.377025	44.573792	-73.245151	-4.672803			
39778	8.886602	0.989741	4.744480	-1.582701	-2.504140	-0.133570	45.052612	-73.389796	-6.080136			
39779	9.132500	0.775942	4.293962	-1.107953	-2.394081	-0.041131	45.610408	-73.488034	-7.411437			
39780	9.738938	0.730292	3.579956	-0.411381	-2.029898	0.380762	46.381755	-73.544917	-8.575698			
39781	8.942541	2.293338	4.401347	-2.200572	-1.303234	0.089800	47.195168	-73.603676	-9.749002			
39782	9.311482	1.952286	3.427472	-1.181204	-1.022970	0.178348	48.166719	-73.681284	-11.075239			
39783	9.464112	2.304050	3.174047	-1.171115	-0.636381	0.344870	49.150113	-73.736762	-12.299418			
39784	9.670802	2.580023	3.263326	-1.361519	-0.523773	0.613338	50.072656	-73.767619	-13.407629			
39785	9.815163	2.825390	3.481197	-1.645706	-0.505474	0.839778	50.835789	-73.774244	-14.301226			
39786	9.723811	2.918906	3.431818	-1.698079	-0.425446	0.760171	51.498891	-73.796465	-15.125637			
39787	9.813498	2.869878	3.608286	-1.799089	-0.596270	0.862909	51.949371	-73.838001	-15.790503			
39788	9.751392	2.675971	3.654061	-1.757937	-0.776695	0.766018	52.029265	-73.882625	-16.188264			
39789	9.526863	2.440327	3.549038	-1.616386	-0.871252	0.480036	51.843726	-73.935159	-16.337318			
39790	9.296199	2.169320	3.122644	-1.203486	-0.798263	0.126653	51.527438	-74.010638	-16.382231			
39791	9.181417	1.847663	3.316484	-1.227824	-1.135587	-0.019111	51.200835	-74.105056	-16.454747			
39792	9.290044	1.429055	3.675621	-1.281319	-1.663579	0.058884	50.879502	-74.200237	-16.594619			
39793	9.267097	1.187958	3.513699	-1.051383	-1.742523	-0.040557	50.656716	-74.288287	-16.779603			
39794	9.259168	1.122495	2.850642	-0.508608	-1.405855	-0.175096	50.675518	-74.385024	-17.190260			
39795	9.153110	1.102278	2.299604	-0.102341	-1.104102	-0.375895	50.888066	-74.475003	-17.739017			
39796	9.040499	1.107901	1.948318	0.130876	-0.904130	-0.543416	51.242612	-74.537020	-18.388289			
39797	8.822300	1.179569	2.045202	-0.057985	-0.895772	-0.724156	51.768276	-74.574048	-19.135279			
39798	8.785916	1.306287	1.882745	-0.016432	-0.720625	-0.761511	52.501807	-74.603299	-20.121815			
39799	8.856016	1.341854	1.424062	0.343800	-0.482428	-0.762469	53.497231	-74.605192	-21.246844			
39800	8.831591	1.551659	1.469849	0.178897	-0.370087	-0.735464	54.510809	-74.574187	-22.423745			
39801	9.089195	1.836932	1.459075	0.096586	-0.195516	-0.428180	55.502747	-74.518096	-23.571299			
39802	9.540800	2.100500	1.378959	0.135015	-0.021869	0.052486	56.330773	-74.440023	-24.699668			
39803	10.159611	2.248673	1.175993	0.382028	0.098971	0.651600	57.030042	-74.324861	-25.701904			
39804	10.589752	2.557409	1.261262	0.273056	0.222527	1.148597	57.583375	-74.179314	-26.632405			
39805	10.924613	2.690295	1.098390	0.443719	0.340582	1.477941	58.007918	-74.024313	-27.491548			
39806	10.903437	2.769471	0.813148	0.660837	0.520332	1.434914	58.365951	-73.881502	-28.342395			
39807	10.636920	2.457056	0.801318	0.771743	0.264945	1.103238	58.553984	-73.766266	-29.089137			
39808	10.270856	2.084594	0.973446	0.719919	-0.113374	0.687429	58.669096	-73.692342	-29.777676			
39809	9.950136	1.825075	1.135850	0.620620	-0.386673	0.340714	58.804629	-73.692204	-30.478391			
39810	9.810916	1.431226	1.223360	0.670197	-0.760049	0.125733	59.035376	-73.774100	-31.256729			
39811	9.679793	1.220454	1.327909	0.609904	-0.980747	-0.034278	59.341315	-73.914765	-32.024985			
39812	9.601239	1.074384	1.378250	0.569186	-1.121922	-0.135146	59.664866	-74.112416	-32.812484			
39813	9.577178	0.956988	1.251634	0.676444	-1.160559	-0.200192	60.036500	-74.346468	-33.587216			
39814	9.590234	0.988724	1.302419	0.568459	-1.156286	-0.169759	60.526712	-74.597397	-34.434360			
39815	9.700296	0.963759	1.401989	0.459221	-1.237602	-0.053214	61.076471	-74.848515	-35.321124			
39816	9.767475	0.963362	1.255550	0.547087	-1.184145	-0.004207	61.704735	-75.081469	-36.269292			
39817	9.846809	1.022788	1.231400	0.508068	-1.135027	0.085568	62.283450	-75.285262	-37.178441			
39818	9.740234	1.149685	1.398141	0.240078	-1.079984	0.032341	62.746485	-75.453790	-38.001241			
39819	9.665569	1.210388	1.645564	-0.058195	-1.116747	0.002889	63.018973	-75.589212	-38.669700			
39820	9.520778	1.260303	1.797186	-0.272719	-1.107031	-0.108899	63.184215	-75.698900	-39.263821			
39821	9.473664	1.232109	2.055734	-0.528114	-1.220278	-0.131447	63.163917	-75.785155	-39.705289			
39822	9.373541	1.177678	2.209991	-0.685389	-1.301117	-0.222508	63.044515	-75.858046	-40.068579			
39823	9.446145	1.057148	2.259932	-0.687405	-1.421413	-0.171032	62.764738	-75.922038	-40.275850			
39824	9.525443	0.889601	2.156170	-0.528328	-1.524195	-0.139416	62.391758	-75.973758	-40.377427			
39825	9.705095	0.789501	2.380799	-0.673596	-1.705084	0.042224	61.909261	-76.026201	-40.366524			
39826	9.921231	0.938432	2.494194	-0.796580	-1.618321	0.300616	61.391790	-76.078331	-40.318812			
39827	10.031072	1.090365	2.569761	-0.903284	-1.492209	0.452413	60.837730	-76.148826	-40.227980			
39828	10.237833	1.204890	2.536142	-0.879124	-1.372808	0.677280	60.278124	-76.233282	-40.139477			
39829	10.293243	1.106032	2.289957	-0.615195	-1.347957	0.686002	59.636196	-76.333312	-39.982723			
39830	10.381788	0.924674	2.055475	-0.328659	-1.411132	0.711669	58.894252	-76.419725	-39.729722			
39831	10.374995	0.631703	1.823860	-0.022697	-1.566122	0.623436	57.997817	-76.485206	-39.301412			
39832	10.196265	0.355749	1.470013	0.363042	-1.647072	0.356216	57.138911	-76.532629	-38.865657			
39833	10.066629	0.033767	1.349604	0.551613	-1.862264	0.156628	56.387139	-76.568754	-38.475232			
39834	10.004622	-0.184702	1.363594	0.593036	-2.042542	0.059610	55.803983	-76.582821	-38.188830			
