// General information: 
//  MT Manager version: 2022.0.0 
//  XDA version: 2022.0.0 build 7085 rev 119802 built on 2022-11-08
// Device information: 
//  DeviceId: 00B492A8
//  ProductCode: MTW2-3A7G6
//  Firmware Version: 4.6.0
//  Hardware Version: 2.0.0
// Device settings: 
//  Filter Profile: human(46.1)
//  Option Flags: Orientation Smoother Disabled, Position/Velocity Smoother Disabled, Continuous Zero Rotation Update Disabled, AHS Disabled, ICC Disabled
// Coordinate system: ENU
PacketCounter	Acc_X	Acc_Y	Acc_Z	FreeAcc_E	FreeAcc_N	FreeAcc_U	Roll	Pitch	Yaw	Vel_E	Vel_N	Vel_U
12890	9.427792	1.766017	-2.277603	-0.221729	-0.300513	0.038712	149.627451	-72.808945	-45.251131			
12891	9.468624	1.702713	-2.302448	-0.164714	-0.271005	0.074413	149.739558	-72.830615	-45.350744			
12892	9.501573	1.691594	-2.215999	-0.135518	-0.357094	0.082066	149.852765	-72.863699	-45.451664			
12893	9.517454	1.710908	-2.280162	-0.173327	-0.304398	0.116339	149.958123	-72.905393	-45.553118			
12894	9.519838	1.702288	-2.276660	-0.173214	-0.304229	0.116347	150.066896	-72.953570	-45.654693			
12895	9.482722	1.750265	-2.248788	-0.229924	-0.333187	0.080675	150.170967	-73.001582	-45.727949			
12896	9.489283	1.852893	-2.081521	-0.299615	-0.517429	0.059238	150.317885	-73.058347	-45.803353			
12897	9.394111	1.880530	-1.832704	-0.300868	-0.738281	-0.091117	150.492272	-73.109816	-45.895618			
12898	9.366804	1.883713	-1.840719	-0.322780	-0.726973	-0.115216	150.693340	-73.151596	-46.067249			
12899	9.219723	1.709243	-2.126362	-0.262527	-0.382960	-0.209009	150.901685	-73.188332	-46.300676			
12900	9.117198	1.500406	-2.228957	-0.118730	-0.212006	-0.310913	151.115742	-73.221850	-46.534466			
12901	9.109690	1.407962	-2.327289	-0.065459	-0.096566	-0.306296	151.336922	-73.250959	-46.751637			
12902	9.199235	1.420443	-2.443507	-0.097268	-0.013855	-0.189557	151.581757	-73.275804	-46.977136			
12903	9.187938	1.347867	-2.499766	-0.055102	0.055400	-0.196157	151.858112	-73.301804	-47.218702			
12904	9.177526	1.205162	-2.414014	0.085074	0.008544	-0.247149	152.174480	-73.327393	-47.472965			
12905	9.104675	1.192483	-2.370226	0.079136	-0.021246	-0.329631	152.505257	-73.347909	-47.717748			
12906	9.134219	1.274945	-2.311994	0.006309	-0.112668	-0.305216	152.822113	-73.362342	-47.938954			
12907	9.076289	1.414054	-2.206780	-0.125559	-0.245631	-0.369578	153.153704	-73.371573	-48.197578			
12908	9.097481	1.427078	-2.171762	-0.138198	-0.297031	-0.357006	153.512047	-73.371862	-48.493781			
12909	9.140170	1.411577	-2.313767	-0.161119	-0.180280	-0.282195	153.876970	-73.369254	-48.811693			
12910	9.100568	1.351842	-2.330565	-0.128445	-0.152057	-0.323763	154.261486	-73.364427	-49.113809			
12911	9.205695	1.328672	-2.302317	-0.093057	-0.207788	-0.233596	154.652772	-73.357573	-49.407093			
12912	9.218180	1.293580	-2.192176	-0.043978	-0.317366	-0.254909	155.047189	-73.347895	-49.678054			
12913	9.237999	1.226906	-2.093036	0.034354	-0.409427	-0.270262	155.446475	-73.335793	-49.979192			
12914	9.213310	1.036801	-1.988517	0.223637	-0.462492	-0.344304	155.854579	-73.319587	-50.285192			
12915	9.258090	0.930378	-2.032467	0.309870	-0.415514	-0.302689	156.267712	-73.302479	-50.598131			
12916	9.167726	0.935575	-2.168420	0.242258	-0.283700	-0.353018	156.665398	-73.291329	-50.854585			
12917	9.020546	1.019199	-2.126782	0.133590	-0.325909	-0.495600	157.056563	-73.284416	-51.067812			
12918	8.857104	1.102324	-1.974223	0.051819	-0.466922	-0.683600	157.411692	-73.276746	-51.216979			
12919	8.786965	1.186238	-1.927639	-0.038152	-0.530942	-0.754524	157.759092	-73.251072	-51.408510			
12920	8.904896	1.118921	-2.207546	-0.032742	-0.291743	-0.574927	158.081768	-73.208921	-51.634996			
12921	8.965782	0.958175	-2.524779	0.041737	0.021501	-0.449161	158.397704	-73.161513	-51.889134			
12922	9.025469	0.655959	-2.629644	0.305203	0.177655	-0.395700	158.748990	-73.094872	-52.183809			
12923	9.172862	0.295914	-2.730814	0.640484	0.323665	-0.264323	159.142551	-73.005008	-52.540740			
12924	9.213642	0.020085	-2.940615	0.849437	0.566527	-0.195190	159.520050	-72.899980	-52.874547			
12925	9.291890	-0.049527	-3.010839	0.908714	0.608541	-0.106468	159.839528	-72.771944	-53.117319			
12926	9.380481	0.091472	-2.972766	0.801546	0.483884	-0.016645	160.120618	-72.628836	-53.259607			
12927	9.468426	0.396146	-2.802970	0.577197	0.186406	0.051221	160.379134	-72.467676	-53.377727			
12928	9.407984	0.549580	-2.471367	0.515432	-0.178200	-0.085284	160.575407	-72.323298	-53.482162			
12929	9.333796	0.392838	-2.276218	0.709401	-0.318796	-0.228833	160.814391	-72.155652	-53.684939			
12930	9.395210	0.205113	-2.312656	0.896048	-0.271947	-0.180268	161.022431	-71.987300	-53.855022			
12931	9.431372	0.310960	-2.174805	0.848266	-0.467223	-0.177371	161.177315	-71.828817	-53.945144			
12932	9.489193	0.560635	-2.002355	0.680198	-0.742498	-0.150675	161.290002	-71.663293	-53.982064			
12933	9.770000	0.683064	-1.922824	0.650587	-0.950701	0.101421	161.389230	-71.494227	-54.051764			
12934	9.831674	0.536683	-1.895401	0.820607	-0.973191	0.133257	161.493233	-71.324349	-54.173488			
12935	9.800523	0.336288	-2.120348	0.956069	-0.725355	0.148182	161.586772	-71.149103	-54.333595			
12936	9.627661	0.352828	-2.243326	0.887915	-0.600587	0.020912	161.670662	-70.979980	-54.434670			
12937	9.365828	0.695433	-2.043079	0.580508	-0.846312	-0.256368	161.750655	-70.810647	-54.511588			
12938	9.235649	1.001960	-1.876684	0.323603	-1.084194	-0.402968	161.809047	-70.632403	-54.604494			
12939	9.277750	1.221590	-1.912550	0.128533	-1.157034	-0.332632	161.833511	-70.444767	-54.748285			
12940	9.234219	1.239667	-2.004214	0.093992	-1.093702	-0.345938	161.825763	-70.249680	-54.933244			
12941	9.275426	1.040841	-2.227747	0.248167	-0.867552	-0.259394	161.796531	-70.049315	-55.163104			
12942	9.245675	0.897034	-2.313969	0.374233	-0.764295	-0.277628	161.741638	-69.854578	-55.331938			
12943	9.434220	0.902420	-2.038699	0.492633	-1.096401	-0.193421	161.658868	-69.659330	-55.490969			
12944	9.612938	0.755370	-2.099612	0.671032	-1.076263	-0.026023	161.561972	-69.457983	-55.693980			
12945	9.495613	0.377799	-2.312403	0.973731	-0.767131	-0.111148	161.479405	-69.272959	-55.932215			
12946	9.437477	0.138213	-2.406887	1.185380	-0.624344	-0.164727	161.434532	-69.091472	-56.133507			
12947	9.422521	-0.002161	-2.389522	1.336342	-0.624965	-0.204501	161.409507	-68.911354	-56.295436			
12948	9.275066	-0.007462	-2.356046	1.335245	-0.638957	-0.358237	161.411889	-68.724598	-56.455902			
12949	9.222249	-0.075358	-2.623762	1.344891	-0.390564	-0.326998	161.442565	-68.530271	-56.652533			
12950	9.080530	-0.187665	-2.867156	1.385164	-0.126771	-0.390535	161.508267	-68.330079	-56.831181			
12951	8.910225	-0.060263	-3.065520	1.200435	0.039504	-0.466542	161.593537	-68.119934	-56.956709			
12952	8.860099	0.394030	-2.966815	0.792812	-0.190197	-0.496370	161.666582	-67.901519	-56.974257			
12953	8.870528	0.870304	-2.636018	0.427985	-0.656199	-0.551025	161.730901	-67.672268	-56.988905			
12954	8.927174	1.164070	-2.601301	0.185515	-0.821126	-0.479550	161.780638	-67.417812	-57.064978			
12955	9.046866	1.142788	-2.797492	0.208617	-0.713881	-0.303513	161.826815	-67.149542	-57.195262			
12956	9.174452	0.931429	-2.928874	0.430696	-0.619576	-0.166607	161.880657	-66.871180	-57.293259			
12957	9.379959	1.065643	-2.993794	0.355177	-0.706878	0.059293	161.911937	-66.594084	-57.340020			
12958	9.443968	1.306321	-2.856632	0.192499	-0.958986	0.091779	161.924073	-66.317545	-57.365234			
12959	9.396267	1.329510	-2.793785	0.196887	-1.046046	0.022429	161.938745	-66.045274	-57.444588			
12960	9.292759	1.212152	-2.683320	0.332518	-1.118102	-0.134672	161.938228	-65.769032	-57.527439			
12961	9.187071	1.206860	-2.572431	0.360023	-1.218146	-0.280504	161.916739	-65.500003	-57.600868			
12962	9.346342	1.189536	-2.448773	0.460646	-1.418005	-0.192787	161.880669	-65.229349	-57.673384			
12963	9.487839	1.064432	-2.543921	0.616429	-1.386380	-0.049418	161.817078	-64.967927	-57.770129			
12964	9.528714	0.872821	-2.706894	0.801676	-1.241399	0.021007	161.740233	-64.703680	-57.861207			
12965	9.706082	0.814535	-2.567234	0.949160	-1.452494	0.109579	161.667963	-64.443425	-57.945596			
12966	9.979295	0.924713	-2.385041	0.966163	-1.782815	0.287696	161.586076	-64.174911	-58.024761			
12967	10.223426	1.083507	-2.388197	0.895707	-1.950367	0.521213	161.464387	-63.912545	-58.123634			
12968	10.384250	1.197370	-2.358806	0.856299	-2.102863	0.659889	161.301382	-63.664313	-58.202490			
12969	10.620084	1.236534	-2.108697	0.943111	-2.457316	0.762463	161.113702	-63.438930	-58.272596			
12970	10.836777	1.203558	-1.602130	1.135079	-3.010720	0.727625	160.906426	-63.248511	-58.307740			
12971	10.929254	1.105703	-1.046522	1.359837	-3.537639	0.550820	160.673359	-63.104869	-58.344709			
12972	10.948039	0.917542	-0.680805	1.615362	-3.840587	0.375807	160.422060	-62.995020	-58.398376			
12973	10.741472	0.631804	-0.593063	1.859119	-3.782285	0.105383	160.123511	-62.921341	-58.493023			
12974	10.570710	0.242976	-0.999342	2.135916	-3.271245	0.063265	159.779798	-62.884371	-58.572313			
12975	10.527810	-0.361089	-1.879783	2.588201	-2.328907	0.305422	159.434422	-62.937733	-58.534183			
12976	10.445078	-0.461741	-1.499784	2.730108	-2.586912	0.057288	158.932421	-63.106624	-58.094724			
12977	10.329520	0.339621	-0.916361	2.031511	-3.192394	-0.151667	158.324827	-63.302440	-57.490971			
12978	10.212772	0.265133	-0.733974	2.121570	-3.247613	-0.333157	157.795728	-63.454832	-57.027855			
12979	10.799523	0.529524	-0.230978	2.094730	-3.947194	0.035925	157.262734	-63.493071	-56.760891			
12980	11.440414	-0.042198	-0.811813	2.739583	-3.525867	0.751726	156.744773	-63.505100	-56.685988			
12981	12.083043	-0.550411	-1.087868	3.362111	-3.404807	1.349294	156.250606	-63.519092	-56.656346			
12982	12.483671	-0.721217	-0.944549	3.651980	-3.641542	1.617822	155.727984	-63.581078	-56.513529			
12983	12.521319	-0.810607	-0.539811	3.797576	-3.976709	1.478724	155.243219	-63.761382	-56.262025			
12984	12.130485	-0.153587	-0.175183	3.110590	-4.240997	1.120783	154.780096	-64.009586	-55.860947			
12985	12.012518	0.901330	-0.387390	2.051322	-4.135588	1.320662	154.246039	-64.313917	-55.254791			
12986	13.112059	2.133094	-0.342910	1.162781	-4.707868	2.559717	153.457111	-64.698601	-54.330320			
12987	14.162206	3.138107	-0.019932	0.521916	-5.402925	3.639009	152.143099	-65.362913	-52.944894			
12988	13.591585	3.365316	-0.134892	0.166883	-4.925528	3.293807	150.619052	-66.248476	-51.336777			
12989	12.603311	4.206590	-0.019143	-0.883419	-4.636284	2.607373	149.002602	-67.211386	-49.771358			
12990	12.101887	4.211549	-0.411786	-1.091371	-3.857980	2.364338	147.028852	-68.286879	-48.165492			
12991	11.104936	3.669611	-0.545432	-0.884948	-3.069015	1.451113	144.752127	-69.555385	-46.234898			
12992	10.602347	4.047966	-0.000466	-1.367844	-3.227420	0.980825	141.972105	-70.907588	-43.625340			
12993	10.676002	4.876705	0.426630	-2.161119	-3.473471	1.196203	138.581405	-72.301220	-40.436124			
12994	11.080968	5.150852	-0.325264	-2.494475	-2.526597	1.883776	134.909838	-73.632838	-37.282092			
12995	11.335683	4.787543	-1.122069	-2.272117	-1.377688	2.253996	131.072187	-74.901317	-34.367724			
12996	12.178486	4.154563	-2.307602	-1.700434	0.102070	3.148316	127.434647	-76.090458	-31.992238			
12997	12.344369	3.570710	-3.642691	-1.312659	1.817601	3.354089	123.651216	-77.395257	-29.811751			
12998	12.061146	2.629055	-4.041976	-0.573634	2.653404	2.889334	119.993417	-78.815371	-28.051167			
12999	11.502906	1.310404	-4.462742	0.514624	3.460892	2.091148	116.297363	-80.296107	-26.276001			
13000	10.870863	-0.224717	-5.488195	1.850063	4.760250	1.244416	111.884658	-81.764314	-23.288075			
13001	10.083424	-1.410351	-6.037602	2.856661	5.528993	0.256193	104.380415	-82.918028	-16.452641			
13002	9.718207	-0.816965	-4.838138	2.103150	4.571402	-0.159048	95.089916	-83.479891	-6.903350			
13003	10.696435	1.388032	-3.122644	-0.101455	3.130807	0.970366	84.415068	-83.635050	4.331833			
13004	10.512442	2.935545	-2.705755	-1.722358	2.969223	0.895370	73.197392	-83.602581	15.780638			
13005	10.633042	2.757261	-2.105652	-1.613341	2.597515	0.945673	61.223793	-83.633713	27.551461			
13006	10.003427	0.819719	-2.272844	0.158858	2.900022	0.059830	49.083387	-83.594908	39.229464			
13007	10.034860	-0.381630	-2.740556	1.267264	3.524759	-0.100806	37.477095	-83.264602	50.498271			
13008	9.620564	-1.015389	-2.665483	1.766082	3.577217	-0.605537	27.894355	-82.655406	59.972053			
13009	9.556554	-0.850741	-1.774412	1.469668	2.876329	-0.605996	20.288702	-81.913624	67.594665			
13010	9.075521	-1.888789	-2.148534	2.391347	3.317662	-1.220831	14.111776	-81.107790	73.955420			
13011	8.270829	-1.804465	-1.960635	2.168682	3.174698	-2.020236	9.807337	-80.293338	78.684974			
13012	8.135922	-1.796734	-2.823537	2.083164	4.146505	-2.338854	7.099253	-79.496026	82.067589			
13013	7.793272	-1.399342	-2.604922	1.578694	4.013333	-2.679858	5.576703	-78.671226	84.593126			
13014	7.493975	-0.581003	-2.471198	0.662590	3.943592	-2.985446	4.823403	-77.889900	86.488585			
13015	7.322572	-0.400832	-2.502273	0.387032	4.037170	-3.210277	4.395998	-77.119129	88.146080			
13016	6.923442	0.027044	-2.519032	-0.133928	4.033372	-3.648846	4.424917	-76.377538	89.379584			
13017	6.856426	0.773633	-2.420812	-0.959660	3.939994	-3.727965	4.759841	-75.649349	90.453295			
13018	6.395745	1.638945	-1.654945	-1.822712	3.053094	-4.008686	5.299463	-74.932434	91.223929			
13019	6.129728	2.565061	-0.445170	-2.643811	1.742221	-3.953835	5.851360	-74.322603	91.828339			
13020	5.954281	2.875704	0.040632	-2.901154	1.194538	-3.991935	6.244504	-73.899390	92.364166			
13021	6.082949	3.282577	0.107939	-3.303661	1.100296	-3.840720	6.507947	-73.618126	92.815589			
13022	5.899679	3.552459	0.165777	-3.565371	0.941369	-3.994131	6.543118	-73.427836	93.235718			
13023	5.698655	3.552271	0.337443	-3.542665	0.713815	-4.142843	6.292110	-73.328094	93.755596			
13024	5.108692	3.261164	0.378012	-3.246777	0.545708	-4.709998	6.069936	-73.365577	94.126979			
13025	5.070867	3.425281	0.133014	-3.453736	0.721977	-4.811251	6.054236	-73.544206	94.192906			
13026	5.208737	3.477424	-0.109481	-3.548094	0.959514	-4.740635	6.137277	-73.823538	94.095533			
13027	5.333018	3.196838	0.344422	-3.190560	0.585569	-4.496974	6.228505	-74.196673	93.989329			
13028	5.652336	2.742188	1.284962	-2.580619	-0.178518	-3.945150	6.224096	-74.680524	93.893054			
13029	6.036316	1.505308	1.962509	-1.250401	-0.562851	-3.435083	6.150717	-75.301706	93.779837			
13030	7.059169	0.316484	2.331524	-0.029828	-0.532181	-2.390879	6.234192	-75.998835	93.465511			
13031	8.443208	-0.780117	2.931469	1.138610	-0.687385	-0.940259	6.419688	-76.641556	93.011844			
13032	10.363041	-1.846625	3.589654	2.281642	-0.807445	1.042244	6.494729	-77.133490	92.736276			
13033	11.784881	-2.982067	4.660077	3.566331	-1.407747	2.628852	6.613659	-77.330600	92.810869			
13034	12.611574	-3.414581	5.886514	4.236907	-2.303210	3.681922	7.831889	-77.171223	92.422968			
13035	13.184231	-1.640862	7.263892	2.888226	-3.663579	4.592512	10.136220	-76.745632	91.690563			
13036	13.240445	0.625226	9.088169	1.321487	-5.642564	5.177208	12.680410	-76.108880	91.071058			
13037	12.731809	2.393488	10.593599	0.297793	-7.385794	5.200643	14.521318	-75.386127	90.996922			
13038	11.709589	2.735485	11.778188	0.556948	-8.647701	4.617262	14.847600	-74.730080	91.892628			
13039	10.609120	1.443594	11.447393	1.806355	-8.130649	3.465439	13.990210	-74.328734	93.089809			
13040	9.955511	-0.270989	8.712391	2.628696	-5.238300	2.050752	13.062196	-74.177960	93.979547			
13041	9.924809	0.263374	6.149996	1.315380	-3.020560	1.391745	12.127764	-74.052319	94.686582			
13042	9.046008	0.886677	5.019272	0.358872	-2.379761	0.287672	11.256690	-73.923093	95.386110			
13043	8.283797	1.606155	4.196439	-0.592989	-2.015776	-0.625961	10.336135	-73.803449	96.123838			
13044	7.484687	2.317139	3.638400	-1.456350	-1.911225	-1.514877	9.237841	-73.782925	96.995943			
13045	7.277619	2.438948	2.920637	-1.815633	-1.344728	-1.917294	7.963978	-73.884327	97.938302			
13046	7.403488	1.431799	0.790433	-1.465878	0.905850	-2.429129	6.854034	-74.106758	98.851934			
13047	8.005156	1.314634	-1.112430	-1.909798	2.824356	-2.367974	6.058827	-74.399336	99.630903			
13048	8.790687	0.861196	-3.513642	-2.164175	5.325327	-2.241673	5.434201	-74.828275	100.329053			
13049	9.302290	0.423857	-5.445103	-2.322154	7.283952	-2.202745	4.449444	-75.464515	101.651688			
13050	9.391039	0.032447	-5.744982	-2.104814	7.569001	-2.100742	3.051087	-76.330637	103.486914			
13051	10.440336	-1.089413	-5.410334	-1.082213	7.630425	-0.865260	1.071880	-77.670186	106.014491			
13052	14.980494	-3.643539	-2.084806	1.982389	5.923690	4.435326	0.003797	-79.136497	107.953305			
13053	20.670971	-4.844529	2.029366	4.128955	3.300316	10.849657	3.947810	-79.722094	105.745131			
13054	21.836399	-0.102055	7.654279	1.890727	-3.038330	13.047006	11.214788	-78.918724	101.652749			
13055	14.201002	8.133882	13.297595	-2.472983	-12.214638	7.193963	17.858129	-76.927946	98.038057			
13056	3.947429	11.634596	9.064122	-6.431516	-12.077513	-3.041889	21.968714	-75.893962	95.911069			
13057	1.282782	8.974747	-2.834330	-9.279427	-1.416079	-8.359929	23.713212	-76.508492	94.841150			
13058	0.457590	7.178279	-8.458477	-10.313192	4.067647	-10.420653	24.980975	-77.868654	92.620473			
13059	0.603803	6.068868	-10.083642	-9.922081	6.323480	-10.454995	27.378858	-79.866853	87.887640			
13060	5.268780	5.917303	-12.810282	-10.547661	10.010232	-5.892235	31.497257	-82.344399	81.186583			
13061	10.407901	2.892246	-9.962025	-6.196766	9.291749	-0.263921	30.857825	-84.710534	79.997989			
13062	14.415991	-2.619611	-0.798200	2.335106	2.797252	4.401043	25.459108	-86.122826	84.642199			
13063	11.535843	-5.453753	0.419728	5.300643	2.187879	1.593865	19.510023	-86.744678	90.488972			
13064	10.948744	-6.518532	0.928297	6.425356	1.918823	1.062038	17.031476	-87.427869	93.100918			
13065	10.609296	-5.730241	-0.129652	5.337802	2.489743	0.709497	23.858494	-88.172535	86.077955			
13066	10.744945	-4.072136	-2.926236	2.907054	4.403553	0.805871	47.030222	-88.760700	62.579311			
13067	10.636267	-2.752140	-3.953252	1.420161	4.795997	0.737776	79.887193	-88.894882	29.412789			
13068	9.733433	-2.008174	-3.219172	1.033303	3.749053	-0.116750	107.196565	-88.697125	1.796963			
13069	9.245474	-1.631799	-2.720270	0.902094	3.064092	-0.574838	125.890874	-88.273245	-17.131874			
13070	8.828040	-1.118926	-2.431732	0.557569	2.541292	-0.962281	136.663618	-87.720775	-27.786907			
13071	8.713962	-0.050917	-1.549522	-0.118672	1.282520	-1.056144	141.039031	-87.080726	-31.468422			
13072	8.880233	1.281935	-0.588302	-0.967430	-0.154107	-0.874741	141.300169	-86.341591	-30.411261			
13073	9.317891	2.783339	0.530811	-1.804272	-1.836983	-0.420224	138.907431	-85.526023	-26.354711			
13074	10.031482	4.803433	0.996977	-3.237787	-3.155604	0.397691	135.355784	-84.800370	-21.410903			
13075	9.957836	5.972330	1.573561	-3.915072	-4.205017	0.399674	133.149403	-84.437757	-18.772251			
13076	8.606806	4.601843	2.478321	-2.390260	-4.446005	-1.099735	136.769563	-84.221098	-23.002969			
13077	8.082778	2.821519	1.785408	-1.141011	-3.151393	-1.735253	145.039073	-83.577541	-32.739667			
13078	9.090505	2.202228	-0.316155	-1.293574	-1.188811	-0.620427	152.955455	-82.472649	-42.778648			
13079	10.858948	1.379071	-4.028537	-1.567217	2.233790	1.527446	158.838077	-81.639415	-51.058957			
13080	9.297970	-1.029294	-4.189040	0.611469	3.149572	-0.078024	163.073821	-81.198620	-57.367638			
13081	7.572295	-2.383240	-4.702012	1.718498	4.095507	-1.725676	165.132620	-80.696148	-60.776489			
13082	7.871768	-2.391171	-4.070044	1.985351	3.337126	-1.495935	165.101861	-80.008292	-61.113731			
13083	9.015032	-0.790280	-2.876966	0.885783	1.535233	-0.483725	164.031361	-79.248968	-59.743427			
13084	9.911234	0.472202	-1.408862	0.184068	-0.412174	0.199077	163.125125	-78.583594	-58.346780			
13085	9.933772	1.179720	0.008473	-0.070848	-2.024376	-0.016376	162.744307	-78.043624	-57.834524			
13086	9.639165	0.915088	0.173358	0.233719	-2.141636	-0.371346	163.198106	-77.459091	-58.782234			
13087	9.652520	-0.128771	-0.981791	0.980813	-0.890513	-0.200440	164.182072	-76.837395	-60.704288			
13088	9.426559	-1.300501	-2.382913	1.796626	0.638668	-0.190195	165.093010	-76.294433	-62.647805			
13089	8.736216	-2.243967	-3.149496	2.511651	1.600570	-0.734980	165.804062	-75.776774	-64.015361			
13090	8.482166	-1.855303	-2.866363	2.195319	1.200812	-1.018196	165.912290	-75.162933	-64.289231			
13091	9.303304	-0.528303	-2.848496	1.039895	0.626630	-0.144720	165.767560	-74.534087	-63.916748			
13092	9.454907	0.672488	-2.041496	0.090141	-0.516416	-0.130766	165.680350	-73.964848	-63.424987			
13093	9.532232	1.585102	-1.377709	-0.607172	-1.447030	-0.178856	165.614826	-73.422895	-63.007732			
13094	9.769403	2.105583	-0.942503	-0.944518	-2.118305	-0.046270	165.606513	-72.892618	-62.825082			
13095	9.839360	2.353956	-0.518700	-1.050103	-2.672410	-0.097853	165.713599	-72.376473	-62.969722			
13096	9.674596	2.195472	-0.281637	-0.846532	-2.891196	-0.356417	165.909015	-71.862079	-63.401060			
13097	9.584519	1.824624	-0.218014	-0.473260	-2.916285	-0.511580	166.058290	-71.355600	-63.934978			
13098	9.684776	1.393496	-0.134225	-0.016337	-3.000056	-0.498523	166.140977	-70.885518	-64.452569			
13099	9.873219	1.040293	0.150475	0.410765	-3.313251	-0.461830	166.135685	-70.457464	-64.887572			
13100	10.329208	0.524832	0.486571	1.037080	-3.723587	-0.207288	166.077660	-70.068943	-65.327763			
13101	10.647473	-0.175975	0.471384	1.758115	-3.736684	0.014193	165.974730	-69.722266	-65.852437			
13102	10.928041	-0.809748	-0.033012	2.330365	-3.309676	0.370326	165.814716	-69.420717	-66.446906			
13103	10.932048	-1.351829	-0.716315	2.759501	-2.651716	0.541217	165.563919	-69.189574	-66.991669			
13104	10.713809	-1.599051	-1.144639	2.917496	-2.204030	0.448065	165.297949	-69.016740	-67.405639			
13105	10.551915	-1.371270	-1.106214	2.679453	-2.266010	0.293381	165.039262	-68.892082	-67.605090			
13106	10.600613	-0.673424	-0.919215	2.026351	-2.584544	0.330559	164.759255	-68.801162	-67.628192			
13107	10.601645	0.098178	-0.942566	1.273811	-2.683259	0.408392	164.435977	-68.752730	-67.586458			
13108	10.682519	0.519047	-1.201707	0.855127	-2.529964	0.613134	164.083392	-68.721779	-67.602989			
13109	10.624608	0.528755	-1.895180	0.783890	-1.862336	0.801963	163.760383	-68.738022	-67.689443			
13110	10.202358	0.250590	-2.064225	0.996715	-1.519591	0.439596	163.361961	-68.784057	-67.590463			
13111	10.596466	0.853913	-2.194117	0.471410	-1.583426	0.915723	162.641779	-68.813981	-67.070546			
13112	11.561616	1.699732	-2.042309	-0.171752	-2.113746	1.859216	161.765769	-68.888743	-66.294959			
13113	11.428746	2.078313	-1.400182	-0.473987	-2.669185	1.569165	160.911197	-69.030882	-65.574876			
13114	11.731037	1.983132	-0.288583	-0.227726	-3.758164	1.477020	160.165393	-69.092350	-65.143068			
13115	12.388588	1.668809	0.356230	0.239157	-4.515818	1.846604	159.406972	-69.086657	-64.924456			
13116	12.362386	1.339011	0.403524	0.571006	-4.498464	1.772739	158.564015	-69.101230	-64.776851			
13117	12.730102	1.090518	0.910550	0.891053	-5.043816	1.927826	157.669016	-69.196848	-64.586789			
13118	13.304982	1.108350	1.198335	0.963022	-5.450538	2.395948	156.712312	-69.428871	-64.213176			
13119	13.664275	1.522251	1.136968	0.605283	-5.444520	2.848752	155.604276	-69.815316	-63.572086			
13120	13.979941	1.763924	1.322831	0.412080	-5.603328	3.176952	154.268426	-70.343174	-62.819361			
13121	14.228564	1.257436	0.998023	0.932378	-5.180836	3.503313	152.677982	-70.975646	-62.035795			
13122	14.258729	0.793642	-0.176813	1.389547	-3.855128	3.868520	150.825310	-71.764206	-61.008784			
13123	13.098415	0.668587	-1.017287	1.353178	-2.472006	3.036480	148.285682	-72.882591	-59.023652			
13124	10.960099	1.608973	-1.616147	0.136726	-1.053056	1.331287	144.719851	-74.195812	-55.582732			
13125	10.718128	3.535623	-1.086916	-1.778668	-1.196297	1.320881	139.991985	-75.442567	-50.607693			
13126	11.768711	6.018088	-0.017536	-4.025849	-2.124663	2.596475	134.253340	-76.611822	-44.502743			
13127	11.877432	7.610032	1.201873	-5.562263	-2.983469	2.859195	128.061054	-77.796159	-38.464666			
13128	11.494375	5.814724	0.223720	-3.866254	-1.570104	2.375691	122.783092	-78.787572	-34.257284			
13129	12.201968	3.652343	-2.219585	-1.597096	1.082386	2.971054	118.709905	-79.756947	-31.732569			
13130	12.363163	1.662351	-3.696218	0.417870	2.711569	2.905057	115.017011	-80.877005	-29.846550			
13131	12.199423	-0.018630	-3.756870	1.990312	2.860984	2.466990	110.759288	-82.129806	-27.499042			
13132	11.550449	-1.187413	-4.164488	3.045078	3.340632	1.664733	104.676148	-83.365870	-23.195373			
13133	10.805001	-1.568930	-4.545351	3.358296	3.867918	0.846934	93.394159	-84.434210	-13.390116			
13134	9.897830	-2.034424	-4.038710	3.615752	3.501439	-0.164899	77.711623	-85.079732	1.351105			
13135	9.158185	-1.312900	-4.022934	2.821373	3.804193	-0.905090	62.954117	-85.179083	15.639365			
13136	9.761021	-0.387259	-4.822392	2.101060	4.944201	-0.335292	52.278552	-85.013830	26.259899			
13137	10.737554	-0.192848	-3.537874	1.697492	3.940364	0.648520	41.721785	-84.556298	37.148519			
13138	10.212033	-0.255641	-3.853846	1.718724	4.412116	0.024882	32.905054	-83.922655	46.625039			
13139	10.007863	-0.431288	-2.319978	1.533173	3.077712	-0.122598	25.530311	-83.055766	54.823887			
13140	9.851010	-0.410757	-1.633514	1.327454	2.617696	-0.259663	19.526807	-82.079998	61.578582			
13141	9.299331	-0.576520	-0.486625	1.225035	1.614732	-0.705823	14.372119	-81.094343	67.131680			
13142	9.132038	-2.082741	-1.393128	2.782063	2.449635	-1.098983	10.530977	-80.072701	71.256891			
13143	7.920972	-2.354129	-1.361356	2.933365	2.363860	-2.333253	8.119225	-79.107624	74.248784			
13144	7.874348	-1.907152	-2.180453	2.548488	3.379201	-2.568345	6.994550	-78.149261	76.213900			
13145	7.380897	-0.748742	-1.831121	1.292165	3.231014	-3.009735	6.590449	-77.175727	77.583426			
13146	7.200967	0.024816	-1.960288	0.487104	3.523221	-3.251787	6.345885	-76.242132	78.743857			
13147	6.870384	0.261318	-2.043421	0.198150	3.653988	-3.643905	6.122565	-75.351234	79.903405			
13148	6.501642	0.556067	-1.657451	-0.181149	3.296966	-3.945478	6.170864	-74.585962	80.820655			
13149	6.080110	0.703681	-1.780279	-0.380946	3.374048	-4.418008	6.500104	-73.989106	81.459621			
13150	6.259907	1.344542	-1.702238	-1.052987	3.409049	-4.230459	7.088472	-73.542067	81.853699			
13151	6.383219	1.685689	-1.898399	-1.421376	3.661404	-4.176679	7.590493	-73.101026	82.231842			
13152	6.011403	1.853034	-1.369264	-1.632091	3.066228	-4.392354	7.982091	-72.689833	82.640148			
13153	5.768832	1.712070	-1.331359	-1.525734	2.968102	-4.631417	8.420542	-72.406945	83.004784			
13154	5.926074	2.297587	-0.938494	-2.111930	2.626651	-4.342910	8.994518	-72.219133	83.145144			
13155	5.942825	2.822844	-0.654110	-2.634253	2.332869	-4.215198	9.442890	-72.088379	83.289941			
13156	5.574015	3.141311	-0.348188	-2.957568	1.897177	-4.454313	9.675977	-72.067574	83.542880			
13157	4.899128	3.407790	-0.343511	-3.256432	1.646073	-5.077871	9.696167	-72.203563	83.881284			
13158	4.361576	3.471957	-0.585057	-3.365355	1.674064	-5.654336	9.605760	-72.542788	84.204037			
13159	4.166252	3.087210	-1.189015	-3.042060	2.172227	-6.027271	9.572330	-73.068981	84.431354			
13160	4.190766	2.786928	-1.013597	-2.736882	1.981299	-5.947392	9.906726	-73.730402	84.291480			
13161	4.735860	2.534551	-0.532420	-2.429110	1.629655	-5.276279	10.806721	-74.521090	83.443492			
13162	5.897525	2.312880	0.080982	-2.104973	1.285400	-3.977208	12.167861	-75.414997	81.974917			
13163	7.439055	1.859838	1.115496	-1.493134	0.594318	-2.232524	13.489283	-76.367871	80.342808			
13164	9.334394	0.468682	2.412803	0.072224	-0.286310	-0.164754	14.234462	-77.353002	79.125831			
13165	11.660228	-1.932808	4.097897	2.633124	-1.491000	2.325229	13.800611	-78.260180	79.066467			
13166	13.828242	-4.621104	5.880382	5.408046	-2.864958	4.668187	12.456556	-78.856192	80.131274			
13167	15.531969	-6.597502	6.561316	7.437089	-3.181054	6.385775	12.615924	-78.974552	80.640042			
13168	17.509759	-4.906088	7.559048	6.108493	-3.673722	8.543897	16.640994	-78.569753	79.236672			
13169	19.166870	0.888051	11.471324	1.576807	-7.326404	11.246121	22.711906	-77.329357	77.343910			
13170	17.303855	6.985189	15.820209	-2.546717	-12.449921	11.087917	26.741705	-75.305741	77.043075			
13171	12.070362	9.284399	17.728395	-3.626392	-15.645156	7.163924	26.506062	-73.703690	79.423201			
13172	7.722644	4.316284	14.306051	0.278447	-12.186671	1.777776	24.085949	-73.397106	82.310287			
13173	7.589889	1.538793	8.379228	1.176294	-5.995969	-0.176839	22.341644	-73.618781	83.885281			
13174	7.838803	2.617762	5.252586	-0.831824	-3.350596	-0.649176	21.054124	-73.831532	84.564526			
13175	7.261901	3.679126	3.541198	-2.426387	-2.188246	-1.558314	19.491049	-73.841201	85.345343			
13176	5.634610	4.100031	3.146742	-3.059829	-2.336176	-3.206632	17.683567	-73.820440	86.380277			
13177	5.159413	2.997453	0.835895	-2.630359	-0.036254	-4.392106	16.176438	-74.157140	87.160713			
13178	7.587088	1.854897	-2.303249	-2.242052	3.782290	-2.958750	14.935030	-74.926389	87.858545			
13179	10.559722	0.716394	-3.615598	-1.411482	5.917958	-0.427807	13.497046	-75.977844	88.836284			
13180	12.744799	-0.663967	-5.263934	-0.436274	8.083854	1.369080	11.217524	-77.339510	90.606707			
13181	14.462100	-2.139839	-8.357759	0.286105	11.387912	2.588626	7.957912	-79.091746	93.798120			
13182	15.641053	-1.884144	-9.170422	-0.249417	11.882050	4.007671	5.416472	-81.266485	96.419945			
13183	21.384310	-3.153446	-5.363830	1.668214	8.947275	10.513690	8.075949	-81.976288	94.326586			
13184	23.203749	-0.163907	6.507624	1.655362	-2.727300	14.073320	17.235198	-80.724221	87.922608			
13185	16.440199	6.788554	11.982053	-2.775294	-10.084504	8.904686	23.806380	-77.431436	84.908652			
13186	2.536777	9.062979	6.561600	-6.180281	-8.353641	-4.954230	26.775702	-74.263900	84.591920			
13187	-3.862967	7.315609	0.187166	-6.791155	-3.857650	-12.545743	28.375819	-73.712495	84.604670			
13188	-5.969923	7.003016	-7.350145	-9.463328	2.392587	-16.402055	28.175282	-75.791203	84.398901			
13189	-4.685238	7.608686	-13.002673	-11.902361	8.215422	-16.108242	26.974819	-79.369820	82.530473			
13190	5.527560	4.273399	-19.522486	-9.867203	17.975028	-6.767319	24.518390	-82.929665	81.095524			
13191	21.195498	-2.958770	-8.065779	1.213183	10.652350	10.387133	21.189796	-85.267836	81.630530			
13192	14.501143	-6.709086	-2.832761	6.029006	5.372017	4.262459	15.277045	-85.628948	87.403569			
13193	9.550862	-4.215703	1.576657	4.511012	0.125801	-0.267441	19.119666	-86.099468	84.870916			
13194	10.158641	-1.898989	1.210604	2.270768	-0.089699	0.341230	35.677489	-86.849757	69.406581			
13195	12.777262	-0.420441	-1.255591	0.383861	1.895282	2.886481	52.376501	-87.233828	53.013657			
13196	10.544131	-1.104312	0.266585	1.447175	0.380252	0.686317	62.562192	-87.656215	42.446648			
13197	8.989135	-2.335289	-0.985058	2.287596	1.731625	-0.924774	77.539842	-88.010989	26.496640			
13198	9.027193	-3.474787	-3.654681	2.817635	4.455228	-0.917178	95.980103	-87.991656	7.067830			
13199	9.218748	-3.567994	-4.498369	2.829227	5.171104	-0.691042	110.606779	-87.614788	-8.005932			
13200	9.311544	-2.482620	-3.624871	2.050374	3.982197	-0.542038	119.848375	-87.036924	-17.169273			
13201	8.992816	-1.237043	-2.914723	1.036335	2.938911	-0.802432	126.017533	-86.398555	-22.822897			
13202	8.543884	0.077288	-2.086116	-0.032315	1.758400	-1.195153	131.111461	-85.717534	-27.055433			
13203	8.606316	1.307624	-1.050485	-0.911208	0.347510	-1.098940	135.301478	-84.942325	-30.194500			
13204	9.217135	2.445148	0.232471	-1.535835	-1.338173	-0.494082	137.943964	-84.141844	-31.819761			
13205	9.237247	3.265262	0.766282	-2.061049	-2.200496	-0.459414	139.589666	-83.414969	-32.803849			
13206	8.774675	3.532091	0.484280	-2.354364	-2.090195	-0.880059	142.450758	-82.725921	-35.547064			
13207	8.481875	2.969136	-0.510204	-2.089545	-1.070246	-1.123304	146.872413	-82.005463	-40.391088			
13208	8.523011	1.947593	-1.851616	-1.457172	0.374112	-1.003682	151.108658	-81.240737	-45.404840			
13209	8.382729	1.018453	-2.734095	-0.776353	1.363757	-1.076630	154.016212	-80.489881	-49.206561			
13210	8.341557	0.381021	-2.944447	-0.166105	1.617108	-1.109103	155.857875	-79.718184	-51.753266			
13211	8.630748	0.177494	-2.591834	0.204240	1.173739	-0.878585	156.787361	-78.956621	-53.098817			
13212	8.966403	0.330895	-2.079136	0.267146	0.486250	-0.619226	157.397928	-78.250199	-53.879447			
13213	9.205527	0.575075	-0.810806	0.392189	-0.928330	-0.608712	157.976021	-77.554936	-54.558905			
13214	9.828369	0.807703	-0.681372	0.316752	-1.324752	-0.022030	158.665245	-76.866299	-55.523581			
13215	9.897363	0.357751	-1.100111	0.702783	-0.948491	0.081818	159.597471	-76.225624	-56.927547			
13216	9.898320	-0.336786	-1.658538	1.284925	-0.375565	0.139581	160.343892	-75.649172	-58.290454			
13217	9.783110	-0.810739	-1.995772	1.689502	-0.039340	0.061148	160.949792	-75.112735	-59.441611			
13218	9.476526	-0.780997	-2.222628	1.608564	0.136528	-0.182132	161.233316	-74.587111	-60.134650			
13219	9.322982	0.004555	-2.479078	0.814334	0.167325	-0.201653	161.360813	-74.052994	-60.538182			
13220	9.457120	0.670932	-2.462243	0.224278	-0.098263	-0.020383	161.515855	-73.506417	-60.891563			
13221	9.620197	0.824368	-1.790730	0.242372	-0.893019	-0.036311	161.816669	-72.966407	-61.294712			
13222	9.484001	1.006233	-1.187730	0.170375	-1.553682	-0.329768	162.246878	-72.413463	-61.749825			
13223	9.443244	1.419758	-1.263408	-0.226130	-1.644385	-0.324230	162.643799	-71.833256	-62.148268			
13224	9.285426	1.860063	-1.210859	-0.641387	-1.826323	-0.464018	162.836915	-71.264275	-62.414891			
13225	9.438502	2.382537	-1.351214	-1.117702	-1.922540	-0.239729	162.864431	-70.704400	-62.662666			
13226	9.740173	2.608364	-1.370063	-1.265569	-2.110278	0.061330	162.867392	-70.210725	-63.030117			
13227	9.800896	2.464815	-0.960563	-1.038548	-2.548341	-0.041167	162.910962	-69.771947	-63.540776			
13228	9.890874	1.859199	-0.690441	-0.388576	-2.779101	-0.123104	162.942770	-69.367464	-64.100366			
13229	10.148920	1.270878	-0.473731	0.256146	-3.021521	-0.032881	162.946820	-68.999734	-64.631981			
13230	10.238064	0.618045	-0.306210	0.927185	-3.159063	-0.093940	162.907903	-68.675179	-65.142869			
13231	10.436310	0.086089	-0.407399	1.463156	-3.107160	0.051102	162.809324	-68.381898	-65.681636			
13232	10.778566	-0.523348	-0.789439	2.069911	-2.839893	0.420823	162.626213	-68.137875	-66.256197			
13233	10.796479	-1.134164	-1.277867	2.626012	-2.374134	0.528997	162.430636	-67.944452	-66.879269			
13234	10.771286	-1.604887	-1.834465	3.044453	-1.852523	0.640097	162.201271	-67.805989	-67.418042			
13235	10.442390	-1.970525	-1.970149	3.352588	-1.621910	0.333119	161.973806	-67.718565	-67.752033			
13236	10.540224	-1.754888	-1.589842	3.177173	-2.062248	0.304437	161.775794	-67.645950	-67.840122			
13237	10.752639	-1.041711	-1.292683	2.525486	-2.490466	0.472978	161.546714	-67.611812	-67.693644			
13238	11.098388	-0.795427	-2.100264	2.307428	-1.867494	1.114626	161.452717	-67.743647	-67.458314			
13239	10.398025	-0.461172	-1.199124	1.914632	-2.443002	0.194062	161.402843	-68.066818	-66.961297			
13240	10.045037	0.558115	-0.360962	0.912918	-3.133456	-0.289451	160.972879	-68.434701	-66.038362			
13241	10.197131	1.435086	0.033535	0.133398	-3.576246	-0.156907	160.178069	-68.732642	-64.847851			
13242	10.860422	2.608081	0.282364	-0.848903	-4.101435	0.545285	159.242356	-68.912445	-63.719746			
13243	11.328425	3.071252	0.450745	-1.177602	-4.412460	1.009148	158.446049	-69.061564	-63.131221			
13244	11.736661	2.284479	0.935932	-0.306778	-4.868705	1.143840	158.010389	-69.136328	-63.272467			
13245	12.224993	1.321434	0.788539	0.687157	-4.767444	1.528286	157.394895	-69.105058	-63.484741			
13246	12.410219	1.099179	0.506939	0.911521	-4.537671	1.765628	156.602305	-69.041278	-63.486137			
13247	13.140002	1.376950	0.808825	0.758887	-5.053495	2.397797	155.685877	-69.161896	-63.256334			
13248	13.746940	1.213134	1.700143	1.015540	-5.996021	2.691528	154.595842	-69.631799	-62.768027			
13249	13.797383	0.954440	1.787202	1.254665	-5.932302	2.745310	153.163910	-70.323645	-61.871735			
13250	13.831684	0.304947	1.408655	1.884166	-5.360568	2.879936	151.364601	-71.149003	-60.618290			
13251	14.126629	-0.484866	0.923562	2.697687	-4.730896	3.263468	149.255419	-72.063173	-59.198027			
13252	13.939796	-1.014143	0.170218	3.184669	-3.692423	3.286642	146.766323	-73.163656	-57.356104			
13253	11.850256	-0.656710	-1.312361	2.538886	-1.464241	1.762500	143.667988	-74.388113	-54.592842			
13254	11.569725	1.194416	-1.534194	0.689253	-0.892875	1.864598	139.864160	-75.482521	-50.830673			
13255	13.023311	2.815935	-1.319589	-0.652921	-1.062353	3.518203	135.290852	-76.485710	-46.125396			
13256	13.506507	4.512126	-0.697238	-2.241638	-1.395615	4.197534	130.193350	-77.571283	-41.024511			
13257	13.304541	4.138332	-1.162749	-1.941286	-0.526354	4.023142	125.588944	-78.840167	-36.843324			
13258	13.030959	1.667003	-1.931946	0.346760	0.574854	3.448416	122.237777	-80.220032	-34.418488			
13259	13.565413	0.174195	-3.458087	1.773717	2.258074	3.889720	120.274677	-81.778700	-33.791509			
13260	14.089176	-1.280829	-3.943179	3.074878	2.830690	4.266293	118.554190	-83.572045	-33.760698			
13261	13.614250	-3.763079	-6.238642	5.485922	5.138468	3.675195	111.925662	-85.512427	-28.592470			
13262	11.532232	-5.149515	-6.679796	6.589568	5.765951	1.476683	91.427917	-87.024319	-8.354853			
13263	10.317508	-3.404630	-3.879224	4.319539	3.518190	0.289075	59.800085	-87.241144	23.784180			
13264	11.168217	-1.409149	-3.527540	2.240449	3.685427	1.166858	40.774276	-86.753446	43.672145			
13265	11.936094	0.113860	-5.182033	0.820063	5.750079	1.831810	28.709167	-85.954066	56.602572			
13266	11.548175	0.560096	-4.189200	0.159930	5.018317	1.412584	18.720366	-84.954517	67.600570			
13267	11.161458	0.362902	-1.490523	0.051556	2.538843	1.163502	11.291867	-83.824951	75.975341			
13268	11.121280	-0.288436	-3.098031	0.646764	4.368515	0.857451	5.670162	-82.434736	82.540300			
13269	9.456357	-0.525174	-1.750462	0.677705	3.072565	-0.710148	2.406925	-81.057185	87.055365			
13270	9.551603	-0.208729	-0.939981	0.249459	2.519087	-0.552703	1.112530	-79.742479	89.680703			
13271	9.712088	0.840147	-0.807436	-0.882375	2.616710	-0.429073	0.224257	-78.367421	91.671750			
13272	8.880209	0.536281	-1.288832	-0.677128	3.121920	-1.410417	-0.701685	-77.073243	93.618263			
13273	8.382534	0.655340	-1.563571	-0.896508	3.437598	-2.033415	-1.343338	-75.804632	95.233917			
13274	7.672937	0.975551	-1.770353	-1.301367	3.582149	-2.853373	-1.587053	-74.581174	96.431612			
13275	7.295303	1.203773	-2.259074	-1.639179	4.041419	-3.428945	-1.561134	-73.495213	97.369725			
13276	7.189270	1.739856	-2.526828	-2.278883	4.293577	-3.691589	-1.364794	-72.444021	98.231817			
13277	6.936027	2.154770	-1.354578	-2.617535	3.132532	-3.654677	-1.076023	-71.368779	98.770210			
13278	6.667667	2.007370	-1.215843	-2.490718	3.010131	-3.921998	-0.862620	-70.399582	99.314239			
13279	6.528484	2.023578	-1.390904	-2.572617	3.184932	-4.165763	-0.724370	-69.521898	99.920038			
13280	6.367846	1.837166	-1.412988	-2.434818	3.225983	-4.373450	-0.644991	-68.750879	100.630333			
13281	6.231087	1.793142	-1.146998	-2.389985	2.976612	-4.447544	-0.486811	-68.064571	101.239922			
13282	5.842724	1.854908	-0.628020	-2.372163	2.376963	-4.645945	-0.343552	-67.516614	101.769075			
13283	5.695175	2.090082	-0.360619	-2.570457	2.049628	-4.701406	-0.235630	-67.109304	102.219827			
13284	5.362217	2.100928	-0.279039	-2.559618	1.855551	-4.990823	-0.216440	-66.804310	102.655201			
13285	4.965240	2.149119	-0.341142	-2.602474	1.748948	-5.390360	-0.205698	-66.602777	103.063455			
13286	4.620900	1.913288	-0.309331	-2.348466	1.632792	-5.698353	-0.166465	-66.533790	103.402997			
13287	4.498470	1.510210	-0.453362	-1.984004	1.793825	-5.867006	-0.020709	-66.574743	103.642955			
13288	4.370793	1.286029	0.070795	-1.643417	1.313025	-5.770679	0.277527	-66.724776	103.739977			
13289	4.221786	1.214889	0.416516	-1.477004	0.941628	-5.762424	0.681581	-67.039346	103.705490			
13290	4.424161	0.859879	0.104706	-1.210300	1.351639	-5.685746	1.267879	-67.522164	103.526580			
13291	4.593186	0.532068	0.048741	-0.902419	1.505734	-5.534723	2.122070	-68.141605	103.158043			
13292	5.307725	0.202187	0.413284	-0.522156	1.471187	-4.718956	3.336031	-68.897355	102.487703			
13293	6.220377	-0.047207	0.812860	-0.196149	1.431108	-3.707885	4.950323	-69.752181	101.473794			
13294	7.029324	-0.150902	1.156696	0.019918	1.339284	-2.814362	7.027652	-70.667898	100.066342			
13295	7.671206	-0.000172	1.467153	0.035337	1.123365	-2.083884	9.718605	-71.640388	98.116639			
13296	8.865282	0.499742	1.927079	-0.205613	0.808980	-0.765273	13.202405	-72.615926	95.393207			
13297	11.055094	1.004474	2.940277	-0.218313	0.249151	1.665685	17.180698	-73.405435	92.131169			
13298	13.507946	1.481039	4.490491	0.071962	-0.718213	4.480488	20.915204	-73.757337	89.126095			
13299	15.388752	2.230391	7.179820	0.571904	-2.882625	7.060224	23.744406	-73.592464	87.167563			
13300	16.514994	3.326968	10.172231	0.904744	-5.495716	9.062093	25.451759	-72.987161	86.444423			
13301	15.996666	4.409837	13.296191	1.330548	-8.573443	9.599728	26.299290	-72.279123	86.786442			
13302	13.290914	5.450625	16.361597	1.801104	-12.257784	8.091334	26.514772	-71.850632	87.649639			
13303	10.343005	4.939464	14.580097	1.634287	-11.334088	4.775757	25.929820	-71.788735	88.536556			
13304	7.842644	2.612857	10.364475	1.943132	-7.554773	0.906700	24.602810	-71.909478	89.676906			
13305	5.693558	1.251341	6.853253	1.661804	-4.683510	-2.312540	23.437474	-72.247714	90.695101			
13306	5.412543	1.078695	4.155608	0.686602	-2.415954	-3.376884	23.109975	-72.858913	90.991055			
13307	6.710346	1.547408	1.489004	-0.825710	0.021409	-2.815753	23.913589	-73.729583	90.186686			
13308	9.089363	2.908388	-0.930982	-3.004193	2.142022	-0.962515	25.601474	-74.851717	88.289001			
13309	11.293517	3.229897	-4.410263	-4.597950	5.502026	0.483321	27.245544	-75.976053	86.206412			
13310	11.853448	3.413491	-5.527324	-5.101767	6.408424	0.939420	27.665871	-77.104363	84.995039			
13311	12.148140	1.719499	-5.635626	-3.513954	7.030582	1.165106	25.697894	-78.571878	85.824513			
13312	14.520375	-0.935749	-5.665230	-1.014116	8.173291	3.452380	21.682446	-80.440753	88.562850			
13313	18.466177	-5.526372	-4.577916	3.634673	8.970906	7.472824	17.187106	-81.693789	92.207426			
13314	18.294541	-8.440709	0.477699	8.002923	5.054758	7.979564	19.196775	-81.799389	91.624641			
13315	18.621449	-2.366952	7.667036	5.203166	-3.304615	9.502626	28.300305	-80.979360	86.358118			
13316	15.365365	5.485292	12.627210	0.989615	-10.827440	7.716165	35.059381	-78.630635	83.148371			
13317	6.348098	8.345564	8.107872	-3.183766	-9.492431	-1.128629	37.262954	-76.319983	82.258617			
13318	1.215529	5.587416	0.477210	-4.579949	-2.767708	-7.741873	36.805819	-76.185862	82.517969			
13319	-1.594716	3.622112	-6.047747	-6.146547	3.135267	-11.963175	36.185668	-78.416622	82.211973			
13320	-1.482174	5.778372	-16.469384	-12.780647	11.535269	-13.031732	33.564272	-81.647535	83.017014			
13321	0.611832	2.214628	-16.372802	-9.025194	13.816351	-10.783660	27.687739	-84.256801	86.535384			
13322	8.703252	-2.319231	-7.644477	-0.776898	8.671166	-1.828208	33.647454	-85.617098	78.354129			
13323	16.425042	-6.704984	-2.928840	5.448456	6.374846	6.092945	44.700988	-85.948405	67.603612			
13324	11.552846	-2.866089	1.224819	3.475846	0.737535	1.613433	53.761767	-85.880893	60.334025			
13325	12.433546	-1.906201	3.697832	3.794155	-1.800817	2.607387	63.768623	-85.639022	51.655428			
13326	13.621198	-1.007876	3.045902	2.935619	-1.536546	3.783240	72.653838	-85.560030	43.438610			
13327	12.604466	-0.897458	1.753522	2.296674	-0.549041	2.724303	77.206037	-85.724828	38.977243			
13328	9.949985	-1.772451	1.274290	2.722252	0.057358	0.003268	81.529222	-86.018035	34.302424			
13329	8.734555	-2.151097	-1.216732	1.921629	2.324821	-1.251041	88.137115	-86.189409	27.070074			
13330	8.594787	-2.377380	-2.759915	1.510772	3.724002	-1.387262	96.549931	-86.164975	18.250089			
13331	8.741411	-1.846526	-2.214892	1.329798	2.927633	-1.187874	105.349652	-85.886035	9.494624			
13332	9.265192	-0.666281	-1.284648	0.755659	1.516957	-0.589622	112.728368	-85.424170	2.556389			
13333	9.392593	0.505623	-0.468859	0.134760	0.205538	-0.398077	118.031947	-84.900886	-1.936674			
13334	9.510540	1.703617	0.011748	-0.622352	-0.820123	-0.205831	121.003043	-84.354133	-3.871997			
13335	9.733809	2.832473	0.068315	-1.466930	-1.445739	0.113604	122.182817	-83.857965	-3.953704			
13336	9.431587	3.799204	0.353809	-2.107727	-2.202241	-0.105957	122.654502	-83.479975	-3.551197			
13337	8.908017	4.076292	0.787865	-2.122393	-2.751106	-0.619418	123.686293	-83.212003	-4.308679			
13338	8.566542	3.265764	0.667492	-1.487514	-2.288063	-1.034976	126.940065	-83.019201	-7.871704			
13339	8.603453	2.300605	-0.271207	-1.090842	-1.071434	-1.035038	132.210175	-82.785892	-13.840762			
13340	9.094382	0.968228	-1.808119	-0.579518	0.804709	-0.542827	137.212530	-82.580813	-19.763128			
13341	8.804249	-0.332006	-1.980752	0.475413	1.472826	-0.915932	141.309335	-82.324552	-24.720113			
13342	8.956361	-1.148977	-2.888813	0.861967	2.547004	-0.721449	144.010444	-81.947966	-28.051424			
13343	9.091289	-1.254085	-3.294492	0.854974	2.864878	-0.531596	145.764011	-81.470338	-29.983534			
13344	9.073234	-0.171722	-2.786377	0.156034	1.862597	-0.505558	147.120361	-80.939827	-31.199098			
13345	9.212673	0.622166	-2.648547	-0.420883	1.306274	-0.305266	148.197061	-80.415724	-32.156787			
13346	9.056779	0.834677	-2.044186	-0.321502	0.615296	-0.516557	149.449594	-79.929122	-33.340197			
13347	8.738383	0.930042	-1.572048	-0.203656	0.108576	-0.888466	150.799876	-79.406697	-34.776871			
13348	8.745573	0.819755	-1.942783	-0.213712	0.404531	-0.828186	152.273246	-78.820186	-36.421463			
13349	8.651512	0.774760	-2.413950	-0.333493	0.764755	-0.836105	153.597947	-78.191651	-37.967240			
13350	8.567076	0.853526	-2.909956	-0.561785	1.089955	-0.807890	154.658483	-77.488894	-39.251469			
13351	8.553546	1.259953	-3.722613	-1.189888	1.540390	-0.602995	155.642943	-76.728296	-40.437000			
13352	8.330068	1.545991	-3.925222	-1.490588	1.530429	-0.723021	156.470950	-75.956766	-41.435574			
13353	8.189285	1.797623	-3.699557	-1.574469	1.143586	-0.857554	157.257201	-75.155058	-42.348877			
13354	8.478219	1.857766	-3.184349	-1.293707	0.505031	-0.672592	158.068116	-74.337455	-43.271274			
13355	8.684922	1.745623	-2.568605	-0.837343	-0.141364	-0.628451	158.835718	-73.521355	-44.162020			
13356	8.947126	1.561489	-2.027594	-0.338208	-0.704269	-0.539683	159.513908	-72.720545	-44.942857			
13357	9.316436	1.524485	-1.502171	0.043349	-1.340851	-0.348262	160.092137	-71.938949	-45.617683			
13358	9.493884	1.271353	-1.047220	0.546329	-1.780485	-0.358749	160.604312	-71.210190	-46.262621			
13359	9.543080	0.999428	-0.229799	1.166588	-2.497905	-0.619195	161.010110	-70.475628	-46.929456			
13360	10.160051	0.572864	-0.497510	1.642222	-2.346031	-0.035155	161.404263	-69.769346	-47.731934			
13361	10.150162	-0.168075	0.167753	2.587307	-2.731778	-0.382730	161.832665	-69.139245	-48.609286			
13362	10.469383	-0.550785	0.283277	3.078032	-2.876646	-0.208476	162.087485	-68.528996	-49.383547			
13363	11.166077	-0.851139	0.065598	3.469781	-2.873807	0.439660	162.262152	-67.995847	-50.072581			
13364	11.090773	-1.229182	0.392260	3.925312	-3.093003	0.172017	162.456272	-67.559772	-50.707891			
13365	11.215080	-1.366695	0.363036	4.088049	-3.144357	0.246027	162.511314	-67.149217	-51.188454			
13366	11.362192	-1.339050	0.041004	4.017104	-2.998844	0.471446	162.467492	-66.801769	-51.513710			
13367	11.312436	-0.986059	0.037267	3.702702	-3.178701	0.440623	162.337565	-66.489233	-51.710154			
13368	11.514495	-0.571873	-0.486675	3.238947	-2.988243	0.851592	162.095324	-66.238583	-51.774104			
13369	11.422115	-0.296299	-0.738274	2.913942	-2.872400	0.881035	161.819027	-66.068491	-51.727268			
13370	11.439396	0.077503	-0.835004	2.571715	-2.944787	0.970515	161.520985	-65.946574	-51.548475			
13371	11.246947	0.711799	-0.739586	1.992640	-3.197301	0.834098	161.168950	-65.886542	-51.231828			
13372	10.983901	1.151774	-0.817768	1.521664	-3.189108	0.682810	160.770280	-65.914082	-50.837084			
13373	11.138906	1.342022	-0.817748	1.399579	-3.276963	0.857248	160.448657	-66.054591	-50.489989			
13374	11.693170	1.302176	-0.685982	1.618293	-3.502746	1.323201	159.997855	-66.310082	-50.072767			
13375	11.884001	1.079732	-0.648457	1.879849	-3.439398	1.476769	159.218876	-66.651484	-49.454941			
13376	12.385295	0.828600	-0.397585	2.306577	-3.635914	1.836320	158.434230	-66.984382	-48.952324			
13377	12.989554	0.805852	0.575013	2.741239	-4.597022	2.064229	157.799309	-67.255310	-48.711856			
13378	12.929492	0.731346	0.789834	2.822354	-4.691341	1.949783	157.173725	-67.516285	-48.637298			
13379	12.950280	0.708164	0.848207	2.820754	-4.695469	1.974009	156.623545	-67.787920	-48.663913			
13380	12.970683	1.241497	0.643921	2.231022	-4.636615	2.175567	155.989179	-68.121891	-48.461587			
13381	12.744949	2.306174	0.622726	1.142774	-4.808319	2.175343	155.114021	-68.555829	-47.814875			
13382	13.354723	3.257354	1.353822	0.567810	-5.796701	2.711863	153.640407	-69.190255	-46.544573			
13383	14.265413	3.808484	2.303140	0.477984	-6.835203	3.467116	151.351432	-70.198651	-44.584845			
13384	13.972497	3.678001	2.562620	0.523115	-6.645901	3.259060	148.591621	-71.445098	-42.195606			
13385	13.869557	3.038979	2.307494	0.923048	-5.845762	3.297821	145.507002	-72.762388	-39.738262			
13386	12.555806	1.413131	-0.667722	1.304073	-1.998100	2.612600	142.223271	-74.092029	-37.300282			
13387	12.123886	1.478138	-3.057853	0.478525	0.628739	2.752816	139.183145	-75.281781	-35.032843			
13388	13.114188	2.904173	-3.670002	-0.907733	1.004678	4.045259	135.898388	-76.345753	-32.412967			
13389	13.392493	4.862623	-3.974554	-2.891071	1.124235	4.649912	131.801106	-77.423923	-28.879538			
13390	13.855383	5.540088	-4.054041	-3.618217	1.375333	5.157267	127.264887	-78.763200	-24.787916			
13391	12.506237	4.071146	-3.243738	-2.463148	1.400089	3.433496	121.613814	-80.067513	-19.589435			
13392	12.885390	4.200297	-2.995529	-2.655710	1.453333	3.732470	115.208431	-81.233257	-13.802952			
13393	12.516964	3.896085	-2.789245	-2.575576	1.673483	3.232789	107.118127	-82.560344	-6.825763			
13394	11.950471	2.537144	-2.174996	-1.440957	1.661142	2.399274	96.084260	-83.913635	2.662106			
13395	11.747855	1.088196	-0.649577	-0.049156	0.686061	1.982749	78.710925	-84.948632	18.208047			
13396	9.798324	-0.094995	-1.765104	0.644836	2.114482	-0.104874	62.041068	-85.380534	33.202770			
13397	10.820364	-0.132542	-4.290614	0.420915	4.805084	0.781641	49.661972	-85.709038	44.655685			
13398	11.753254	-0.408208	-5.867031	0.523734	6.582018	1.550660	33.839456	-85.462128	60.053263			
13399	10.062632	-1.489914	-3.563846	1.579956	4.446063	-0.122068	20.676182	-84.531405	73.114870			
13400	10.742550	-1.089014	-2.254765	1.166332	3.405352	0.613695	11.872535	-83.456435	82.019337			
13401	10.892355	-1.887889	-2.546195	1.796152	4.003128	0.648271	4.420722	-82.200052	89.634549			
13402	10.244905	-3.194768	-2.158318	2.951874	3.871663	-0.009038	-1.098953	-80.848229	95.576251			
13403	9.802303	-4.053222	-2.501672	3.612954	4.459812	-0.548742	-4.108662	-79.469284	99.273039			
13404	9.370367	-3.563899	-2.896215	2.937129	4.987490	-1.130395	-4.959570	-78.025882	101.285547			
13405	8.946868	-2.444252	-2.820232	1.689474	4.963035	-1.659155	-4.389690	-76.570664	102.227707			
13406	8.585466	-0.925522	-2.606363	0.087160	4.691377	-2.109625	-3.147998	-75.109465	102.631981			
13407	7.675443	0.451824	-1.617005	-1.169735	3.465519	-2.859253	-1.532444	-73.700176	102.581314			
13408	7.461126	1.319923	-1.152829	-1.983160	2.934498	-3.016086	0.262342	-72.395295	102.227519			
13409	7.476151	2.425446	-0.648297	-2.990838	2.334682	-2.898990	1.993753	-71.166141	101.879336			
13410	7.060129	3.400344	-0.235587	-3.828644	1.682919	-3.181564	3.398940	-69.878875	101.548129			
13411	6.734942	4.057524	-0.478217	-4.515452	1.715119	-3.590157	4.119110	-68.593055	101.571313			
13412	6.244720	3.538257	-0.561101	-4.031943	1.831811	-4.136622	4.279156	-67.355551	102.119534			
13413	5.603477	3.096917	0.372914	-3.344381	0.955052	-4.424609	4.236702	-66.304714	102.698905			
13414	5.749475	2.594070	-0.169958	-3.057371	1.688061	-4.557495	4.098719	-65.457627	103.276368			
13415	5.420472	2.205868	-0.131356	-2.679809	1.678259	-4.886594	3.901391	-64.741809	103.929779			
13416	5.104573	1.800241	-0.078409	-2.279716	1.658427	-5.191438	3.639282	-64.084912	104.552104			
13417	4.262949	1.556175	0.724855	-1.753139	0.720570	-5.626162	3.290139	-63.581427	105.165911			
13418	3.580354	1.176585	0.683550	-1.346014	0.595411	-6.276556	2.832458	-63.341876	105.764700			
13419	3.421639	0.769754	-0.198096	-1.212330	1.400909	-6.828217	2.421249	-63.308142	106.312225			
13420	3.196910	0.634864	-0.568443	-1.177080	1.652403	-7.199176	2.109075	-63.375907	106.833550			
13421	2.932746	0.616815	-0.132950	-1.007784	1.165170	-7.238613	1.847335	-63.562030	107.329704			
13422	2.774717	0.490661	0.138702	-0.791887	0.893028	-7.256435	1.673884	-63.906185	107.723609			
13423	2.791496	0.064178	0.191671	-0.375102	0.973397	-7.215566	1.588488	-64.460111	107.969357			
13424	3.057873	-0.819310	-0.014628	0.366671	1.520871	-7.060520	1.658909	-65.261428	108.015489			
13425	3.555952	-1.594196	0.088794	1.079736	1.845202	-6.553359	1.874358	-66.304761	107.901532			
13426	4.476548	-2.374336	0.200643	1.764219	2.293941	-5.648340	2.210261	-67.577617	107.612881			
13427	5.885802	-3.128396	0.695614	2.516514	2.520205	-4.135784	2.726325	-69.085953	107.186552			
13428	7.899268	-3.428563	1.273364	2.859751	2.628111	-2.022637	3.808552	-70.840786	106.214243			
13429	10.529699	-3.862880	-1.568333	2.251169	5.908190	-0.417270	6.599819	-72.496607	103.733163			
13430	13.369054	-3.026448	-3.590154	0.748049	8.102290	1.787785	11.469836	-73.343104	100.349451			
13431	13.833069	-0.409712	2.609264	0.804657	1.737814	4.139047	17.742464	-73.685167	96.621476			
13432	17.168593	2.201499	7.802068	0.973510	-2.805480	8.938745	24.271798	-73.354464	92.655239			
13433	20.815317	6.106562	13.113568	0.652943	-7.607599	14.356083	29.467569	-72.059571	89.846799			
13434	19.950504	11.197636	19.100637	0.152009	-14.510308	16.216156	32.463818	-70.260514	89.547424			
13435	10.786585	15.118689	21.251033	-1.085755	-20.778956	9.253503	33.521452	-69.635795	90.587543			
13436	6.142297	11.841802	11.937832	-3.100499	-13.416877	1.625813	33.630338	-70.147499	90.814126			
13437	5.973146	9.489125	6.473264	-4.188047	-8.104051	-0.625317	33.802166	-70.831173	90.778876			
13438	7.155604	10.915536	4.532920	-6.448061	-7.073152	0.151810	34.204178	-71.360187	90.303006			
13439	9.412711	12.974708	3.208800	-8.941736	-6.456462	2.253666	34.497957	-72.046242	88.996789			
13440	10.360146	11.223776	-1.369966	-10.110971	-1.526665	1.616076	34.094559	-73.692761	86.644981			
13441	13.004150	4.595434	-10.761129	-8.983897	10.312297	1.093096	30.939492	-76.913665	85.657654			
13442	16.275240	-3.067132	-17.825282	-4.313577	20.429351	2.670913	17.444823	-80.071653	93.456592			
13443	24.161694	-21.814354	-12.976456	15.304765	23.540953	11.152393	4.639725	-80.449598	105.276319			
13444	13.435744	-10.416084	4.175389	10.567903	2.382009	3.934506	8.340578	-79.050358	105.771054			
13445	12.695316	1.767116	12.887902	3.562854	-9.450074	5.292694	18.492785	-76.894846	100.917789			
13446	4.632262	7.544837	11.258342	-0.883297	-11.995920	-2.043898	25.367924	-74.445382	97.471565			
13447	-0.231594	4.837555	3.361877	-2.221333	-5.336701	-8.654001	27.942145	-74.567917	95.623356			
13448	-0.716690	1.943715	-6.182720	-4.934156	3.864214	-11.609301	27.396635	-77.569202	94.025346			
13449	0.323634	1.123446	-17.204109	-9.366692	14.283235	-12.121707	25.902457	-82.074576	91.116630			
13450	8.804529	-6.955184	-25.830725	-4.476421	27.228054	-4.223205	29.476384	-84.067137	83.083267			
13451	17.438692	-10.356253	-8.847322	6.196638	13.956497	6.201027	32.019245	-84.074533	82.350801			
13452	7.571176	-1.991435	-0.052906	1.895885	1.728739	-2.416367	38.509300	-83.438961	79.341042			
13453	9.753875	0.271664	2.713865	1.416289	-1.368037	0.121490	51.213130	-82.945960	70.273962			
13454	12.128336	4.205534	3.037068	-1.202041	-3.367561	2.883557	64.143066	-82.077325	59.944900			
13455	11.023501	7.399208	-1.150923	-5.825590	-1.816593	2.033941	71.012398	-80.981983	53.650977			
13456	10.771341	5.417158	-0.896545	-3.886062	-0.962100	1.595342	74.211387	-80.918058	50.509254			
13457	8.309780	3.523249	1.760753	-1.031922	-2.487520	-1.020027	78.531234	-81.769417	46.338521			
13458	7.647006	2.276721	1.934479	-0.000318	-2.162184	-1.892795	85.265497	-82.583275	38.905752			
13459	7.817277	1.043323	0.471383	0.203361	-0.412966	-1.925566	93.249374	-83.023432	29.713193			
13460	8.237820	0.026171	-0.511481	0.595080	0.841921	-1.623719	100.949063	-83.170765	21.127968			
13461	8.615059	-0.489584	-0.399009	1.178846	0.903834	-1.303276	108.196501	-83.137047	13.762418			
13462	9.319009	-0.238768	1.063208	1.877945	-0.561064	-0.637251	114.125369	-82.843775	8.078907			
13463	10.455074	0.431019	1.172557	1.599370	-1.085901	0.537697	118.760124	-82.364538	3.672287			
13464	10.987213	1.026950	0.457542	0.884281	-0.888696	1.160451	122.407516	-81.941909	0.169229			
13465	10.673733	1.062741	0.013267	0.645824	-0.623851	0.876136	125.702035	-81.618107	-3.062617			
13466	10.191468	0.951277	-0.477674	0.461811	-0.231537	0.421152	128.574704	-81.292333	-5.975557			
13467	10.047189	0.753268	-0.773966	0.498780	0.045981	0.279924	131.244504	-80.950666	-8.708079			
13468	9.717954	0.828792	-0.219912	0.728851	-0.533259	-0.098907	133.747370	-80.567296	-11.288025			
13469	9.885836	0.639231	-1.041066	0.528493	0.173609	0.132765	136.183442	-80.217007	-13.713872			
13470	9.442731	0.317270	-0.216186	1.186508	-0.402579	-0.445600	138.597358	-80.043763	-15.752968			
13471	8.904928	0.210730	0.308228	1.480414	-0.817100	-1.061823	140.753791	-79.842384	-17.407499			
13472	8.629000	0.578516	0.510725	1.271561	-1.224652	-1.331053	142.329009	-79.478590	-18.638564			
13473	8.839518	1.176433	-0.444717	0.351220	-0.834975	-0.930250	143.656917	-78.986048	-19.866926			
13474	8.820519	1.548448	-1.149805	-0.282735	-0.523499	-0.803432	145.095521	-78.506103	-21.424006			
13475	8.695344	1.289206	-1.493212	-0.227573	-0.157329	-0.900699	146.760079	-78.032207	-23.364498			
13476	8.832851	0.901348	-1.695785	0.058879	0.137667	-0.774755	148.272699	-77.544123	-25.274597			
13477	9.079036	0.519856	-2.154145	0.234966	0.625925	-0.491116	149.600230	-77.046837	-27.050354			
13478	9.063672	0.354129	-2.462669	0.266916	0.893251	-0.460131	150.879096	-76.543186	-28.754959			
13479	9.067633	0.209939	-2.688650	0.330422	1.075050	-0.419654	152.092866	-76.023506	-30.304632			
13480	8.838147	0.343644	-2.608037	0.266557	0.880561	-0.637419	153.214667	-75.495355	-31.604635			
13481	8.845211	0.798023	-2.342061	0.074460	0.333973	-0.634345	154.147316	-74.932025	-32.580596			
13482	8.999558	1.462581	-2.136110	-0.286516	-0.290477	-0.457108	154.792919	-74.349877	-33.199248			
13483	9.100747	2.020896	-2.032760	-0.613637	-0.760532	-0.321429	155.200210	-73.779522	-33.549375			
13484	9.422597	2.434089	-1.508551	-0.557389	-1.533551	-0.100703	155.583350	-73.243536	-33.859642			
13485	9.561208	2.736323	-0.944729	-0.436099	-2.250155	-0.089381	155.981000	-72.746343	-34.264380			
13486	9.563465	2.694372	-0.296013	-0.032918	-2.828839	-0.283616	156.501617	-72.285490	-34.942858			
13487	9.522557	2.431029	0.426064	0.559088	-3.349156	-0.580109	157.176003	-71.801897	-35.995582			
13488	9.743107	1.983438	0.271948	0.933329	-3.107399	-0.410117	157.788492	-71.275139	-37.260713			
13489	10.237309	1.349220	-0.077268	1.443827	-2.677465	0.055164	158.391725	-70.772021	-38.631522			
13490	10.517963	0.545270	-0.099312	2.198507	-2.408950	0.202167	158.999129	-70.341724	-39.939628			
13491	10.617711	-0.077093	0.185993	2.888679	-2.457270	0.106633	159.474807	-69.983663	-41.004188			
13492	10.437467	-0.577234	0.525204	3.424465	-2.543239	-0.254752	159.756001	-69.667311	-41.818961			
13493	10.487654	-0.912518	0.533632	3.738404	-2.477522	-0.273608	159.853059	-69.367073	-42.478239			
13494	10.520667	-1.242498	0.600037	4.067756	-2.458697	-0.326067	159.905391	-69.119233	-43.125886			
13495	10.896644	-1.829156	0.095126	4.475935	-1.922867	0.104961	160.090934	-68.905531	-43.866020			
13496	11.006496	-1.865714	0.489157	4.687370	-2.339071	0.057475	160.063251	-68.803952	-44.445319			
13497	10.832209	-2.146056	0.285982	4.799968	-2.052843	-0.077701	159.990913	-68.751309	-44.998435			
13498	11.127110	-2.248983	-0.028842	4.836660	-1.858057	0.288082	159.835334	-68.757543	-45.381154			
13499	11.518459	-1.789654	-0.406301	4.380521	-1.853802	0.837068	159.529848	-68.782076	-45.462037			
13500	11.854095	-0.732938	-0.942746	3.334428	-1.920481	1.462898	158.924417	-68.786599	-45.144005			
13501	12.166589	0.337758	-1.184186	2.390914	-2.213620	1.973979	158.126426	-68.820308	-44.626917			
13502	13.139787	1.045727	-0.578384	2.235372	-3.245267	2.779107	157.540630	-68.924719	-44.296762			
13503	12.721380	1.204617	0.098840	2.209530	-3.752649	2.201041	157.078724	-69.168256	-44.102392			
13504	12.476238	1.420966	0.744838	2.149684	-4.293858	1.813649	156.467698	-69.417213	-43.785754			
13505	12.947276	2.269735	0.788655	1.502770	-4.714401	2.390628	155.345711	-69.677157	-42.969525			
13506	14.805864	3.608121	0.308922	0.610448	-5.136966	4.524821	153.673876	-69.997421	-41.572435			
13507	16.953361	4.850939	0.125778	-0.023070	-5.733578	6.863115	151.507685	-70.600187	-39.696999			
13508	16.458483	4.196017	1.626193	0.872199	-6.394749	5.981738	148.966546	-71.768988	-37.507114			
13509	14.868997	3.458067	2.511974	1.281235	-6.219968	4.294252	145.784265	-73.307060	-34.664927			
13510	12.798922	4.011284	2.048680	-0.041714	-5.267688	2.690620	141.769694	-74.879702	-30.845650			
13511	11.032976	5.665797	0.959219	-2.461947	-4.273081	1.607279	136.977334	-76.247391	-26.252373			
13512	11.439830	7.739182	0.579273	-4.538799	-4.359376	2.495102	131.661938	-77.278965	-21.623834			
13513	13.917985	8.179176	0.329098	-4.692440	-4.090384	5.085291	127.007919	-78.174077	-18.137112			
13514	15.354531	6.441823	-1.078371	-3.466438	-1.875824	6.400488	122.201091	-79.258383	-14.572362			
13515	15.006444	4.592856	-0.802869	-1.981069	-1.150522	5.732875	116.166820	-80.443286	-9.962746			
13516	15.193144	2.685674	-3.738508	-1.217072	2.573463	5.804601	109.363200	-81.794257	-4.594839			
13517	14.135196	1.564446	-4.323786	-0.724435	3.759176	4.549609	101.521345	-83.410010	1.668185			
13518	13.370666	0.268595	-5.618014	-0.126561	5.574832	3.577722	89.205757	-85.056417	12.235979			
13519	13.401677	0.165629	-4.828824	-0.124315	5.111315	3.483649	62.390145	-86.126387	37.244796			
13520	10.466660	-1.527512	-4.870768	1.168600	5.590099	0.335560	32.087048	-85.992223	66.285777			
13521	8.799678	-1.903449	-3.876218	1.509827	4.735775	-1.364459	17.961237	-85.277068	80.157921			
13522	10.821015	0.030316	-3.233048	-0.363437	4.155314	0.682344	14.252920	-84.307459	84.097991			
13523	10.327396	1.380728	-2.219975	-1.603307	3.105422	0.250702	12.804168	-83.103077	86.065147			
13524	10.651338	2.365958	-2.251780	-2.627311	3.236670	0.518593	10.975737	-81.741774	88.363195			
13525	10.701118	2.664195	-1.117576	-2.820643	2.332369	0.649509	7.742076	-80.205723	91.914936			
13526	10.206377	1.484558	-0.994317	-1.759048	2.592808	0.063396	4.156322	-78.525109	95.639465			
13527	9.282092	0.355119	-0.672620	-0.706967	2.550282	-0.883791	1.576852	-76.855038	98.331109			
13528	9.155915	0.140164	-1.527352	-0.750554	3.615400	-1.295496	0.049144	-75.220547	100.042961			
13529	8.787919	0.187936	-1.554498	-0.886019	3.770725	-1.770950	-1.023150	-73.469698	101.191275			
13530	7.868808	-0.229611	-1.556455	-0.515903	3.803861	-2.766199	-1.932316	-71.772530	102.281729			
13531	7.019700	-0.347183	-1.446382	-0.414209	3.638210	-3.642018	-2.624094	-70.213134	103.363575			
13532	6.331525	-0.507050	-1.135735	-0.227238	3.300739	-4.273181	-2.988811	-68.701984	104.058653			
13533	5.675575	-0.284699	-0.675074	-0.366098	2.727704	-4.795418	-3.020223	-67.381475	104.558810			
13534	5.707253	-0.010640	-0.531957	-0.655774	2.656713	-4.776169	-2.752311	-66.215147	104.735644			
13535	5.687646	0.155148	-0.578238	-0.860504	2.744840	-4.869789	-2.375670	-65.175861	104.926700			
13536	5.493862	0.534038	-0.089747	-1.144952	2.222839	-4.890967	-2.017970	-64.313968	105.089685			
13537	5.447960	0.496215	-0.489024	-1.207543	2.619817	-5.138962	-1.705657	-63.624176	105.239487			
13538	5.161557	0.387673	-0.926745	-1.182004	2.946274	-5.620679	-1.298864	-63.035241	105.338472			
13539	4.716915	0.463398	-0.786132	-1.191207	2.642854	-5.981468	-0.775131	-62.525029	105.360155			
13540	4.328038	0.812851	-0.462340	-1.422038	2.125697	-6.198054	-0.245070	-62.116348	105.334204			
13541	4.148926	0.989834	-0.322630	-1.544519	1.892997	-6.301497	0.223523	-61.855179	105.287853			
13542	4.122330	1.170402	-0.352323	-1.724907	1.862906	-6.342551	0.594264	-61.727188	105.275073			
13543	3.950311	0.988170	0.054452	-1.430236	1.487366	-6.301767	0.854927	-61.737026	105.298645			
13544	3.884088	0.883073	-0.089250	-1.354927	1.599784	-6.424654	1.038959	-61.877926	105.318283			
13545	3.862817	0.576044	-0.062135	-1.047415	1.637804	-6.424838	1.139815	-62.195193	105.338613			
13546	3.960963	0.382686	-0.382376	-0.948723	1.984500	-6.474502	1.199540	-62.681841	105.313147			
13547	3.917927	0.461692	-0.507065	-1.040235	2.019000	-6.547444	1.307813	-63.311976	105.175909			
13548	3.792051	0.726212	-0.362546	-1.225461	1.730383	-6.565801	1.537170	-64.087313	104.867762			
13549	3.706846	1.076125	-0.210803	-1.489842	1.423724	-6.542173	1.907623	-65.017074	104.378691			
13550	3.933731	1.326256	0.070247	-1.651529	1.151732	-6.181761	2.406987	-66.110470	103.690725			
13551	4.696630	1.131135	0.393831	-1.413689	1.148998	-5.321221	2.980065	-67.398270	102.881650			
13552	5.804209	0.696108	0.945189	-0.895658	1.079683	-4.059697	3.577109	-68.895651	102.046876			
13553	7.565017	0.034633	2.124989	-0.017892	0.634940	-1.980829	4.271257	-70.621840	101.092627			
13554	10.538624	-0.861758	3.123687	1.017653	0.648769	1.146110	5.347249	-72.453017	99.838398			
13555	14.103990	-1.691817	4.329072	2.100288	0.447372	4.880795	7.004704	-74.100349	98.340514			
13556	17.671204	-1.901685	5.956133	2.800005	-0.382929	8.717403	9.342568	-75.187624	96.682656			
13557	20.001098	-0.219047	8.095916	2.017078	-2.396864	11.536996	12.869607	-75.481682	94.557195			
13558	20.915908	3.141183	10.774983	0.101372	-5.475304	13.282995	17.420071	-74.738722	92.034065			
13559	18.595952	6.634932	13.884527	-1.488669	-9.547086	12.304418	20.659003	-72.916730	90.966419			
13560	11.862408	7.878325	17.945096	-0.583629	-14.916692	7.562229	20.556660	-70.720906	92.712645			
13561	2.913330	3.656635	19.637422	4.323381	-17.345123	-0.435380	18.520946	-69.978007	95.176365			
13562	3.478299	-0.531991	11.876844	5.063532	-8.852584	-2.781895	17.328645	-70.591801	96.197157			
13563	5.636816	0.395333	7.166385	2.244145	-4.541544	-2.221695	17.059006	-71.542405	96.203710			
13564	7.814809	2.130865	4.897213	-0.305858	-2.696056	-0.744641	17.633864	-72.667673	95.307121			
13565	10.541644	2.897942	3.060807	-1.728555	-0.787915	1.380024	19.288013	-74.201055	93.219962			
13566	13.009840	3.142809	-1.061166	-3.423585	3.109481	2.790926	21.349150	-76.291137	90.498757			
13567	15.090261	1.544917	-6.868220	-3.922784	8.991294	3.641458	21.097507	-78.547441	89.437143			
13568	18.052848	-1.804448	-10.074557	-1.728852	13.181896	6.120355	16.310574	-80.671087	92.449924			
13569	22.009681	-3.665118	-10.130749	0.099281	13.831753	10.413508	9.955579	-82.654120	97.384318			
13570	23.944304	-7.085716	-8.174809	3.875695	12.830002	12.786691	10.790950	-83.051714	97.432727			
13571	20.635244	-1.467220	4.081957	2.543408	-0.542314	11.111112	19.080410	-81.578204	93.285975			
13572	16.603134	7.938411	16.626099	-0.382851	-15.075399	9.865232	25.688125	-77.374863	91.326768			
13573	1.456380	13.079632	16.209442	-3.817129	-19.390752	-3.101869	28.027313	-72.432139	91.809120			
13574	-8.264607	11.187633	4.103126	-7.525160	-11.241859	-15.036926	27.876243	-72.658508	92.677755			
13575	-8.754544	10.234596	-13.482179	-15.404825	4.204048	-20.204566	26.492318	-76.261607	91.059295			
13576	-6.722086	9.545705	-26.420273	-19.860771	18.073731	-20.416297	22.346800	-80.572384	90.518602			
13577	3.251186	3.782645	-23.469851	-11.891566	20.824609	-9.287114	20.635137	-84.263197	88.249801			
13578	21.796928	-7.112895	-11.460524	3.113829	15.035749	10.711643	20.937753	-85.465206	87.711086			
13579	18.831078	-7.122727	2.590968	7.581114	1.450506	8.961519	18.357094	-85.331439	92.084243			
13580	13.257218	-5.310938	5.864512	6.982197	-2.439843	3.738856	15.211541	-85.106885	96.624197			
13581	10.448448	-4.950163	5.549682	6.536875	-2.470244	0.940871	11.599593	-85.719283	100.250382			
13582	9.248429	-5.312551	2.419527	5.729112	0.266406	-0.500889	11.803328	-87.022148	99.176836			
13583	8.025430	-5.194852	-4.070700	3.416636	5.948325	-2.008806	31.242012	-88.433541	79.019079			
13584	8.548098	-2.906580	-6.109713	0.741295	6.908873	-1.412647	80.365516	-88.427232	29.774279			
13585	8.259643	-0.033631	-3.963436	-1.048602	3.819958	-1.552115	100.552208	-87.368133	9.622597			
13586	8.842434	1.528106	-3.308023	-2.081995	2.612738	-0.851537	109.726480	-86.219635	0.544108			
13587	9.979182	2.310397	-3.054978	-2.492295	2.029857	0.381464	114.570686	-85.368260	-3.940166			
13588	9.819825	2.499338	-1.165327	-1.916229	0.116194	0.204664	117.321027	-84.952654	-5.770231			
13589	9.091376	2.800047	1.003843	-1.388630	-2.067660	-0.577062	118.284577	-84.672499	-5.530797			
13590	8.965323	3.206537	2.122416	-1.242343	-3.290352	-0.713646	117.998933	-84.332919	-4.181996			
13591	9.191380	3.590541	2.672436	-1.237875	-3.977620	-0.476705	118.749785	-83.948655	-4.281080			
13592	9.085686	3.749118	2.191355	-1.517545	-3.649716	-0.550733	121.991907	-83.634866	-7.581317			
13593	8.585677	3.074633	1.029264	-1.423155	-2.389778	-1.066881	128.932641	-83.340498	-15.202550			
13594	8.557774	2.384986	-0.349596	-1.353153	-0.976015	-1.079963	137.556007	-82.800622	-25.140730			
13595	9.333955	1.519034	-2.447476	-1.230554	1.100630	-0.184996	144.725375	-82.136425	-34.107865			
13596	9.617589	-0.096783	-3.740354	-0.078394	2.703043	0.146351	150.116591	-81.626213	-41.148625			
13597	9.043414	-1.289406	-2.939675	1.281328	2.244020	-0.571033	154.505340	-81.180760	-46.548854			
13598	8.567060	-1.502036	-1.570929	1.865575	0.938729	-1.224575	156.841318	-80.647783	-49.486523			
13599	8.284135	-1.003375	-1.529721	1.415464	0.676751	-1.475357	157.378035	-79.932675	-50.386224			
13600	8.734781	-0.190808	-3.317607	0.253289	1.969610	-0.680624	157.484119	-79.182913	-50.524053			
13601	8.453377	0.668472	-2.319128	-0.249407	0.726409	-1.055170	157.473521	-78.526393	-50.294476			
13602	8.158098	1.520180	-1.697715	-0.851081	-0.149012	-1.386528	157.218501	-77.769880	-50.026325			
13603	8.574733	1.758468	-2.251022	-1.095606	0.142639	-0.842554	157.230358	-76.929178	-50.335960			
13604	9.129317	1.232418	-2.780041	-0.584830	0.595503	-0.226562	157.867056	-76.145078	-51.414020			
13605	9.035573	0.530003	-2.867176	0.104769	0.785688	-0.351524	158.803589	-75.449491	-52.806932			
13606	8.661432	-0.117620	-2.862334	0.712175	0.926692	-0.765035	159.666765	-74.759467	-54.027435			
13607	8.648041	-0.104762	-2.653322	0.798394	0.615664	-0.822588	160.235665	-73.990304	-54.816726			
13608	9.114921	0.359983	-2.578561	0.506297	0.194303	-0.348826	160.533701	-73.167397	-55.223593			
13609	9.630100	0.848361	-2.280255	0.265817	-0.463003	0.105548	160.742788	-72.343498	-55.456982			
13610	10.292188	1.140708	-1.599033	0.328485	-1.461254	0.557589	161.056264	-71.627026	-55.707931			
13611	10.581509	1.137057	-0.357854	0.728693	-2.790233	0.437772	161.536254	-71.062699	-56.021159			
13612	10.726726	1.126090	1.103612	1.153078	-4.254311	0.092834	161.950885	-70.652045	-56.187705			
13613	11.002493	1.486348	2.331986	1.198493	-5.612389	-0.026644	162.104498	-70.395121	-56.053588			
13614	11.061296	1.982571	3.158084	0.982334	-6.549040	-0.200127	161.943731	-70.302448	-55.699180			
13615	10.676438	2.239361	3.460978	0.762773	-6.794241	-0.634677	161.658850	-70.282057	-55.513523			
13616	10.268579	1.900898	3.280109	0.943621	-6.423227	-0.999754	161.471780	-70.156286	-55.872184			
13617	9.913222	1.090494	2.535949	1.419824	-5.459048	-1.206055	161.424687	-69.736133	-56.871872			
13618	9.915653	0.302634	1.174644	1.820487	-4.105933	-0.889872	161.464755	-69.043254	-58.369818			
13619	10.423292	-0.386370	-0.697602	2.185051	-2.529315	0.092164	161.587057	-68.279132	-60.201753			
13620	10.875063	-1.304467	-3.064415	2.772597	-0.466602	1.207837	161.708187	-67.826233	-62.030083			
13621	10.344265	-2.789818	-4.212752	3.983530	0.918718	0.949318	161.992140	-67.815958	-63.595562			
13622	9.472025	-3.435247	-3.448783	4.540782	0.537440	-0.194663	162.562715	-67.939488	-64.800509			
13623	9.574118	-3.517606	-2.741824	4.695394	-0.172451	-0.353385	162.414862	-68.024237	-65.033346			
13624	10.198177	-2.857914	-2.515394	4.182508	-0.695456	0.213308	162.000735	-67.991455	-64.632046			
13625	10.519809	-1.634929	-1.984222	3.122819	-1.470642	0.451889	161.492959	-67.867457	-63.878142			
13626	10.492686	-0.321862	-1.722303	1.914262	-1.891467	0.479248	160.740410	-67.763819	-62.793998			
13627	10.779940	0.874381	-1.755994	0.864902	-2.122582	0.901839	159.670633	-67.710928	-61.439517			
13628	11.530638	2.004702	-1.462135	0.020769	-2.793882	1.646155	158.414150	-67.706996	-59.956495			
13629	12.561868	2.863887	-0.985638	-0.469866	-3.675657	2.566394	157.198132	-67.689041	-58.683902			
13630	12.874528	2.999797	-0.737714	-0.436481	-3.986725	2.805219	156.309022	-67.704352	-57.951823			
13631	12.701706	2.233755	-0.116514	0.370735	-4.330128	2.330164	155.717378	-67.877141	-57.647231			
13632	12.515800	1.783658	0.803352	0.866413	-4.980912	1.802434	154.938624	-68.253139	-57.080055			
13633	13.238498	2.128910	1.780823	0.790988	-6.052446	2.257983	153.602868	-68.801398	-55.692365			
13634	14.395107	3.241637	2.981235	0.130394	-7.520384	3.227095	151.506638	-69.452362	-53.462413			
13635	14.671099	3.804420	3.412655	-0.240405	-7.851106	3.590844	148.882239	-70.235887	-50.980780			
13636	14.386018	3.188850	3.829614	0.347957	-7.798490	3.258115	146.422293	-71.150971	-49.035847			
13637	14.126004	1.119362	2.683340	2.126177	-6.064076	3.098423	144.055667	-72.082891	-47.471479			
13638	13.368089	-0.139560	0.853037	2.962194	-3.710844	2.713365	141.352707	-73.066694	-45.465272			
13639	11.579820	0.587125	-1.071028	1.699725	-1.294535	1.633379	137.725651	-74.113451	-42.308437			
13640	11.694106	2.667932	-1.381236	-0.330570	-0.954948	2.218485	133.433849	-74.953717	-38.330974			
13641	13.424076	4.707521	-0.727804	-1.889482	-1.764334	4.194555	128.430891	-75.610765	-33.541375			
13642	14.028128	6.305073	-1.141826	-3.311128	-1.229315	5.199257	122.990194	-76.260251	-28.347025			
13643	14.233487	6.254301	-1.543960	-3.279097	-0.449017	5.455690	117.866422	-77.228472	-23.654251			
13644	13.999522	4.822461	-1.301540	-2.064447	-0.147135	4.905881	113.009744	-78.497153	-19.862194			
13645	13.568346	2.148813	-2.394798	0.197325	1.482991	4.050995	108.677501	-80.039980	-17.250077			
13646	13.564004	0.615903	-3.560858	1.423711	2.958837	3.834607	104.125259	-81.834292	-14.518560			
13647	12.552868	0.521521	-4.551460	1.126259	4.252707	2.804575	94.834365	-83.801244	-7.020606			
13648	11.185212	-1.763154	-5.379764	3.079393	5.303976	1.120528	74.334672	-85.236081	11.992853			
13649	8.905706	-3.374157	-4.058598	4.280724	4.099047	-1.325261	49.935359	-85.388887	35.903734			
13650	8.246259	-1.563009	-1.881139	2.209453	2.227756	-1.804222	39.000938	-84.791787	47.027528			
13651	10.057671	0.203642	-2.283016	0.579489	3.011820	0.036289	35.956139	-84.191250	50.371239			
13652	10.654057	1.140896	-2.458905	-0.296198	3.393141	0.639825	34.375896	-83.732710	52.374761			
13653	10.826026	1.460227	-2.802069	-0.601067	3.861040	0.766380	31.096136	-83.282617	56.062664			
13654	11.522916	1.515516	-4.092927	-0.623902	5.363803	1.262589	24.417325	-82.558907	63.159797			
13655	10.944653	0.868202	-3.416044	-0.173407	4.850396	0.610370	15.631056	-81.198805	72.380462			
13656	8.869559	-0.920648	-1.088387	1.308103	2.480449	-1.278696	9.271135	-79.520902	79.106240			
13657	8.076305	-1.719921	-0.389529	1.968286	1.890380	-2.009888	5.997210	-78.028749	82.952105			
13658	8.113735	-1.127539	-1.237431	1.313788	2.948285	-2.182920	4.360847	-76.856961	85.466430			
13659	7.878232	-0.461582	-2.076567	0.562957	3.885472	-2.659038	3.370923	-75.673994	87.375767			
13660	7.060303	0.002416	-1.740403	0.018966	3.496511	-3.437051	2.777568	-74.513441	88.840635			
13661	6.267411	0.013409	-1.238922	-0.041911	2.915981	-4.128536	2.451423	-73.508310	90.038113			
13662	6.134761	0.435550	-1.813649	-0.543505	3.493586	-4.463580	2.421175	-72.713847	90.978534			
13663	6.065994	0.573544	-2.658202	-0.792412	4.332580	-4.833619	2.617652	-71.886258	91.723545			
13664	5.442136	0.984208	-1.533192	-1.165516	3.095420	-5.122731	3.095964	-71.091240	92.178510			
13665	5.073227	1.601948	-0.777865	-1.735940	2.244548	-5.245701	3.682072	-70.518654	92.384530			
13666	5.279939	1.610101	-1.875066	-1.881788	3.354832	-5.432055	4.314870	-70.161451	92.506711			
13667	5.582590	1.730057	-2.524108	-2.114436	4.051734	-5.380759	4.950373	-69.801932	92.698050			
13668	5.329845	1.817663	-1.753003	-2.130263	3.238994	-5.368031	5.460421	-69.402499	92.911528			
13669	5.051108	1.841595	-1.089432	-2.075727	2.524467	-5.406961	5.912903	-69.170733	93.097867			
13670	5.186363	2.008650	-1.208198	-2.275766	2.647859	-5.317972	6.330961	-69.101057	93.233288			
13671	5.114411	2.234335	-1.158826	-2.500102	2.522491	-5.354122	6.676007	-69.147031	93.344317			
13672	4.839260	2.401057	-0.913919	-2.624297	2.147729	-5.509315	6.931046	-69.291990	93.447888			
13673	4.393006	2.507241	-0.949348	-2.729578	1.975192	-5.922451	7.139922	-69.593269	93.509763			
13674	4.045546	2.504836	-1.186182	-2.762640	2.037162	-6.310505	7.522722	-70.079669	93.351628			
13675	3.746321	2.603078	-1.308019	-2.868477	1.991228	-6.598894	8.168042	-70.725671	92.806752			
13676	3.818646	2.622639	-1.181027	-2.847886	1.854552	-6.450399	9.032941	-71.528131	91.862051			
13677	4.212925	2.443402	-0.930634	-2.604102	1.729828	-5.964196	9.956243	-72.539421	90.764188			
13678	4.982811	1.786907	-0.470447	-1.847753	1.573166	-5.084809	10.805905	-73.764060	89.584218			
13679	6.215334	0.717970	0.286060	-0.627440	1.271653	-3.712275	11.500597	-75.160872	88.393704			
13680	8.241416	-0.766737	1.085969	1.007845	1.088864	-1.597919	11.739383	-76.668677	87.587356			
13681	11.363068	-2.778124	2.295993	3.209752	0.684325	1.647201	11.180762	-78.194564	87.742269			
13682	15.177493	-5.300520	3.705320	5.904096	0.163604	5.591454	10.176872	-79.395277	88.823085			
13683	18.477274	-7.169392	4.362530	7.857349	0.254227	8.896634	11.119993	-79.963559	89.125850			
13684	22.263702	-5.357586	6.981261	6.841169	-1.728282	13.062725	17.262288	-79.739750	86.215636			
13685	25.731879	1.283525	12.911243	2.862053	-7.613599	17.828581	26.651227	-78.026884	81.550213			
13686	20.979884	9.552601	17.107514	-2.148897	-13.799429	15.257771	31.906616	-74.129898	80.331973			
13687	8.362219	13.589655	18.043629	-4.774346	-18.301406	5.091750	32.031678	-69.856026	82.459511			
13688	-2.683744	10.750808	20.795251	-1.038654	-22.833318	-4.088256	29.722391	-68.854990	85.088841			
13689	1.683512	3.425489	8.809927	0.599982	-8.247459	-4.934426	28.419330	-69.835527	85.332260			
13690	4.981822	3.481190	4.202169	-1.371176	-3.257785	-3.324205	28.330986	-70.954599	84.138961			
13691	7.231355	5.543575	2.914283	-3.745695	-2.212880	-1.292752	29.374335	-71.869399	81.957671			
13692	8.611355	8.008599	1.947887	-6.324049	-1.838308	0.122793	31.169581	-72.957971	79.154388			
13693	10.695084	8.407106	0.149708	-7.191534	0.110246	1.735162	33.053241	-74.784819	75.914816			
13694	13.387282	5.302818	-5.415872	-5.873970	6.562079	2.800326	33.837181	-77.527796	73.060382			
13695	17.253959	0.144372	-9.703893	-1.907738	12.279178	5.595103	30.711280	-80.678501	74.148188			
13696	20.194042	-3.698713	-13.204878	1.008966	16.254181	8.367410	22.747149	-83.668063	80.330685			
13697	21.083631	-7.263572	-17.033184	3.586034	20.186695	9.344778	17.283600	-85.006097	85.145442			
13698	17.576204	-4.965600	-7.829010	3.132493	10.410209	6.820503	24.179519	-84.076387	81.261146			
13699	14.875298	1.213389	4.060026	0.464797	-2.391673	5.459159	33.396015	-81.626870	76.968861			
13700	11.270253	5.308673	11.314303	-0.101398	-10.237476	3.535301	34.457703	-77.159961	80.508814			
13701	1.561521	6.282061	14.373886	0.917938	-14.702882	-4.220518	32.300694	-72.184693	85.881585			
13702	-11.285084	8.127198	13.336342	-0.935133	-18.280690	-15.829195	30.577840	-72.495764	88.128052			
13703	-8.025598	7.795774	-6.519212	-10.025094	0.161956	-17.998165	30.147449	-76.478516	84.043435			
13704	-9.019467	8.204394	-27.575157	-17.944756	20.737519	-22.281091	33.787858	-81.940720	74.369988			
13705	1.392502	0.068216	-28.698793	-8.201969	27.513853	-10.525833	63.142592	-86.221721	41.716817			
13706	26.903373	-5.993528	-9.773993	4.581521	11.518546	16.671610	112.886888	-86.628785	-6.570519			
13707	20.578372	-4.116361	-2.100485	4.616435	3.103577	10.531335	110.951962	-86.095019	-3.233511			
13708	13.789288	-2.229159	0.770417	3.310879	0.010515	3.779232	102.024265	-85.898835	7.208781			
13709	10.293317	-1.087593	2.264914	2.509859	-1.660273	0.346488	100.932445	-85.938198	9.314904			
13710	11.442741	-1.083450	3.625969	3.063944	-2.941338	1.466404	108.088714	-86.070995	2.382894			
13711	10.012348	-0.961756	2.652890	2.508507	-2.181117	0.044228	117.107929	-86.003554	-6.901598			
13712	7.540630	-0.462891	0.298273	1.078571	-0.236453	-2.333114	126.044118	-85.525607	-16.333442			
13713	6.991902	0.708587	-1.349417	-0.546389	0.828310	-2.725833	132.456097	-84.586272	-23.452117			
13714	7.695141	1.937383	-3.768455	-2.292058	2.597394	-1.740106	135.943312	-83.425997	-27.892018			
13715	8.733769	2.079501	-6.465799	-2.974078	4.967040	-0.384609	139.063083	-82.422427	-31.710991			
13716	9.087464	1.471383	-5.639759	-2.004326	4.229718	-0.084158	142.479828	-81.810425	-35.160349			
13717	8.463901	0.866718	-3.470821	-0.839445	2.298636	-0.955693	144.544340	-81.342473	-36.831176			
13718	8.639678	1.261108	-1.618152	-0.612701	0.324479	-0.959920	145.730551	-80.821685	-37.264640			
13719	9.293071	2.291241	-0.366631	-1.049104	-1.333137	-0.385801	146.368915	-80.191800	-37.177482			
13720	9.938219	3.079487	-0.167714	-1.548684	-1.932897	0.293938	146.653450	-79.592901	-37.153817			
13721	9.443332	2.818208	-0.605751	-1.447980	-1.454101	-0.154834	147.423754	-79.098890	-38.033059			
13722	8.845552	2.544308	-0.406932	-1.186962	-1.548426	-0.808473	149.080603	-78.624700	-40.164069			
13723	8.525849	1.793505	-0.658655	-0.597156	-1.109076	-1.166694	150.996380	-78.026372	-42.970108			
13724	8.773375	1.074060	-1.806315	-0.193217	0.054488	-0.793438	152.702823	-77.293437	-45.747460			
13725	9.157066	0.796118	-2.659027	-0.056442	0.758058	-0.274517	154.163387	-76.567500	-48.204222			
13726	9.052975	0.420070	-2.704133	0.328221	0.808643	-0.395560	155.148608	-75.938063	-50.139906			
13727	9.334731	-0.425333	-4.443860	0.815351	2.521091	0.189520	156.075075	-75.439727	-51.738802			
13728	9.017268	-0.488823	-3.110496	1.165421	1.256724	-0.416553	156.819294	-75.161046	-52.811398			
13729	8.504100	-0.539003	-1.640436	1.479206	-0.078269	-1.262438	157.183448	-74.793526	-53.502000			
13730	8.768567	-0.489458	-1.523950	1.525279	-0.336754	-1.037214	157.836787	-74.164091	-54.368133			
13731	9.035535	-0.165000	-1.643433	1.271028	-0.477339	-0.728414	158.495810	-73.343005	-55.266413			
13732	9.334372	0.061461	-2.379246	1.004690	-0.044359	-0.232409	158.987465	-72.469551	-56.101724			
13733	9.220772	0.123023	-2.458859	0.970712	-0.096124	-0.318988	159.464263	-71.602964	-56.926316			
13734	9.203370	0.375430	-2.458100	0.783097	-0.287926	-0.315992	159.789589	-70.741661	-57.655182			
13735	9.369132	0.568474	-2.859708	0.611889	-0.137598	-0.020515	160.112650	-69.916701	-58.326786			
13736	9.487870	0.799640	-2.975759	0.440621	-0.240378	0.150294	160.453711	-69.214763	-58.870151			
13737	9.323199	0.903965	-2.684708	0.398805	-0.588040	-0.094602	160.728018	-68.639890	-59.191590			
13738	9.162701	1.222427	-2.012758	0.207222	-1.315240	-0.446410	160.947271	-68.109831	-59.327659			
13739	9.271235	1.641119	-1.345126	-0.029694	-2.137020	-0.544998	161.103720	-67.589889	-59.389107			
13740	9.545274	1.855908	-0.768263	-0.053186	-2.879204	-0.493157	161.254597	-67.104920	-59.523218			
13741	9.732938	1.717569	-0.172285	0.242177	-3.528550	-0.582304	161.448989	-66.638897	-59.827627			
13742	9.847271	1.366664	0.167070	0.672698	-3.872388	-0.679455	161.651143	-66.158645	-60.297563			
13743	9.920112	1.063143	-0.128286	0.942019	-3.643051	-0.571722	161.783149	-65.634142	-60.845650			
13744	10.187996	0.834492	-0.936141	1.107240	-3.042292	-0.071754	161.781989	-65.127664	-61.377653			
13745	10.507709	0.480937	-1.487312	1.452347	-2.667654	0.367153	161.688106	-64.725731	-61.842097			
13746	10.498351	0.056775	-1.631979	1.856712	-2.513253	0.342008	161.547151	-64.445453	-62.199183			
13747	10.333985	-0.237837	-1.548011	2.131879	-2.518247	0.104848	161.349739	-64.235775	-62.433989			
13748	10.272660	-0.334983	-1.699739	2.209919	-2.377144	0.086514	161.124967	-64.053652	-62.608932			
13749	10.315700	-0.369789	-2.198653	2.214741	-1.968403	0.316711	160.908221	-63.908470	-62.772834			
13750	10.141580	-0.317098	-2.445790	2.117254	-1.709433	0.263479	160.682286	-63.823899	-62.924601			
13751	9.887035	-0.151423	-2.392512	1.922264	-1.699217	0.032009	160.384394	-63.769379	-63.012876			
13752	9.722036	0.337042	-2.502719	1.415996	-1.618068	-0.000859	160.107381	-63.744142	-63.069197			
13753	9.980812	0.700644	-2.269522	1.143026	-1.983989	0.188088	159.799718	-63.760186	-63.028174			
13754	10.725738	0.976315	-1.924283	1.062648	-2.618393	0.756714	159.436475	-63.805073	-62.839457			
13755	10.957070	1.296624	-1.620672	0.835324	-3.007826	0.893400	158.981769	-63.893765	-62.568232			
13756	11.651856	1.353219	-1.359492	0.958379	-3.496886	1.425567	158.457936	-63.945439	-62.330199			
13757	12.447381	1.416633	-1.531799	1.074335	-3.633583	2.226138	157.822664	-63.954359	-62.062517			
13758	12.493518	1.572868	-1.614095	0.964145	-3.558082	2.335451	156.982962	-64.073317	-61.522459			
13759	12.779730	2.010607	-0.669770	0.700630	-4.515680	2.308751	155.777550	-64.269946	-60.539680			
13760	14.264439	2.452949	-0.015196	0.700480	-5.601682	3.514659	154.089149	-64.712185	-58.970040			
13761	15.430924	2.776706	0.652883	0.774728	-6.447458	4.472619	151.949955	-65.555722	-56.771770			
13762	15.964616	3.165395	1.063951	0.643032	-6.715245	5.036427	149.314213	-66.657436	-54.025023			
13763	15.899467	2.995524	1.285194	0.892515	-6.460824	5.048654	146.118891	-67.858624	-51.012071			
13764	14.524400	2.046317	0.467822	1.490704	-4.736291	3.996489	142.650056	-69.104703	-48.039614			
13765	12.181398	1.942676	-0.416188	1.004304	-2.863684	2.150286	138.955478	-70.322262	-44.817462			
13766	10.967069	3.524452	-0.444876	-0.807077	-2.363335	1.441229	135.087014	-71.335830	-41.224584			
13767	11.917507	5.742534	-0.140697	-2.684849	-2.741875	2.847796	131.082691	-72.115889	-37.409820			
13768	13.502912	6.721603	-0.399706	-3.226783	-2.511958	4.710849	126.787183	-72.932303	-33.394248			
13769	13.419379	5.748845	-0.682835	-2.348657	-1.726815	4.507936	122.206523	-74.059921	-29.418047			
13770	12.501881	3.015446	-0.938865	-0.036557	-0.788335	3.057347	118.350007	-75.267043	-26.484671			
13771	12.511383	2.430494	-1.737620	0.353526	0.307374	3.041677	116.122145	-76.512438	-25.603257			
13772	12.269931	1.974216	-2.960701	0.536951	1.735821	2.832741	116.028859	-78.014703	-27.391122			
13773	12.215895	1.272175	-3.632136	0.989221	2.512044	2.707043	117.521334	-79.762487	-31.210879			
13774	12.159786	0.400900	-4.835854	1.684597	3.766456	2.612185	119.037946	-81.709519	-35.186724			
13775	11.365621	-2.299621	-8.696225	4.516707	7.506477	1.734583	118.485827	-83.838765	-36.332966			
13776	9.560730	-3.734176	-7.803083	5.478103	6.745402	-0.288038	111.595208	-85.933787	-29.521224			
13777	7.370649	-2.857676	-3.775016	3.757474	3.213371	-2.581295	87.810255	-86.925857	-5.251669			
13778	7.388526	-1.763745	-2.635499	2.486515	2.443442	-2.567658	65.895202	-86.509051	17.249624			
13779	8.464443	-0.420874	-1.947122	1.164348	2.092037	-1.453170	59.655944	-85.763235	24.349368			
13780	10.175235	1.384021	-2.622984	-0.393919	3.098216	0.315304	57.714280	-85.083643	27.176086			
13781	11.884375	2.816171	-3.295835	-1.605684	4.095288	2.048119	49.501978	-84.382459	36.001701			
13782	10.194023	2.052922	-3.114237	-1.041886	3.977484	0.233117	37.174441	-83.559552	48.881457			
13783	8.603254	0.827265	-1.774751	-0.117550	2.661852	-1.401648	26.622861	-82.589640	59.814508			
13784	8.429320	-0.266466	-1.930012	0.884928	2.939231	-1.724252	19.251898	-81.507679	67.474501			
13785	7.626310	-0.997963	-2.355882	1.504203	3.395097	-2.677289	14.088211	-80.497565	73.289112			
13786	7.018143	-0.728704	-2.152761	1.111078	3.268143	-3.293331	10.834495	-79.497954	77.300669			
13787	7.031190	-0.484320	-2.471313	0.803885	3.728718	-3.391795	8.839897	-78.477742	79.977892			
13788	6.775129	-0.173604	-2.452493	0.420205	3.789724	-3.696572	7.574586	-77.487832	81.982658			
13789	6.641468	0.099685	-2.175031	0.085756	3.601747	-3.823660	6.901812	-76.523581	83.386805			
13790	6.554503	0.781481	-1.701357	-0.637285	3.211601	-3.833935	6.776762	-75.665090	84.271912			
13791	6.103891	1.098856	-1.772031	-1.003106	3.230030	-4.320391	6.930295	-74.986182	84.927033			
13792	6.221878	1.588507	-1.629592	-1.517283	3.150038	-4.185469	7.161627	-74.460170	85.437146			
13793	6.186230	1.272050	-2.254993	-1.267058	3.784311	-4.423267	7.315198	-74.013035	85.996404			
13794	6.081427	1.447811	-1.805498	-1.453817	3.337914	-4.419701	7.456936	-73.609956	86.540306			
13795	5.915016	1.524801	-1.508988	-1.540467	3.018221	-4.511112	7.636359	-73.315574	86.929583			
13796	5.855207	1.416758	-1.193401	-1.426052	2.712977	-4.490942	7.902281	-73.207987	87.111990			
13797	5.900208	1.651420	-1.658185	-1.715098	3.140152	-4.569878	8.292380	-73.253323	87.207888			
13798	5.482218	2.110551	-1.247114	-2.148501	2.566495	-4.826563	8.674153	-73.352667	87.184091			
13799	4.775629	2.439153	-1.595979	-2.526285	2.640739	-5.576233	9.089193	-73.572398	87.028830			
13800	4.101645	2.656001	-1.892499	-2.786486	2.682375	-6.277206	9.678489	-73.884976	86.698403			
13801	3.498129	3.040214	-1.567286	-3.139270	2.131843	-6.724603	10.583768	-74.316419	86.003456			
13802	3.538381	3.047403	-1.351565	-3.111388	1.896954	-6.594912	11.915683	-74.939953	84.850193			
13803	4.035593	3.095480	-1.097434	-3.099741	1.723197	-6.005585	13.682816	-75.782041	83.213858			
13804	5.155421	2.488717	-0.605540	-2.378361	1.513213	-4.793586	15.712860	-76.817883	81.180380			
13805	6.701945	1.434234	0.166256	-1.149165	1.115867	-3.146870	17.964597	-78.017132	78.749892			
13806	9.663052	0.013053	0.791734	0.489635	1.082063	-0.190499	20.171969	-79.293662	76.262728			
13807	12.907873	-1.932044	1.832785	2.685651	0.597601	3.076386	21.269027	-80.545415	75.075014			
13808	15.751050	-4.341134	3.319196	5.306074	-0.402335	5.987232	20.505835	-81.481308	76.218438			
13809	18.005983	-6.058648	4.427220	7.186949	-1.009657	8.293935	20.663945	-81.632173	77.506822			
13810	19.676330	-4.248477	6.620208	6.029877	-2.794757	10.307224	25.669427	-80.568347	75.651733			
13811	20.613030	1.453558	11.333789	2.347017	-7.460279	12.414603	32.541508	-77.830203	73.291593			
13812	17.303338	8.471325	15.947891	-1.804876	-13.118730	11.393241	35.785820	-73.471823	74.127547			
13813	8.346583	13.720739	22.901145	-3.555940	-22.432001	6.502376	35.234147	-69.736062	77.133279			
13814	1.788915	8.024340	19.849271	0.494232	-19.525674	-0.863657	32.754770	-69.622035	79.462142			
13815	5.682515	1.321507	8.286280	2.241792	-5.840787	-1.840748	30.702364	-70.707802	80.280535			
13816	6.518803	1.307844	4.052056	0.583841	-1.976751	-2.304486	29.885095	-71.864177	79.947039			
13817	6.953801	2.730852	2.175781	-1.435934	-0.720523	-2.199190	30.067042	-72.601676	78.864479			
13818	6.831587	4.084451	0.671245	-3.230162	0.145332	-2.508666	30.283291	-73.136143	78.039552			
13819	7.540083	4.117280	-0.431635	-3.581320	1.296490	-2.100095	30.202025	-73.889434	77.521068			
13820	10.565654	2.141589	-2.806966	-2.278528	4.749565	0.002893	29.774382	-75.053189	77.330725			
13821	13.333106	0.345150	-3.844159	-0.771614	6.700348	2.318728	28.096058	-76.365134	78.445412			
13822	14.310370	-1.190953	-5.448984	0.160537	8.577841	2.926216	24.781007	-77.787220	81.230810			
13823	15.521902	-1.964003	-7.715604	0.118401	10.829780	3.861855	20.804571	-79.560518	85.105201			
13824	15.851123	-1.631813	-7.096082	-0.197842	9.740287	4.655390	19.689244	-81.756128	86.364886			
13825	17.146087	-1.304004	-4.828962	0.140208	7.187169	6.537001	25.300856	-83.202673	80.979996			
13826	18.972474	-1.557781	-1.910243	1.428735	4.542954	8.716858	33.657670	-82.642433	74.265706			
13827	15.002980	1.337180	3.014146	0.383576	-1.091667	5.503236	37.416882	-80.117391	73.947453			
13828	7.648188	4.518948	6.240915	-1.240967	-5.842644	-0.750439	38.453842	-76.230082	76.931127			
13829	1.923424	7.598393	10.250556	-1.882727	-11.599292	-4.492473	39.010842	-72.179486	79.921706			
13830	-5.886953	12.233542	11.667586	-5.036660	-17.171864	-10.251454	39.783224	-71.982801	80.532722			
13831	-2.466903	8.418901	-2.979150	-8.915606	-2.044549	-11.278760	40.511366	-74.797030	77.251879			
13832	-0.709214	6.912003	-17.716329	-14.009257	12.590317	-12.481730	43.285736	-78.776397	70.315990			
13833	-2.441417	5.377661	-24.873146	-14.242593	20.710146	-14.417373	50.971826	-82.127008	57.785161			
13834	6.183506	-0.248302	-17.688573	-4.698347	17.411253	-4.730691	73.749338	-83.809080	33.038636			
13835	23.239648	-2.219369	-3.980107	3.118822	5.557866	12.995393	88.561899	-83.871656	19.757847			
13836	17.471925	-1.879003	2.836721	4.448714	-1.384508	7.366803	87.228262	-83.765511	22.769665			
13837	15.647071	-3.094522	5.592002	6.323244	-3.463186	5.474453	83.611960	-84.304003	27.599177			
13838	14.723014	-4.009600	6.864660	7.362601	-4.292115	4.586246	79.362045	-85.474939	32.134533			
13839	11.821660	-5.369774	4.720545	7.374761	-2.007343	1.695749	73.365065	-86.639225	37.524549			
13840	7.886720	-7.497355	-0.060060	7.331952	2.926262	-2.323278	69.126126	-87.148998	40.701645			
13841	6.408926	-6.624671	-2.552225	5.640953	4.812983	-3.772132	76.964151	-87.003566	32.377605			
13842	5.235594	-3.129265	-2.475634	2.406306	3.481684	-4.770966	97.088641	-86.280619	12.352746			
13843	5.750570	-0.678313	-4.969427	-0.550561	4.934355	-4.018910	113.127617	-84.520679	-3.800582			
13844	8.442165	1.574669	-8.186704	-3.214128	7.081794	-0.853015	118.548830	-82.403734	-9.144690			
13845	10.419738	4.133298	-6.657759	-4.603347	4.589235	1.488732	119.995703	-80.994467	-9.447955			
13846	10.056458	5.903337	-1.534767	-4.382882	-0.992413	1.056485	120.888057	-80.492153	-8.602103			
13847	9.716054	5.529797	1.555610	-2.834704	-3.821910	0.422371	121.029855	-80.414663	-7.384281			
13848	9.209428	4.269608	2.218039	-1.440061	-3.963489	-0.316400	121.573898	-80.425704	-7.112661			
13849	8.711625	3.442134	2.103216	-0.785919	-3.558312	-0.930997	124.095858	-80.290328	-9.354436			
13850	8.852234	2.992022	1.189560	-0.708592	-2.636785	-0.797515	128.092302	-79.886744	-13.640392			
13851	9.152648	2.706113	-0.782227	-1.165846	-0.866967	-0.347313	132.599529	-79.331283	-18.789607			
13852	9.695261	2.001649	-3.170385	-1.322275	1.445175	0.396031	135.583997	-78.902988	-22.707621			
13853	8.794181	0.940052	-3.082799	-0.434757	1.761735	-0.624020	137.812184	-78.604999	-25.625150			
13854	7.758453	1.080743	-2.123253	-0.357727	0.835259	-1.747734	139.907992	-78.116743	-28.320752			
13855	7.951784	1.117484	-3.136549	-0.650145	1.651723	-1.376730	141.673009	-77.416994	-30.824448			
13856	8.091119	0.856551	-4.210819	-0.663177	2.629486	-1.061956	143.519654	-76.735067	-33.306231			
13857	7.911520	0.013266	-5.755911	-0.345582	4.284266	-1.023653	145.120971	-76.158331	-35.250386			
13858	7.419785	0.052643	-4.765032	-0.127425	3.330815	-1.648727	146.790289	-75.720768	-36.537296			
13859	6.375381	1.354855	-1.833455	-0.564547	0.230577	-3.069539	148.082518	-75.008986	-37.461668			
13860	6.813657	2.125026	-2.207048	-1.233568	0.129830	-2.445716	148.798179	-73.826606	-38.435600			
13861	8.303392	2.103749	-4.627241	-1.536690	1.976687	-0.404658	149.454040	-72.614069	-39.626746			
13862	8.713852	1.355719	-5.415841	-0.868450	2.755571	0.124659	150.337207	-71.762974	-40.831323			
13863	7.865729	0.806083	-3.808654	-0.000814	1.535825	-1.171776	151.299083	-71.039161	-41.844070			
13864	8.337315	0.799857	-2.649386	0.526783	0.269919	-1.048100	152.001505	-70.194703	-42.490637			
13865	9.511506	1.363661	-2.004210	0.570895	-0.904125	-0.055649	152.617442	-69.307327	-42.969327			
13866	10.315857	1.789277	-1.029760	0.757334	-2.255741	0.434993	153.265327	-68.517209	-43.456286			
13867	10.796416	1.883359	-0.270168	1.095241	-3.217786	0.609747	153.925830	-67.787920	-44.029263			
13868	11.082645	1.890553	-0.103539	1.276951	-3.564205	0.773822	154.487457	-67.115074	-44.617521			
13869	11.159387	1.997926	0.049187	1.293909	-3.870045	0.764337	154.923836	-66.533019	-45.183204			
13870	10.994889	2.128206	0.690834	1.343736	-4.532405	0.363021	155.243262	-66.056831	-45.730209			
13871	11.047793	2.292515	1.401035	1.420413	-5.312530	0.138755	155.429052	-65.651645	-46.274363			
13872	11.206466	2.047637	1.804314	1.795438	-5.695723	0.054832	155.463644	-65.302646	-46.848106			
13873	11.310807	1.345656	1.614786	2.402598	-5.382621	0.066939	155.448246	-64.970038	-47.533508			
13874	11.514441	0.432418	0.601015	3.027553	-4.312135	0.452271	155.304278	-64.681335	-48.283295			
13875	11.688098	-0.610006	-0.539932	3.756753	-3.086251	0.847365	155.028071	-64.557058	-48.990193			
13876	11.373478	-1.330240	-0.752263	4.267596	-2.632320	0.509600	154.836202	-64.588268	-49.719508			
13877	11.109492	-1.744584	-0.894185	4.521918	-2.349023	0.252004	154.588442	-64.660971	-50.403849			
13878	11.060737	-2.177950	-1.953689	4.695473	-1.299600	0.539303	154.244382	-64.769257	-50.923562			
13879	11.006591	-2.219489	-2.569595	4.603021	-0.735848	0.720342	153.913752	-64.931517	-51.244279			
13880	11.669588	-1.781397	-2.632084	4.348678	-1.008748	1.427951	153.535028	-65.076619	-51.329952			
13881	11.709421	-0.847427	-2.548432	3.494328	-1.313915	1.606000	153.009826	-65.117653	-51.169105			
13882	11.554587	0.096958	-2.786276	2.559180	-1.262473	1.725842	152.292508	-64.961558	-50.807644			
13883	12.406281	1.254796	-3.240398	1.685027	-1.383846	2.885173	151.497536	-64.831490	-50.164970			
13884	12.569986	2.623997	-2.026122	0.664616	-2.832126	2.857436	150.785389	-64.842910	-49.435076			
13885	13.742601	3.786821	-1.175450	0.049499	-4.211456	3.856315	150.144431	-64.902394	-48.919213			
13886	16.321159	4.112185	-1.669133	0.413252	-4.582601	6.463199	149.300933	-65.052660	-48.606060			
13887	16.083547	3.198569	-3.256549	0.992226	-2.703772	6.656032	148.312138	-65.566713	-48.323119			
13888	14.183379	2.270455	-2.884037	1.345194	-2.078324	4.627117	147.331727	-66.345252	-47.887972			
13889	12.380667	2.933697	-1.922902	0.279522	-2.372883	2.831402	146.091281	-67.089191	-47.063054			
13890	11.390770	4.678437	-2.251443	-1.718934	-1.915925	2.437925	144.521670	-67.791557	-45.683850			
13891	11.264550	5.901026	-2.850928	-2.994712	-1.293827	2.804381	141.798387	-68.800586	-42.775050			
13892	10.361159	6.921125	-2.320241	-4.136263	-1.438277	2.080615	137.369219	-70.138625	-37.742931			
13893	9.460088	8.253035	-1.589018	-5.528113	-1.851999	1.418083	131.555215	-71.494086	-31.121373			
13894	9.873339	9.150849	-1.206774	-6.194678	-2.076828	2.018355	124.355401	-72.782543	-23.425213			
13895	9.548978	9.244382	-0.073155	-6.211258	-2.702190	1.621712	116.297254	-73.993962	-15.378144			
13896	8.102863	8.849781	1.343586	-6.069874	-3.445664	0.038536	109.039668	-74.907197	-9.105803			
13897	8.177635	6.655713	0.261016	-4.255558	-1.615230	-0.298915	104.392255	-75.506445	-6.139225			
13898	9.265608	5.730942	-1.696817	-3.449210	0.702996	0.636158	102.039197	-76.003875	-5.771948			
13899	10.034702	4.218910	-3.260149	-1.999738	2.598063	1.067205	100.554785	-76.615636	-6.440959			
13900	10.069782	2.528978	-4.500352	-0.423496	4.093436	0.728304	98.491496	-77.312794	-6.543685			
13901	9.811141	1.409197	-4.900323	0.626000	4.636228	0.205815	96.325888	-78.076939	-6.177966			
13902	9.582597	0.718076	-5.056139	1.269387	4.875377	-0.193691	93.550013	-78.750392	-4.797325			
13903	9.496818	1.089700	-4.210875	0.879986	4.125772	-0.257002	90.029625	-79.249487	-2.557592			
13904	9.611375	1.832591	-3.635662	0.150557	3.688670	-0.049247	86.303617	-79.761314	-0.145066			
13905	10.036161	1.437298	-4.437915	0.639709	4.576165	0.243826	82.017868	-80.531561	2.987905			
13906	9.679465	0.790406	-3.742273	1.067806	3.935099	-0.237004	76.568556	-81.555092	7.570067			
13907	9.151630	-0.078605	-3.426883	1.683412	3.624065	-0.894614	69.613785	-82.575044	13.697278			
13908	9.126719	-0.750724	-3.464969	2.215344	3.675084	-1.012088	60.428443	-83.442277	22.020519			
13909	8.958771	-1.872609	-4.564806	3.329908	4.702701	-1.362936	48.414433	-83.949039	33.309560			
13910	8.581484	-2.451218	-4.159707	3.705171	4.310602	-1.772691	35.481828	-83.980593	45.941632			
13911	8.063932	-2.710395	-3.046962	3.660851	3.271323	-2.226423	25.101958	-83.593150	56.410327			
13912	7.589336	-2.531322	-2.721003	3.327198	3.071092	-2.677864	18.596296	-83.024152	63.293611			
13913	7.347079	-2.323095	-2.950474	3.073237	3.430538	-2.966780	14.988119	-82.425622	67.614692			
13914	7.309956	-1.265924	-3.038779	1.970602	3.774522	-3.020029	12.792850	-81.749262	70.693026			
13915	7.040996	-1.090631	-2.762881	1.691109	3.602697	-3.289055	11.255166	-81.039707	73.171185			
13916	6.718741	-1.227242	-2.258050	1.707021	3.151564	-3.575789	10.303864	-80.423173	75.174147			
13917	6.454937	-1.374902	-2.028813	1.772242	2.963637	-3.833740	10.177259	-79.958078	76.460369			
13918	6.509813	-1.176088	-2.098558	1.530383	3.131089	-3.811159	10.675570	-79.565319	77.201667			
13919	6.567253	-0.602445	-2.319698	0.918641	3.445474	-3.799615	11.485473	-79.163219	77.613038			
13920	6.598518	0.087879	-2.704364	0.183552	3.895381	-3.841628	12.462229	-78.688908	77.891665			
13921	6.077056	0.416318	-2.123096	-0.205959	3.266419	-4.253975	13.847477	-78.192925	77.821600			
13922	5.499086	1.378953	-1.569657	-1.198538	2.599988	-4.673735	16.145187	-77.855607	76.922877			
13923	5.594500	2.393689	-1.740661	-2.221044	2.713461	-4.543723	19.121161	-77.627680	75.254444			
13924	5.460173	3.205863	-1.978778	-3.047081	2.809833	-4.633281	22.589895	-77.473282	72.958550			
13925	5.582621	3.584388	-2.453719	-3.447888	3.191376	-4.524917	26.534364	-77.389211	70.194409			
13926	5.778843	4.150988	-1.896938	-3.896369	2.530248	-4.099676	31.072127	-77.364630	66.971013			
13927	6.011434	4.531984	-0.928519	-4.048689	1.462334	-3.567252	36.170569	-77.373202	63.160291			
13928	6.521744	5.111802	-0.017446	-4.313984	0.460148	-2.753029	41.305368	-77.380788	58.979654			
13929	7.294384	5.437455	0.684075	-4.301149	-0.248943	-1.770435	45.634240	-77.429244	55.192079			
13930	8.774692	4.946380	2.017864	-3.285976	-1.295576	-0.166121	48.429095	-77.603027	52.748649			
13931	10.434880	4.202649	4.555890	-1.778065	-3.423968	1.694678	49.674455	-77.797408	51.855811			
13932	12.911526	3.924299	7.921146	-0.449211	-6.223576	4.537122	48.765360	-77.612619	53.097478			
13933	14.668080	3.333936	11.471598	1.179563	-9.031723	6.767041	45.495182	-76.690232	57.095151			
13934	12.285484	2.647388	14.121335	2.413384	-11.507763	4.988174	43.117173	-75.480151	61.329469			
13935	10.094496	5.475121	13.042030	-0.338383	-11.388754	3.306894	45.107180	-74.972034	61.558167			
13936	11.776795	7.255167	9.609388	-2.372247	-8.294852	4.652014	47.855641	-74.814691	60.091204			
13937	11.499937	7.202252	7.257691	-2.874044	-6.214032	3.968439	48.351224	-74.661914	60.335734			
13938	10.154635	5.578268	7.026338	-1.548240	-5.799409	2.335250	46.927467	-74.414085	62.152962			
13939	9.495395	4.569714	6.827551	-0.773135	-5.393689	1.499697	45.348915	-74.192904	63.933802			
13940	9.349786	4.523936	5.809850	-1.136961	-4.424527	1.176826	44.044319	-74.148533	65.278420			
13941	8.391963	4.760247	4.869724	-1.844712	-3.849369	0.115972	43.006535	-74.255332	66.139045			
13942	8.109279	4.877156	2.513419	-2.844512	-1.768467	-0.612404	41.913221	-74.305457	66.782064			
13943	7.597608	4.804837	1.660619	-3.176546	-1.034500	-1.303500	40.162786	-74.160146	67.961801			
13944	7.492484	5.295671	2.694354	-3.394601	-2.069987	-1.116060	38.166526	-73.948636	69.215638			
13945	8.342551	5.617950	2.818629	-3.675665	-1.967952	-0.235664	36.937287	-74.127724	69.135762			
13946	10.164303	5.401986	0.425400	-4.057157	0.802227	0.937712	36.828507	-75.068181	67.478050			
13947	12.199278	4.554603	-2.770009	-3.862862	4.395807	2.145238	37.218416	-76.630029	65.012676			
13948	13.154593	2.698309	-4.841873	-2.363952	6.718007	2.558165	37.416091	-78.569219	62.661064			
13949	14.640641	-0.277734	-6.086438	0.507510	8.284186	3.698674	37.541410	-80.857652	60.662152			
13950	19.250919	-3.465183	-5.440808	3.973881	8.169946	8.342780	34.268817	-82.996064	62.711907			
13951	21.385090	-7.085621	-1.773522	7.694596	4.841435	10.875238	21.357665	-83.884311	75.438618			
13952	16.596530	-8.797076	0.467660	8.961336	2.503891	6.510012	5.254826	-83.059000	92.565561			
13953	7.478008	-7.874112	0.069041	7.649413	2.121276	-2.403827	-3.178048	-81.494434	102.871897			
13954	0.520336	-4.416504	0.325491	4.378068	0.584971	-9.204195	-4.050016	-80.581286	105.737352			
13955	-1.466613	-0.543743	-1.748411	0.222419	1.573757	-11.538120	0.035161	-80.893998	102.908232			
13956	-1.522815	2.039470	-5.792383	-3.256225	4.897293	-12.145159	8.716885	-82.193268	94.587272			
13957	-1.522669	4.740057	-7.918465	-6.428226	6.406265	-12.073189	27.542720	-83.661446	75.379480			
13958	3.078676	4.810539	-6.223489	-5.904780	5.286715	-6.894455	57.488027	-83.644492	45.086990			
13959	20.705207	3.211489	-2.702895	-1.671786	3.317200	10.982572	78.098883	-82.454778	24.763913			
13960	14.725183	6.440458	-4.509513	-5.421602	3.641873	5.548927	84.752899	-81.966466	19.495521			
13961	10.510992	4.922619	-2.394284	-3.954458	1.582260	1.246424	84.761668	-82.087516	20.295951			
13962	7.859352	2.652547	-1.570316	-1.957356	1.199331	-1.688561	84.009085	-82.306905	21.784461			
13963	7.524739	2.752792	-0.258801	-1.757753	-0.143376	-1.992453	85.272862	-82.337453	21.460405			
13964	8.499204	4.070656	0.435692	-2.650857	-1.198840	-0.838756	87.947198	-82.120137	19.541598			
13965	9.607625	5.397070	-0.085141	-3.853185	-1.111667	0.451749	90.434928	-81.892973	17.232343			
13966	10.050550	4.824692	-0.304075	-3.291544	-0.757413	0.816312	92.624631	-81.969223	14.635954			
13967	9.749081	2.926061	-0.096085	-1.497485	-0.467086	0.244862	96.522617	-82.289073	9.994917			
13968	10.260383	1.362925	-0.379623	-0.068666	0.145670	0.543437	102.360855	-82.641867	3.181375			
13969	10.696469	0.102936	-1.254536	0.915024	1.166582	0.854919	109.439036	-82.967266	-4.858815			
13970	10.650797	-0.785990	-2.293164	1.457619	2.220545	0.782478	116.767899	-83.283434	-12.954332			
13971	10.263477	-1.347740	-2.947060	1.748854	2.847781	0.418163	123.251515	-83.570296	-20.035168			
13972	10.046458	-1.862195	-3.429719	2.062647	3.335311	0.226351	128.124428	-83.821082	-25.335089			
13973	9.819767	-2.317722	-3.597671	2.400396	3.545100	0.006319	131.300446	-83.996891	-28.667456			
13974	9.837670	-2.329938	-3.300867	2.441657	3.231153	0.021027	132.605738	-84.077904	-29.859485			
13975	10.109415	-1.834849	-2.467285	2.145507	2.297328	0.275597	132.500422	-84.083349	-29.448493			
13976	10.328629	-1.333301	-1.765977	1.825280	1.504972	0.481987	132.284012	-84.057378	-28.789257			
13977	10.350515	-0.629247	-1.376982	1.231095	0.971432	0.529745	132.237202	-84.028450	-28.332426			
13978	9.814728	-0.242884	-1.581644	0.760335	1.106730	0.040561	132.186255	-83.965850	-27.948156			
13979	9.384869	0.069329	-1.986460	0.326281	1.438963	-0.333789	132.170453	-83.865996	-27.632930			
13980	9.019700	0.547141	-2.350704	-0.249253	1.681248	-0.631652	131.992753	-83.724866	-27.170346			
13981	8.585425	0.967630	-2.491693	-0.713193	1.717012	-1.015101	131.866669	-83.497860	-26.771719			
