// General information: 
//  MT Manager version: 2022.0.0 
//  XDA version: 2022.0.0 build 7085 rev 119802 built on 2022-11-08
// Device information: 
//  DeviceId: 00B49380
//  ProductCode: MTW2-3A7G6
//  Firmware Version: 4.6.0
//  Hardware Version: 2.0.0
// Device settings: 
//  Filter Profile: human(46.1)
//  Option Flags: Orientation Smoother Disabled, Position/Velocity Smoother Disabled, Continuous Zero Rotation Update Disabled, AHS Disabled, ICC Disabled
// Coordinate system: ENU
PacketCounter	Acc_X	Acc_Y	Acc_Z	FreeAcc_E	FreeAcc_N	FreeAcc_U	Roll	Pitch	Yaw	Vel_E	Vel_N	Vel_U
12890	9.611436	0.432363	2.323697	-0.523868	0.093491	0.070785	13.253457	-79.191339	-22.372034			
12891	9.667024	0.429738	2.348176	-0.527394	0.089183	0.130343	13.169755	-79.115240	-22.324437			
12892	9.761663	0.453026	2.342164	-0.485688	0.101649	0.223984	13.056313	-79.008430	-22.216109			
12893	9.774981	0.504496	2.505075	-0.609798	0.171887	0.270899	12.887652	-78.856800	-22.033348			
12894	9.639116	0.579767	2.772558	-0.854284	0.291945	0.193344	12.692427	-78.695998	-21.827895			
12895	9.628349	0.574311	2.524391	-0.589660	0.246018	0.137147	12.507604	-78.561132	-21.662155			
12896	9.646208	0.495733	2.401889	-0.458212	0.146518	0.128776	12.342136	-78.442930	-21.551818			
12897	9.558895	0.415436	2.370668	-0.437457	0.067482	0.034606	12.199570	-78.344442	-21.480828			
12898	9.539885	0.326689	2.473244	-0.540828	-0.002911	0.033152	12.081765	-78.280642	-21.451891			
12899	9.488474	0.190325	2.533900	-0.620145	-0.123239	-0.010227	11.965128	-78.219506	-21.442774			
12900	9.322106	0.084735	2.684122	-0.805693	-0.189528	-0.146856	11.861432	-78.172092	-21.458881			
12901	9.295562	-0.037999	2.609667	-0.751611	-0.318190	-0.192234	11.764827	-78.131387	-21.482337			
12902	9.245225	-0.124319	2.632216	-0.793429	-0.392763	-0.240101	11.672877	-78.113424	-21.517284			
12903	9.253154	-0.201024	2.590681	-0.762452	-0.471650	-0.243512	11.570518	-78.105275	-21.544998			
12904	9.277582	-0.203933	2.536338	-0.705405	-0.479986	-0.230404	11.434402	-78.107726	-21.539870			
12905	9.305979	-0.192147	2.429448	-0.593452	-0.482325	-0.223341	11.271121	-78.107004	-21.492760			
12906	9.264471	-0.134812	2.479554	-0.638986	-0.407772	-0.251191	11.111069	-78.111675	-21.446916			
12907	9.272648	-0.123800	2.450597	-0.606627	-0.395510	-0.248257	10.928075	-78.119875	-21.379556			
12908	9.326399	-0.047009	2.455428	-0.587970	-0.314741	-0.191446	10.720200	-78.142883	-21.309600			
12909	9.352256	-0.030276	2.519159	-0.642792	-0.277506	-0.152379	10.421569	-78.175623	-21.200994			
12910	9.390971	-0.048930	2.607874	-0.726869	-0.267019	-0.097026	10.034294	-78.209997	-21.060127			
12911	9.386542	-0.076993	2.383190	-0.516170	-0.319204	-0.147060	9.641765	-78.218587	-20.883215			
12912	9.435531	-0.046941	2.321013	-0.438549	-0.290300	-0.110011	9.249304	-78.218707	-20.703099			
12913	9.529311	-0.003051	2.328299	-0.411171	-0.238630	-0.014590	8.804323	-78.181884	-20.500470			
12914	9.473801	-0.066984	2.374341	-0.468382	-0.273800	-0.060739	8.333160	-78.133778	-20.291093			
12915	9.342555	-0.104166	2.160845	-0.282055	-0.330203	-0.232770	7.861714	-78.056820	-20.052939			
12916	9.327209	0.023172	2.289812	-0.365904	-0.166488	-0.216909	7.418564	-77.988546	-19.842619			
12917	9.204565	-0.027948	2.003209	-0.110358	-0.256122	-0.396752	6.971682	-77.906013	-19.629965			
12918	9.140210	-0.006278	1.826549	0.066042	-0.258562	-0.495579	6.579856	-77.830075	-19.436335			
12919	9.013842	-0.139309	1.694925	0.153341	-0.399695	-0.649815	6.173196	-77.736614	-19.220554			
12920	8.932904	-0.222326	1.674691	0.151272	-0.472254	-0.734974	5.866542	-77.678036	-19.039384			
12921	9.078331	-0.390783	1.790995	0.042190	-0.612805	-0.571522	5.504377	-77.631065	-18.798036			
12922	9.153941	-0.649145	1.796877	-0.000006	-0.859119	-0.501044	5.203661	-77.601890	-18.565563			
12923	9.345570	-0.735916	1.871581	-0.046119	-0.931415	-0.298782	4.938660	-77.593879	-18.298396			
12924	9.373868	-0.826571	1.820341	-0.012379	-1.024660	-0.282935	4.759247	-77.630534	-18.062046			
12925	9.599324	-0.907033	1.458458	0.354590	-1.190944	-0.140421	4.673676	-77.698484	-17.854640			
12926	9.687483	-0.836222	1.527815	0.311640	-1.105920	-0.037176	4.677140	-77.798958	-17.720792			
12927	9.928961	-0.870184	1.498177	0.365642	-1.155550	0.193161	4.747548	-77.919791	-17.625494			
12928	10.068242	-0.840685	1.283192	0.588069	-1.178763	0.286199	4.924255	-78.026823	-17.580867			
12929	10.068345	-0.592067	1.179894	0.727314	-0.957497	0.270391	5.156321	-78.119022	-17.578072			
12930	10.050107	-0.505991	1.065524	0.837038	-0.897779	0.231683	5.472693	-78.205871	-17.655664			
12931	9.937363	-0.350039	1.013538	0.885064	-0.753010	0.114578	5.840182	-78.276617	-17.786054			
12932	9.832869	-0.256017	1.112663	0.774246	-0.641075	0.035074	6.292341	-78.364379	-18.023499			
12933	9.839445	-0.258122	1.197331	0.676887	-0.634602	0.059191	6.744429	-78.455109	-18.297732			
12934	9.883890	-0.249942	1.297732	0.570949	-0.617818	0.123617	7.192901	-78.558273	-18.603053			
12935	9.988519	-0.340904	1.219715	0.627215	-0.735916	0.209259	7.627865	-78.662743	-18.931668			
12936	9.937836	-0.480527	1.298521	0.492713	-0.862004	0.171890	8.066700	-78.768232	-19.298765			
12937	9.862928	-0.607830	1.356231	0.377078	-0.979737	0.106186	8.571390	-78.870255	-19.770264			
12938	9.741225	-0.739563	1.521918	0.145129	-1.080731	0.014090	9.180843	-78.988028	-20.363706			
12939	9.736699	-0.957045	1.447425	0.147128	-1.320884	-0.012288	9.909448	-79.107413	-21.080210			
12940	9.698921	-0.977893	1.509752	0.046227	-1.343466	-0.040403	10.784047	-79.240890	-21.950947			
12941	9.677585	-0.965467	1.339499	0.177083	-1.381020	-0.094492	11.812945	-79.376021	-22.958785			
12942	9.638272	-0.912814	1.293534	0.190530	-1.358381	-0.142057	13.012859	-79.508393	-24.123269			
12943	9.634992	-0.825208	1.361892	0.106077	-1.285485	-0.132558	14.310306	-79.636063	-25.385731			
12944	9.644159	-0.774687	1.280718	0.159242	-1.279504	-0.138623	15.700902	-79.761535	-26.721622			
12945	9.575559	-0.633567	1.282444	0.139107	-1.163347	-0.202041	17.079033	-79.871411	-28.029275			
12946	9.476461	-0.576110	1.224229	0.156495	-1.136633	-0.309142	18.469808	-79.983928	-29.341627			
12947	9.386643	-0.622376	1.250100	0.075527	-1.194228	-0.398488	19.777568	-80.092427	-30.571799			
12948	9.265018	-0.702980	1.186916	0.070733	-1.295858	-0.535880	21.027133	-80.202334	-31.741633			
12949	9.292134	-0.652257	1.203399	0.037419	-1.264440	-0.505859	22.196294	-80.312597	-32.821796			
12950	9.355329	-0.653580	1.092007	0.123776	-1.308263	-0.463096	23.332417	-80.419136	-33.862168			
12951	9.414914	-0.581818	1.049228	0.158478	-1.266678	-0.407885	24.435095	-80.515684	-34.863194			
12952	9.464091	-0.636672	1.048730	0.126662	-1.341173	-0.364972	25.581216	-80.609628	-35.916563			
12953	9.509520	-0.654806	1.069994	0.080250	-1.375903	-0.320323	26.752449	-80.695737	-37.007539			
12954	9.673579	-0.626474	0.957347	0.187075	-1.401116	-0.174799	27.986890	-80.772845	-38.171250			
12955	9.709932	-0.562890	0.820087	0.308953	-1.384683	-0.155604	29.253500	-80.831942	-39.357054			
12956	9.852966	-0.480000	0.757943	0.374928	-1.349728	-0.018639	30.557245	-80.871086	-40.573498			
12957	9.943354	-0.338254	0.703105	0.440570	-1.252253	0.072489	31.830703	-80.883817	-41.746830			
12958	10.013289	-0.158743	0.751909	0.410800	-1.101024	0.161049	33.104861	-80.875108	-42.918246			
12959	10.104278	0.064572	0.791018	0.402360	-0.912105	0.273560	34.354704	-80.852993	-44.057434			
12960	10.164945	0.288294	0.661113	0.556188	-0.749208	0.334999	35.600632	-80.806744	-45.195348			
12961	9.993949	0.321912	0.641822	0.546124	-0.730330	0.165431	36.781339	-80.734148	-46.290758			
12962	9.886707	0.306385	0.668362	0.492804	-0.761413	0.059742	37.903553	-80.638014	-47.358195			
12963	9.757601	0.086032	0.733055	0.368770	-0.984315	-0.083834	38.898791	-80.528556	-48.322763			
12964	9.779432	-0.068724	0.804360	0.267212	-1.160025	-0.072469	39.856627	-80.415394	-49.259974			
12965	9.762045	-0.140569	0.696665	0.352610	-1.276011	-0.114749	40.698596	-80.298694	-50.082000			
12966	9.862297	-0.156481	0.604267	0.446414	-1.348958	-0.033347	41.452516	-80.181532	-50.817743			
12967	10.147917	-0.078412	0.480060	0.610095	-1.357294	0.237303	42.048448	-80.064366	-51.386596			
12968	10.401065	0.081999	0.405083	0.738965	-1.272878	0.492002	42.505391	-79.938290	-51.812896			
12969	10.607009	0.271078	0.468763	0.737818	-1.131382	0.721893	42.732698	-79.799696	-52.013519			
12970	10.773659	0.339272	0.339159	0.908772	-1.132192	0.873474	42.744095	-79.634900	-52.009657			
12971	10.770670	0.386837	0.261960	1.016438	-1.119819	0.861503	42.475320	-79.443998	-51.735767			
12972	10.648041	0.234929	0.074371	1.193443	-1.301195	0.690833	42.018565	-79.227971	-51.287497			
12973	10.385808	-0.040044	-0.081642	1.309162	-1.574990	0.369581	41.378403	-78.995387	-50.659060			
12974	10.195641	-0.347540	-0.220683	1.413803	-1.886604	0.115165	40.658531	-78.753408	-49.961672			
12975	10.030008	-0.750796	-0.247870	1.397823	-2.275633	-0.112504	39.816436	-78.502845	-49.162314			
12976	10.096196	-1.065172	-0.134611	1.291470	-2.590014	-0.080803	38.873790	-78.241133	-48.291490			
12977	10.153320	-1.360393	-0.169872	1.336939	-2.904481	-0.078946	37.787975	-77.958951	-47.299510			
12978	10.134769	-1.523193	-0.028431	1.227626	-3.051157	-0.106118	36.615384	-77.643818	-46.237898			
12979	10.113714	-1.510080	0.516381	0.760427	-2.961042	-0.040900	35.347321	-77.323628	-45.139321			
12980	10.283532	-1.478489	0.745513	0.634920	-2.927117	0.163346	34.014679	-77.010668	-44.014260			
12981	10.468079	-1.152617	1.256292	0.297051	-2.555528	0.476536	32.592646	-76.723631	-42.821343			
12982	10.694519	-0.898824	1.991457	-0.260904	-2.212437	0.872965	31.109744	-76.487545	-41.613043			
12983	11.016019	-0.628754	2.722836	-0.798059	-1.849576	1.372287	29.681887	-76.357613	-40.461409			
12984	11.519809	-0.170398	3.116612	-0.946442	-1.373645	2.005320	28.369336	-76.294947	-39.389449			
12985	11.675668	0.183728	3.252562	-0.931036	-0.982946	2.233091	27.075964	-76.243686	-38.299554			
12986	11.365362	0.705854	3.914171	-1.474206	-0.265553	2.134960	25.885560	-76.208257	-37.286773			
12987	11.300976	1.185020	4.409710	-1.829199	0.350815	2.232750	24.784275	-76.262359	-36.335246			
12988	11.686161	1.783758	3.890346	-1.118247	0.838017	2.553796	23.845860	-76.404293	-35.412754			
12989	11.937715	2.872352	3.176936	-0.162437	1.788498	2.742270	22.992245	-76.584880	-34.403155			
12990	11.682971	4.183219	2.480200	0.708549	3.027319	2.454157	22.226159	-76.758041	-33.356452			
12991	11.036161	5.374617	1.771632	1.476868	4.198628	1.763672	21.504092	-76.896981	-32.293056			
12992	9.807057	6.087366	1.555060	1.560274	5.051112	0.565378	20.841931	-76.964310	-31.326174			
12993	8.818410	6.413827	1.829182	1.151270	5.566177	-0.329039	20.186170	-77.002816	-30.521952			
12994	7.930477	6.040019	2.112444	0.636131	5.373075	-1.177755	19.562100	-77.052974	-29.961757			
12995	7.342916	4.923453	2.647037	-0.188062	4.460280	-1.735805	18.832269	-77.151825	-29.514145			
12996	6.856089	3.442149	3.402250	-1.274168	3.230086	-2.172499	17.946683	-77.308335	-29.096686			
12997	7.133412	1.848411	4.095647	-2.193852	1.822616	-1.879136	16.886849	-77.544073	-28.598108			
12998	7.785549	0.441072	4.247820	-2.516400	0.481938	-1.310438	15.635359	-77.839066	-27.882502			
12999	8.389342	-0.929773	3.850896	-2.339644	-0.917759	-0.881940	14.259386	-78.093989	-26.910081			
13000	8.806563	-1.608184	3.224394	-1.831562	-1.684659	-0.628703	13.002090	-78.277931	-25.817115			
13001	9.127167	-1.787611	3.010969	-1.614571	-1.883852	-0.356960	11.794902	-78.394627	-24.594323			
13002	9.771822	-1.500367	2.969439	-1.384533	-1.625211	0.286757	10.529926	-78.443840	-23.198943			
13003	10.313746	-0.795112	3.054863	-1.186744	-0.922800	0.868025	9.189044	-78.398624	-21.680000			
13004	10.617171	-0.075035	2.774624	-0.665435	-0.265212	1.137886	7.860231	-78.244915	-20.126030			
13005	10.446215	0.495305	2.651180	-0.404481	0.310948	0.963993	6.567263	-78.003677	-18.603463			
13006	10.082559	0.627275	2.475916	-0.220752	0.457943	0.575902	5.315905	-77.718822	-17.160633			
13007	9.649319	0.677233	2.392148	-0.157306	0.546109	0.135530	4.112721	-77.428007	-15.803503			
13008	9.078787	0.556732	2.313596	-0.169449	0.474544	-0.440771	2.943227	-77.144345	-14.544964			
13009	8.689474	0.076283	2.303223	-0.288142	0.052548	-0.827613	1.795448	-76.881748	-13.346123			
13010	8.453700	-0.197642	2.517302	-0.553855	-0.132301	-1.008346	0.659659	-76.659681	-12.157383			
13011	8.541537	-0.446625	2.897750	-0.905978	-0.273863	-0.831693	-0.521000	-76.468474	-10.936079			
13012	8.585059	-0.682912	3.032598	-1.033936	-0.446665	-0.751920	-1.657538	-76.284488	-9.738892			
13013	8.643107	-0.808092	2.834812	-0.819229	-0.577085	-0.735898	-2.695171	-76.099647	-8.536445			
13014	8.776385	-0.813924	2.567941	-0.499569	-0.608074	-0.665981	-3.593995	-75.929507	-7.459884			
13015	8.910557	-0.804766	2.545967	-0.411120	-0.579662	-0.537859	-4.409705	-75.770168	-6.408936			
13016	9.077450	-0.812376	2.717274	-0.504675	-0.533070	-0.330882	-5.173435	-75.624695	-5.471078			
13017	9.057294	-0.785840	2.859051	-0.610675	-0.454083	-0.312843	-5.931448	-75.479487	-4.528816			
13018	8.916322	-0.799951	2.968531	-0.726288	-0.418459	-0.418531	-6.668291	-75.345937	-3.665873			
13019	8.718758	-0.882398	2.965473	-0.763275	-0.469941	-0.604764	-7.397996	-75.218695	-2.813381			
13020	8.489486	-0.957274	2.865303	-0.717217	-0.532852	-0.846122	-8.083006	-75.096905	-2.010868			
13021	8.187556	-1.177088	2.835474	-0.782353	-0.728316	-1.134040	-8.734986	-74.979860	-1.205820			
13022	7.933887	-1.291748	2.886628	-0.898051	-0.808979	-1.357701	-9.335368	-74.883594	-0.514533			
13023	7.818981	-1.426450	3.019295	-1.060748	-0.900146	-1.425085	-9.849775	-74.802473	0.126654			
13024	7.835405	-1.370724	3.019111	-1.034227	-0.829785	-1.408564	-10.224774	-74.721638	0.563005			
13025	7.596486	-1.733533	2.348785	-0.505219	-1.290951	-1.793541	-10.428827	-74.652290	0.858409			
13026	7.612281	-1.798260	1.766277	0.049705	-1.448597	-1.926028	-10.407569	-74.649952	0.977663			
13027	7.730395	-1.822256	2.102439	-0.240042	-1.418237	-1.723753	-10.349676	-74.674926	1.049137			
13028	7.595393	-2.122656	2.071889	-0.297546	-1.722767	-1.848271	-10.295331	-74.733095	1.045324			
13029	7.525710	-2.094381	2.070140	-0.317802	-1.698201	-1.918175	-10.247139	-74.846522	1.148337			
13030	7.490445	-1.793907	2.327729	-0.542376	-1.362215	-1.901091	-10.284309	-74.994056	1.288633			
13031	7.508728	-1.536664	2.406089	-0.591174	-1.095353	-1.876550	-10.394164	-75.153119	1.593376			
13032	7.729688	-1.016572	2.551081	-0.617716	-0.554336	-1.651768	-10.601919	-75.321379	1.983717			
13033	7.985414	-0.625536	2.800984	-0.757030	-0.121309	-1.361901	-10.942010	-75.461780	2.533535			
13034	8.213509	-0.407659	3.171786	-1.044994	0.163224	-1.062291	-11.396498	-75.583436	3.102133			
13035	8.686312	-0.340179	3.278352	-1.038491	0.267013	-0.584171	-11.913349	-75.676472	3.754129			
13036	9.314302	-0.418045	3.131012	-0.769722	0.197982	-0.009499	-12.453089	-75.764806	4.380342			
13037	9.924774	-0.551787	2.843249	-0.375814	0.058216	0.519059	-13.041555	-75.818355	5.082951			
13038	10.312145	-1.018147	2.578830	-0.097911	-0.406688	0.857471	-13.638489	-75.839748	5.706410			
13039	10.605631	-1.747751	2.659581	-0.201987	-1.083249	1.205167	-14.225558	-75.831814	6.330323			
13040	10.827658	-2.585264	3.012430	-0.597067	-1.828732	1.558139	-14.793376	-75.812826	6.853295			
13041	10.993816	-3.449153	3.351196	-0.991393	-2.604048	1.858953	-15.309501	-75.782574	7.378996			
13042	10.800663	-4.459991	3.339839	-1.154672	-3.588402	1.741118	-15.697758	-75.734222	7.760735			
13043	10.688850	-5.195659	3.293450	-1.216623	-4.310294	1.677933	-15.988820	-75.673561	8.177278			
13044	10.542146	-5.690004	3.778603	-1.764217	-4.724321	1.692056	-16.258937	-75.620823	8.577547			
13045	11.023367	-5.624386	4.313824	-2.123461	-4.560749	2.288876	-16.521023	-75.562545	9.104435			
13046	11.502551	-5.330528	4.463604	-2.078551	-4.228062	2.775001	-16.629194	-75.457255	9.530398			
13047	12.223047	-4.646585	4.649060	-1.941354	-3.507364	3.474020	-16.538314	-75.309739	9.968097			
13048	13.039626	-3.845909	4.401568	-1.343535	-2.734042	4.148541	-16.036594	-75.128081	10.160360			
13049	13.752955	-2.512580	4.858340	-1.384105	-1.384072	4.857950	-15.076785	-74.839329	10.120187			
13050	13.476401	-1.654085	5.514889	-1.899780	-0.566028	4.707345	-13.712045	-74.373276	9.640967			
13051	12.467553	-0.913321	4.706273	-1.212110	-0.031337	3.489604	-12.300851	-73.908002	9.252220			
13052	11.892942	0.545905	2.466211	0.934822	1.199784	2.250004	-11.196878	-73.629379	8.980089			
13053	12.221151	2.452777	1.019568	2.499113	3.026606	2.061916	-10.473775	-73.506238	8.837899			
13054	12.177161	3.697607	2.378057	1.218927	4.293966	2.339955	-10.028078	-73.448297	8.461131			
13055	11.931495	4.616016	5.573664	-1.877384	5.287263	2.964402	-9.709846	-73.343152	8.075388			
13056	10.955560	4.554192	4.835603	-1.395513	5.147145	1.836650	-9.268947	-73.089327	7.533808			
13057	9.146581	3.364392	3.128269	-0.246665	3.812963	-0.317153	-8.782184	-72.729854	6.997572			
13058	7.321526	1.062885	3.518698	-1.150148	1.451792	-1.832406	-8.377901	-72.386738	6.372852			
13059	6.040634	-0.275559	3.247616	-1.271064	0.050199	-3.067765	-7.824549	-72.137908	5.739012			
13060	5.530294	-0.356461	2.730910	-0.913298	-0.083117	-3.703022	-7.145096	-71.991960	4.941886			
13061	5.506298	0.569195	2.484384	-0.644517	0.807926	-3.833786	-6.347099	-71.942668	4.203303			
13062	6.304977	1.285445	2.208481	-0.110773	1.502713	-3.178534	-5.512741	-71.982316	3.467223			
13063	7.293980	1.647241	2.206127	0.197749	1.851377	-2.241972	-4.711047	-72.061060	2.903694			
13064	8.240049	2.240120	2.547334	0.161929	2.437071	-1.242987	-3.991056	-72.182983	2.386392			
13065	8.994758	2.875874	2.256312	0.656461	3.043419	-0.616286	-3.396300	-72.312405	2.037201			
13066	9.475034	3.496702	2.183689	0.856570	3.642005	-0.180778	-2.938321	-72.441129	1.702634			
13067	9.923219	3.780581	2.414414	0.748838	3.915523	0.321429	-2.601537	-72.562519	1.453405			
13068	9.942442	3.670378	2.449444	0.702870	3.788322	0.359734	-2.303374	-72.659561	1.070242			
13069	9.532019	3.184663	2.462761	0.548983	3.284025	-0.015727	-2.013621	-72.749641	0.624888			
13070	8.780874	2.402927	2.523065	0.249021	2.485640	-0.702076	-1.733244	-72.850552	0.014587			
13071	8.257158	1.471640	2.665538	-0.073851	1.546472	-1.149291	-1.492494	-72.975283	-0.571049			
13072	8.042858	0.814454	2.711766	-0.215752	0.884611	-1.334747	-1.337427	-73.127579	-1.160656			
13073	8.223426	0.319602	2.828476	-0.315720	0.391836	-1.125116	-1.283623	-73.302153	-1.606879			
13074	8.430420	0.016631	2.919155	-0.384838	0.094702	-0.899967	-1.297751	-73.497946	-2.025823			
13075	8.553495	-0.120860	2.928439	-0.398313	-0.038351	-0.779835	-1.343969	-73.714690	-2.327502			
13076	8.620151	-0.093391	2.807946	-0.299542	-0.013476	-0.751216	-1.381515	-73.962638	-2.663333			
13077	8.807660	-0.066037	2.522799	-0.012890	-0.005330	-0.650624	-1.343540	-74.225707	-2.970023			
13078	8.780756	0.135424	2.428105	0.042882	0.188338	-0.703447	-1.248465	-74.500204	-3.366364			
13079	8.998760	0.306719	2.287306	0.206606	0.341649	-0.531311	-1.102921	-74.783829	-3.803662			
13080	9.222487	0.365234	2.188038	0.320685	0.381750	-0.340284	-0.895632	-75.063667	-4.313986			
13081	9.322517	0.337278	2.117246	0.368625	0.337621	-0.259899	-0.647104	-75.327148	-4.888118			
13082	9.360989	0.177883	2.199647	0.241457	0.175429	-0.199728	-0.324675	-75.572736	-5.570954			
13083	9.401355	-0.060405	2.195217	0.191418	-0.075962	-0.160457	0.096789	-75.793385	-6.356547			
13084	9.271635	-0.328018	2.193244	0.093610	-0.355966	-0.286643	0.663157	-75.992789	-7.256863			
13085	9.106198	-0.562301	2.218636	-0.033657	-0.601147	-0.442590	1.318590	-76.165891	-8.222358			
13086	8.969363	-0.747590	2.136303	-0.044202	-0.813040	-0.598078	2.074799	-76.330379	-9.248818			
13087	9.050166	-0.820735	1.987085	0.076080	-0.932335	-0.557828	2.905406	-76.475748	-10.296972			
13088	9.087813	-0.737215	1.876419	0.170735	-0.893071	-0.548460	3.775743	-76.606221	-11.354896			
13089	9.077509	-0.649107	1.923622	0.106362	-0.827901	-0.548457	4.649232	-76.715079	-12.415286			
13090	9.359078	-0.602295	1.962268	0.112615	-0.820970	-0.267071	5.582997	-76.797868	-13.544152			
13091	9.499493	-0.486198	1.892904	0.205314	-0.756311	-0.145964	6.564184	-76.844409	-14.707026			
13092	9.594571	-0.571460	1.833879	0.253155	-0.891896	-0.071755	7.616680	-76.852625	-15.933613			
13093	9.624488	-0.587114	1.905914	0.175497	-0.940771	-0.030461	8.725086	-76.820388	-17.206127			
13094	9.634652	-0.596570	2.084248	-0.004596	-0.971422	0.014959	9.903749	-76.757785	-18.536244			
13095	9.501526	-0.558993	1.910407	0.135628	-0.997560	-0.157255	11.099798	-76.657207	-19.857557			
13096	9.300276	-0.394912	1.737000	0.284556	-0.895636	-0.390113	12.317925	-76.525573	-21.162554			
13097	8.987159	-0.236941	1.656960	0.322650	-0.775153	-0.709638	13.455045	-76.374057	-22.378816			
13098	8.836424	-0.013662	1.696112	0.293238	-0.583503	-0.838684	14.505561	-76.220806	-23.520666			
13099	8.925175	0.262872	1.869730	0.197233	-0.338353	-0.698402	15.432677	-76.069471	-24.559546			
13100	9.221603	0.506168	2.070215	0.118167	-0.140347	-0.349804	16.200853	-75.908172	-25.482681			
13101	9.289858	0.494713	1.911447	0.297908	-0.219083	-0.322537	16.745392	-75.723976	-26.228936			
13102	9.178700	0.421102	1.661965	0.518085	-0.349675	-0.496186	17.141949	-75.530578	-26.834888			
13103	8.993010	0.268321	1.725801	0.407992	-0.494950	-0.674137	17.361803	-75.354993	-27.286645			
13104	8.970354	-0.006816	1.800582	0.297609	-0.768641	-0.700609	17.443364	-75.221933	-27.619733			
13105	9.055088	-0.296898	1.831379	0.245311	-1.067438	-0.634610	17.378216	-75.130811	-27.821753			
13106	9.316721	-0.618733	1.761762	0.315858	-1.427966	-0.423914	17.225420	-75.085347	-27.939778			
13107	9.714488	-1.050464	1.652232	0.427062	-1.913295	-0.098701	17.010653	-75.078580	-27.981482			
13108	10.271625	-1.453186	1.562489	0.552822	-2.383845	0.388835	16.842804	-75.101135	-28.043443			
13109	10.865300	-1.590196	1.491161	0.717050	-2.596124	0.936871	16.740313	-75.136859	-28.144728			
13110	11.456239	-1.578844	1.431634	0.895641	-2.665692	1.495701	16.760980	-75.168178	-28.358479			
13111	11.890848	-1.327434	1.647344	0.828036	-2.437336	1.987389	16.844374	-75.164323	-28.677138			
13112	12.172303	-0.990805	1.858911	0.753870	-2.114826	2.334797	16.924695	-75.110578	-29.079374			
13113	12.256829	-0.831257	1.598308	1.055943	-2.035595	2.361742	16.914489	-75.014138	-29.442751			
13114	12.052559	-0.472279	2.232654	0.499983	-1.547537	2.345728	16.776613	-74.882468	-29.739549			
13115	11.872210	-0.211329	3.047589	-0.230794	-1.103356	2.394324	16.403765	-74.758921	-29.907410			
13116	11.613886	-0.377611	3.297874	-0.543417	-1.163864	2.197765	15.894838	-74.650574	-29.960390			
13117	11.156590	-0.329622	3.681485	-0.974050	-0.946698	1.861488	15.291430	-74.565939	-29.901537			
13118	10.505611	-0.136429	4.052915	-1.403371	-0.554654	1.346854	14.676820	-74.540114	-29.793097			
13119	10.076597	0.261058	4.338548	-1.654478	-0.004556	1.035883	14.075327	-74.626428	-29.615689			
13120	10.243502	0.552578	4.374610	-1.578101	0.310386	1.222933	13.527032	-74.823499	-29.380073			
13121	10.800539	1.216443	4.278667	-1.201375	0.904240	1.770795	12.983088	-75.111453	-29.001591			
13122	11.352476	2.264460	3.507240	-0.103925	1.695173	2.163219	12.462593	-75.447196	-28.471601			
13123	11.655063	3.811162	2.337976	1.437971	2.896127	2.244496	11.916214	-75.776036	-27.759822			
13124	11.163462	5.186921	1.779170	2.180596	4.186574	1.694247	11.399329	-76.059551	-27.030680			
13125	10.145701	5.869553	1.445291	2.414975	4.919427	0.648794	10.887170	-76.284915	-26.378571			
13126	8.939752	6.134921	1.134459	2.492639	5.258632	-0.594398	10.450219	-76.465356	-25.944812			
13127	8.229851	5.701533	1.449039	1.925006	5.018200	-1.242412	9.920791	-76.613758	-25.671049			
13128	7.925332	4.468545	2.041669	0.979994	4.040512	-1.466373	9.174153	-76.804128	-25.432031			
13129	7.925570	2.916147	2.746520	-0.104479	2.779882	-1.379239	8.126733	-77.057107	-25.039287			
13130	8.379090	1.625075	3.608475	-1.187391	1.806561	-0.801746	6.724872	-77.295010	-24.368097			
13131	8.437432	0.170114	4.101863	-2.071461	0.643245	-0.683662	5.020540	-77.459694	-23.391409			
13132	8.551599	-1.326407	3.961610	-2.390467	-0.741766	-0.630181	3.306669	-77.584246	-22.235388			
13133	8.849589	-2.335476	3.853061	-2.559036	-1.675627	-0.364995	1.649709	-77.647071	-20.946041			
13134	9.109962	-3.039187	3.776020	-2.657702	-2.320541	-0.115379	0.166516	-77.593916	-19.660229			
13135	9.336747	-3.017279	3.083941	-1.938036	-2.498975	-0.025530	-0.984245	-77.469327	-18.455399			
13136	9.906792	-2.048170	2.478849	-0.901934	-1.796724	0.407016	-1.804586	-77.328415	-17.379415			
13137	10.359943	-0.938493	2.281045	-0.215168	-0.825349	0.802615	-2.471489	-77.125607	-16.388112			
13138	10.287888	0.096486	2.255576	0.174663	0.163360	0.717278	-3.039632	-76.882915	-15.484104			
13139	10.073619	0.971571	2.432495	0.288936	1.072423	0.536468	-3.571412	-76.619314	-14.683992			
13140	9.752939	1.196514	2.457328	0.310804	1.322416	0.224461	-4.089704	-76.346668	-13.989108			
13141	9.204684	1.106995	2.642528	0.036247	1.334703	-0.265351	-4.650217	-76.043638	-13.331237			
13142	8.398736	0.629180	2.762654	-0.359232	0.970806	-1.009554	-5.226923	-75.733347	-12.727648			
13143	7.769677	0.009880	2.745756	-0.636671	0.421358	-1.607562	-5.823668	-75.451007	-12.124597			
13144	7.574417	-0.563868	2.719829	-0.795419	-0.110177	-1.785094	-6.410962	-75.211752	-11.507924			
13145	7.487216	-1.087817	2.825865	-1.038684	-0.559660	-1.823002	-6.984512	-75.005219	-10.870979			
13146	7.768347	-1.470719	2.846138	-1.071419	-0.919438	-1.529129	-7.501176	-74.849476	-10.233414			
13147	8.147335	-1.711670	2.910613	-1.079061	-1.135237	-1.133554	-7.972550	-74.732148	-9.591514			
13148	8.458180	-1.789797	2.989417	-1.071519	-1.189692	-0.806177	-8.354123	-74.644037	-8.999605			
13149	8.803309	-1.770188	3.068540	-1.028176	-1.154059	-0.450064	-8.662402	-74.574588	-8.428074			
13150	8.979192	-1.574857	3.220825	-1.049000	-0.925716	-0.245953	-8.879774	-74.522033	-7.899436			
13151	8.957970	-1.422824	3.216680	-0.993813	-0.779414	-0.272167	-9.018835	-74.482057	-7.419490			
13152	8.835174	-1.198415	3.197779	-0.936746	-0.567515	-0.404037	-9.075671	-74.454412	-7.009236			
13153	8.679654	-1.008881	3.104032	-0.832745	-0.410604	-0.586248	-9.060575	-74.434571	-6.671522			
13154	8.515595	-0.902283	2.907178	-0.662839	-0.362758	-0.801017	-8.949578	-74.439246	-6.451941			
13155	8.218386	-0.875203	2.792232	-0.629101	-0.367128	-1.119365	-8.752934	-74.464325	-6.347599			
13156	8.053043	-0.873146	2.684680	-0.578607	-0.400020	-1.308184	-8.454119	-74.526339	-6.381847			
13157	7.887056	-0.964896	2.892864	-0.849050	-0.446178	-1.411179	-8.066291	-74.599986	-6.569811			
13158	7.680278	-1.246808	2.835902	-0.931031	-0.746547	-1.617607	-7.503280	-74.664395	-6.980747			
13159	7.420307	-1.665306	2.321704	-0.631833	-1.295447	-1.993030	-6.715570	-74.742361	-7.549636			
13160	7.452725	-1.782442	2.096345	-0.454177	-1.495396	-2.023446	-5.784540	-74.871270	-8.211084			
13161	7.597904	-2.106782	2.005498	-0.425953	-1.868963	-1.906101	-4.852398	-75.023225	-8.899673			
13162	7.713503	-2.210618	2.182184	-0.608709	-1.964641	-1.755615	-3.930469	-75.214524	-9.591563			
13163	7.820626	-2.070354	2.694830	-1.057624	-1.745283	-1.533440	-3.089691	-75.419875	-10.212515			
13164	7.914611	-1.578297	3.393445	-1.610120	-1.142631	-1.283367	-2.311731	-75.628201	-10.757104			
13165	7.973439	-1.006027	2.931103	-1.064923	-0.716904	-1.355088	-1.571044	-75.879715	-11.102609			
13166	8.583604	0.075819	3.178818	-0.961526	0.339632	-0.716053	-1.001448	-76.170405	-11.202319			
13167	9.266924	0.719505	4.035410	-1.525894	1.098324	0.144384	-0.792016	-76.377816	-11.074535			
13168	9.632558	1.151275	4.233219	-1.576408	1.536189	0.540416	-0.768777	-76.487717	-10.821939			
13169	10.349600	1.590709	3.479235	-0.625807	1.786725	1.057714	-0.874716	-76.517775	-10.419982			
13170	10.858977	1.736039	2.536257	0.416354	1.732809	1.331272	-1.079618	-76.433959	-9.976989			
13171	10.617544	0.915868	1.600103	1.115946	0.771602	0.877991	-1.333169	-76.283262	-9.561002			
13172	10.603781	-0.067227	1.787108	0.774662	-0.147344	0.911890	-1.714836	-76.167646	-9.138140			
13173	10.552858	-1.601037	2.723327	-0.395338	-1.457938	1.098805	-2.417611	-76.072962	-8.589668			
13174	10.157039	-3.268239	3.741091	-1.763177	-2.854081	0.984898	-3.290921	-76.022480	-7.934809			
13175	9.945647	-4.427609	4.660098	-2.911557	-3.769036	1.029509	-4.050968	-76.069705	-7.214149			
13176	10.823462	-4.629655	5.022337	-3.084456	-3.904357	1.979132	-4.420569	-76.136849	-6.561928			
13177	12.272167	-4.580378	5.502275	-3.159581	-3.821723	3.501671	-4.341845	-76.094756	-6.077274			
13178	14.574471	-4.537989	4.946927	-1.991381	-3.996497	5.599690	-3.678872	-75.892980	-5.780847			
13179	16.157278	-3.645872	4.842027	-1.202707	-3.268039	7.088916	-2.684362	-75.404644	-5.572608			
13180	15.042755	-2.975332	3.294945	0.284969	-2.877631	5.602525	-1.978839	-74.933875	-5.107787			
13181	13.539185	-1.267186	0.456966	2.941157	-1.493396	3.387428	-2.024898	-74.793283	-4.203775			
13182	12.895037	1.731010	-1.203131	4.709929	1.375627	2.297218	-2.410920	-74.779877	-3.361696			
13183	12.951613	4.909592	2.145936	1.815037	4.912419	3.188355	-2.828819	-74.789855	-2.815190			
13184	13.968304	7.258747	8.003172	-3.293630	7.834389	5.667224	-3.274993	-74.616483	-2.457589			
13185	13.159941	7.817275	4.504631	-0.013762	8.068118	3.952843	-3.216417	-74.120441	-2.436460			
13186	11.152854	5.372705	2.900877	0.857689	5.490890	1.623228	-3.078527	-73.509698	-2.704393			
13187	8.532793	0.985780	4.226113	-1.472519	1.286377	-0.441632	-3.070670	-73.043770	-3.028820			
13188	7.305095	-0.113719	3.028331	-0.739786	0.085870	-1.939107	-2.898222	-72.691081	-3.431134			
13189	5.800636	-0.068881	2.651860	-0.779954	0.109577	-3.483074	-2.657309	-72.321754	-3.859243			
13190	5.079812	-0.196823	3.020584	-1.326094	0.028089	-4.050071	-2.314973	-72.007218	-4.243796			
13191	5.703630	-0.439789	2.795062	-0.923012	-0.267432	-3.518750	-1.856843	-71.827267	-4.584713			
13192	7.033553	-0.056808	2.681363	-0.351415	0.045273	-2.293498	-1.255841	-71.822803	-4.900769			
13193	8.344624	0.879274	2.295016	0.507652	0.875756	-1.172768	-0.612594	-71.929673	-5.139385			
13194	9.371366	1.931541	2.073515	1.104433	1.850014	-0.262279	-0.007440	-72.101870	-5.303453			
13195	10.186687	2.730669	1.953068	1.494176	2.592751	0.487042	0.562923	-72.276807	-5.461948			
13196	10.275453	3.309837	1.953551	1.519913	3.148500	0.586010	1.115389	-72.430325	-5.663550			
13197	9.876596	3.797207	2.053342	1.300689	3.634542	0.251123	1.625657	-72.557946	-5.924539			
13198	9.150856	3.948254	2.220514	0.904316	3.799462	-0.378506	2.100394	-72.657516	-6.285036			
13199	8.571227	3.618496	2.354840	0.562046	3.479252	-0.886121	2.533311	-72.730461	-6.730303			
13200	8.296798	3.036502	2.474844	0.315003	2.898650	-1.113226	2.918455	-72.784782	-7.222009			
13201	8.190934	2.303059	2.589914	0.115198	2.164245	-1.186803	3.235847	-72.828865	-7.714065			
13202	7.919419	1.310702	2.661222	-0.115340	1.179983	-1.439422	3.477870	-72.884805	-8.182145			
13203	7.981213	0.437431	2.530894	-0.054660	0.290378	-1.433593	3.655299	-72.962162	-8.608013			
13204	8.017974	-0.221051	2.332386	0.073332	-0.387224	-1.468740	3.766587	-73.047714	-8.984492			
13205	8.028699	-0.602406	2.355202	0.001726	-0.767234	-1.459174	3.842283	-73.158671	-9.321596			
13206	8.196235	-0.662918	2.406287	-0.028194	-0.831120	-1.285300	3.931749	-73.307699	-9.638120			
13207	8.343950	-0.535342	2.424233	-0.017730	-0.710141	-1.136265	4.060562	-73.480894	-9.958820			
13208	8.447107	-0.257896	2.296745	0.132357	-0.452943	-1.067837	4.205047	-73.661844	-10.285257			
13209	8.465528	0.028475	2.224436	0.207738	-0.178434	-1.064029	4.371645	-73.852524	-10.645823			
13210	8.435366	0.334535	2.228298	0.199124	0.123660	-1.084709	4.618973	-74.049735	-11.095174			
13211	8.635923	0.641387	2.088068	0.390833	0.394348	-0.922119	5.033441	-74.254004	-11.655844			
13212	8.814292	0.926659	2.028046	0.496343	0.645073	-0.757257	5.634491	-74.439996	-12.387835			
13213	8.791265	1.091384	2.156316	0.356454	0.800553	-0.737497	6.393380	-74.604152	-13.288777			
13214	8.898829	1.242342	2.177575	0.352817	0.916950	-0.619811	7.271719	-74.753020	-14.331435			
13215	8.902111	1.238103	2.110807	0.390701	0.871864	-0.629930	8.200409	-74.867227	-15.447540			
13216	9.007378	1.213119	2.114157	0.387227	0.805959	-0.524279	9.101687	-74.965147	-16.575369			
13217	8.911416	1.004083	2.042810	0.384203	0.565118	-0.640582	9.913093	-75.029372	-17.635138			
13218	8.870605	0.829068	2.036347	0.338207	0.365380	-0.687244	10.650210	-75.096308	-18.612890			
13219	8.875914	0.627962	2.051873	0.278280	0.142921	-0.686438	11.305101	-75.157051	-19.526427			
13220	9.017937	0.501440	2.141014	0.190588	-0.004687	-0.532484	11.904729	-75.217027	-20.401064			
13221	9.131440	0.325441	2.188517	0.127614	-0.201808	-0.420050	12.451416	-75.272975	-21.231351			
13222	9.285466	0.120735	2.209125	0.093775	-0.433616	-0.277604	12.987056	-75.318845	-22.059838			
13223	9.523797	-0.072706	2.069639	0.233415	-0.687672	-0.093431	13.581908	-75.355255	-22.929862			
13224	9.692462	-0.198936	2.053708	0.247268	-0.854592	0.056941	14.216831	-75.379044	-23.837592			
13225	9.656168	-0.297027	2.158364	0.103626	-0.958094	0.039194	14.933572	-75.377262	-24.817588			
13226	9.589295	-0.191287	2.174031	0.075538	-0.875924	-0.017560	15.739810	-75.356212	-25.858942			
13227	9.568215	0.064914	2.049399	0.223208	-0.677324	-0.053268	16.573104	-75.314559	-26.895708			
13228	9.601413	0.404700	2.112215	0.223988	-0.374665	0.016947	17.382751	-75.250917	-27.896490			
13229	9.688932	0.691332	2.228182	0.182781	-0.121905	0.150734	18.109084	-75.162513	-28.828575			
13230	9.689868	0.901150	2.120025	0.327802	0.029057	0.141795	18.715038	-75.049881	-29.673536			
13231	9.589051	0.917457	2.070398	0.362490	0.016631	0.033449	19.174005	-74.921444	-30.408836			
13232	9.564214	0.661032	1.987729	0.392173	-0.273255	-0.033440	19.509843	-74.795046	-31.051617			
13233	9.411919	0.266365	1.854403	0.411616	-0.684000	-0.249390	19.679229	-74.673110	-31.540697			
13234	9.188549	-0.134573	1.847509	0.289459	-1.059555	-0.503854	19.709467	-74.574094	-31.893054			
13235	9.080334	-0.636079	1.778364	0.224565	-1.551915	-0.671530	19.619151	-74.510231	-32.108225			
13236	9.166855	-1.098593	1.750019	0.165281	-2.018493	-0.636682	19.478836	-74.496765	-32.227381			
13237	9.444544	-1.522237	1.739510	0.134390	-2.465056	-0.408011	19.315753	-74.523025	-32.262196			
13238	9.771051	-1.611325	1.503042	0.402128	-2.638594	-0.158412	19.194620	-74.569326	-32.258762			
13239	10.032854	-1.372280	1.426552	0.580860	-2.452751	0.098063	19.131797	-74.625559	-32.260149			
13240	10.376821	-0.946199	1.157946	1.002072	-2.139552	0.401651	19.145006	-74.689414	-32.324263			
13241	10.672869	-0.621273	0.974410	1.308322	-1.902347	0.671346	19.154823	-74.730777	-32.426600			
13242	10.899898	-0.333325	0.877285	1.510958	-1.675193	0.892416	19.061994	-74.755143	-32.526939			
13243	11.157728	-0.341760	1.015546	1.429978	-1.687128	1.176024	18.823265	-74.769771	-32.589277			
13244	11.395315	-0.359617	1.870910	0.669418	-1.539219	1.618214	18.343416	-74.776605	-32.545060			
13245	11.619653	-0.332567	2.506910	0.133151	-1.373936	1.998578	17.546812	-74.777224	-32.308492			
13246	11.801104	-0.595239	3.009106	-0.355191	-1.490378	2.283901	16.553912	-74.777940	-31.919083			
13247	11.626661	-0.771405	3.570053	-0.951314	-1.441476	2.251161	15.488241	-74.779225	-31.440586			
13248	10.995119	-1.004092	3.979929	-1.527060	-1.413492	1.737659	14.523418	-74.801755	-30.971482			
13249	10.535600	-0.808919	4.142223	-1.720352	-1.067161	1.354790	13.780272	-74.904999	-30.533410			
13250	10.498720	-0.265631	3.710955	-1.180992	-0.615782	1.245828	13.335970	-75.107086	-30.165535			
13251	10.669459	0.753557	3.564741	-0.740934	0.333131	1.432414	13.120044	-75.419359	-29.814384			
13252	10.905045	2.272112	2.826244	0.383744	1.591865	1.562210	13.039268	-75.786338	-29.395741			
13253	10.725115	3.983987	2.088667	1.449723	3.098797	1.302967	12.948081	-76.134281	-28.834508			
13254	10.152085	5.466098	1.800358	1.928336	4.559662	0.754928	12.821680	-76.450055	-28.218371			
13255	9.371651	6.657750	1.957602	1.860296	5.879084	0.084822	12.520154	-76.745313	-27.565875			
13256	9.144488	6.908912	2.147321	1.641412	6.237961	-0.098833	11.915718	-77.033342	-26.873979			
13257	9.148747	6.157663	2.375961	1.199532	5.617788	-0.103781	11.001371	-77.317780	-26.110239			
13258	9.073280	4.589206	2.541985	0.601299	4.208183	-0.232696	9.859442	-77.609217	-25.253412			
13259	9.150804	3.007783	3.048628	-0.292171	2.868925	-0.129629	8.497777	-77.874696	-24.258246			
13260	9.230898	1.477741	3.738416	-1.349893	1.644113	0.028202	6.885172	-78.107186	-23.076527			
13261	9.687917	-0.050792	4.276364	-2.200099	0.369674	0.539503	5.039392	-78.277825	-21.627966			
13262	10.015136	-1.356037	4.854020	-3.047205	-0.656567	0.956996	3.076956	-78.312493	-19.984770			
13263	10.167418	-2.497054	4.035550	-2.558315	-1.918347	0.942400	1.388670	-78.235856	-18.361944			
13264	10.515007	-2.455168	2.865256	-1.341159	-2.189775	1.059698	0.125627	-78.111494	-16.796758			
13265	10.888929	-1.650939	2.495550	-0.633440	-1.517583	1.359486	-0.903983	-77.907304	-15.291841			
13266	11.040656	-0.884799	2.094162	0.054471	-0.875875	1.425367	-1.838210	-77.626327	-13.837609			
13267	10.491195	0.220348	1.898590	0.492167	0.188513	0.838141	-2.681257	-77.278086	-12.462542			
13268	9.518243	1.068234	1.843309	0.616455	1.063126	-0.136670	-3.519409	-76.937310	-11.138577			
13269	8.738489	1.627385	1.714777	0.752446	1.632232	-0.940288	-4.377413	-76.619920	-9.843730			
13270	8.068585	1.641941	2.007467	0.366270	1.770059	-1.532560	-5.310163	-76.311083	-8.560956			
13271	7.950119	1.281023	2.402740	-0.082937	1.543541	-1.552603	-6.274711	-76.039617	-7.343862			
13272	7.848848	0.679482	2.602092	-0.399559	1.036748	-1.590625	-7.315222	-75.796431	-6.118395			
13273	7.604281	-0.002733	2.572285	-0.552730	0.404479	-1.814410	-8.433870	-75.573795	-4.832792			
13274	7.734341	-0.527171	2.565883	-0.600356	-0.075712	-1.669264	-9.562936	-75.377651	-3.515400			
13275	8.108377	-1.183717	2.682375	-0.729040	-0.658929	-1.246696	-10.647773	-75.194118	-2.217804			
13276	8.423244	-1.622142	2.826823	-0.846822	-1.022764	-0.879044	-11.605978	-75.020516	-0.981509			
13277	8.720837	-1.902924	2.921464	-0.885726	-1.247181	-0.546138	-12.408330	-74.878830	0.167282			
13278	9.234636	-1.954912	2.910489	-0.723011	-1.274000	-0.044105	-13.062467	-74.773599	1.219688			
13279	9.544418	-1.791608	2.910429	-0.584704	-1.090871	0.249341	-13.563479	-74.691957	2.143300			
13280	9.593248	-1.610272	2.908796	-0.517501	-0.897359	0.287381	-13.904199	-74.641428	2.914491			
13281	9.539008	-1.342045	2.687648	-0.260425	-0.667485	0.162473	-14.104841	-74.605721	3.548075			
13282	9.527493	-1.109760	2.608053	-0.138254	-0.449019	0.116355	-14.180434	-74.576831	4.036000			
13283	9.331273	-0.963715	2.625862	-0.175647	-0.305354	-0.077572	-14.158125	-74.554348	4.391745			
13284	9.198907	-0.974951	2.697358	-0.274782	-0.311039	-0.185959	-14.039481	-74.531065	4.600270			
13285	9.030123	-1.033258	2.853440	-0.469240	-0.354946	-0.304445	-13.822277	-74.488368	4.659120			
13286	8.766585	-1.305949	2.574700	-0.304011	-0.688254	-0.613696	-13.474159	-74.431409	4.566741			
13287	8.492161	-1.528756	1.802042	0.337694	-1.052732	-1.067464	-12.974508	-74.415990	4.423716			
13288	8.554456	-1.559050	1.983199	0.184087	-1.072396	-0.960655	-12.507120	-74.441996	4.292774			
13289	8.412504	-1.708413	2.516375	-0.378947	-1.162740	-0.951228	-12.153004	-74.452324	4.161950			
13290	8.020586	-2.042456	2.381305	-0.394207	-1.535566	-1.347544	-11.814656	-74.455750	4.023652			
13291	7.767256	-2.068838	1.975557	-0.073654	-1.637688	-1.699383	-11.416907	-74.500935	3.915060			
13292	7.652755	-2.165929	1.907303	-0.049350	-1.760296	-1.825659	-11.048083	-74.565790	3.853573			
13293	7.524889	-2.291455	2.262286	-0.438528	-1.855214	-1.852881	-10.787937	-74.652739	3.871822			
13294	7.500944	-2.364316	2.644730	-0.825102	-1.891663	-1.775925	-10.672486	-74.770269	3.997072			
13295	7.614584	-2.299686	2.989684	-1.128513	-1.791977	-1.583233	-10.671454	-74.901902	4.244470			
13296	7.772538	-2.015769	3.197385	-1.269847	-1.490003	-1.394475	-10.724414	-75.059805	4.633025			
13297	8.217083	-1.283508	3.698121	-1.582329	-0.705313	-0.877215	-10.885404	-75.233637	5.172098			
13298	8.726755	-0.905914	3.687349	-1.429826	-0.324632	-0.409303	-11.087554	-75.376475	5.782948			
13299	9.341242	-0.194092	3.833388	-1.374631	0.407976	0.184074	-11.210704	-75.459941	6.337570			
13300	9.779653	-0.181829	3.320542	-0.779234	0.379720	0.480479	-11.161259	-75.453269	6.707543			
13301	10.214443	-0.052393	2.799281	-0.154828	0.469833	0.766955	-10.926923	-75.399540	6.934290			
13302	10.583435	-0.123173	2.652892	0.085026	0.388635	1.091615	-10.641875	-75.319549	7.039347			
13303	10.661225	-0.525250	2.561208	0.187480	-0.028330	1.162803	-10.294835	-75.228075	7.032327			
13304	10.559085	-1.072112	2.576853	0.139048	-0.592524	1.092054	-9.845953	-75.143335	6.895328			
13305	10.187804	-1.895084	3.188343	-0.560816	-1.415491	0.921835	-9.259192	-75.072250	6.622652			
13306	10.083181	-2.393647	4.033116	-1.405131	-1.911155	1.051889	-8.553618	-75.089066	6.335809			
13307	11.472113	-1.991295	4.786970	-1.752460	-1.492326	2.564356	-7.694273	-75.131288	6.039256			
13308	13.584884	-1.871858	5.191037	-1.560072	-1.378570	4.701597	-6.549336	-74.933628	5.552332			
13309	14.724082	-2.036093	5.059149	-1.017824	-1.620931	5.771669	-4.908803	-74.438495	4.921846			
13310	14.614328	-0.958189	5.122133	-0.936905	-0.672474	5.659832	-3.216040	-73.865929	4.481245			
13311	13.014506	-0.299463	2.693719	1.085251	-0.090255	3.436309	-2.097149	-73.383675	4.425175			
13312	11.427928	0.724322	-1.145036	4.337588	1.030012	0.796628	-1.556075	-73.191768	4.546086			
13313	11.011190	3.380069	-0.032482	3.034760	3.625484	0.690564	-1.313774	-73.073201	4.376479			
13314	11.742117	4.614191	5.236766	-1.833297	4.605703	2.915952	-1.197917	-73.048584	4.044498			
13315	13.283767	5.991208	6.722180	-2.829133	5.936445	4.826130	-0.949692	-72.799797	3.805368			
13316	13.001708	6.137994	2.198361	1.482305	6.277031	3.223909	-0.663886	-72.304754	3.590978			
13317	11.808717	3.176410	2.876785	0.746763	3.261334	2.295818	-0.709431	-71.781262	3.285223			
13318	9.587451	-0.695352	3.022866	0.188478	-0.648889	0.241342	-0.700346	-71.387832	2.912278			
13319	7.901577	-1.157297	2.106676	0.592521	-1.108517	-1.649829	-0.507370	-71.028916	2.454769			
13320	5.973060	-1.503718	2.059157	0.063102	-1.488510	-3.491375	-0.265127	-70.662714	1.985668			
13321	4.686246	-1.756141	2.798227	-1.021860	-1.785719	-4.460870	0.163594	-70.365508	1.511677			
13322	4.926994	-1.515175	2.719437	-0.854338	-1.557688	-4.262010	0.821597	-70.266840	1.009257			
13323	6.041792	-0.660861	2.348595	-0.150865	-0.713014	-3.337763	1.633487	-70.334063	0.514814			
13324	7.312858	0.618921	1.950303	0.592592	0.552941	-2.262349	2.430958	-70.476632	0.153916			
13325	8.291134	1.992669	1.806817	0.966578	1.904170	-1.361776	3.102642	-70.629641	-0.048763			
13326	9.091401	3.168780	1.984825	0.963005	3.044987	-0.515661	3.630135	-70.799854	-0.177230			
13327	9.851207	3.768657	2.257403	0.874774	3.605263	0.315567	4.062463	-70.966532	-0.302548			
13328	10.310240	4.048463	2.415851	0.814833	3.853472	0.818121	4.416704	-71.112289	-0.475886			
13329	10.136225	3.834548	2.442511	0.717813	3.621922	0.664862	4.673002	-71.218314	-0.695199			
13330	9.702691	3.122782	2.610007	0.450901	2.889004	0.294559	4.858654	-71.299035	-0.968625			
13331	9.026556	2.099231	2.745043	0.164077	1.852372	-0.327829	5.016001	-71.366969	-1.300125			
13332	8.611669	1.071559	2.634609	0.189512	0.829307	-0.783481	5.154830	-71.454756	-1.645188			
13333	8.295903	0.336925	2.647481	0.105355	0.091827	-1.099185	5.268914	-71.559016	-1.968648			
13334	8.091929	-0.288775	2.662823	0.039896	-0.535154	-1.305907	5.327142	-71.699590	-2.249304			
13335	7.983309	-0.514862	2.562752	0.086055	-0.755182	-1.446790	5.350761	-71.879713	-2.451745			
13336	8.081449	-0.453463	2.635982	0.012328	-0.697292	-1.328739	5.300689	-72.102766	-2.557747			
13337	8.255574	-0.403433	2.395424	0.256274	-0.633176	-1.234307	5.208413	-72.347314	-2.581795			
13338	8.402331	-0.006073	2.351928	0.286236	-0.230711	-1.095149	5.119082	-72.615724	-2.556126			
13339	8.481270	0.180141	2.375834	0.238074	-0.040307	-1.006410	4.988045	-72.891726	-2.491005			
13340	8.692026	0.363199	2.312245	0.309744	0.149363	-0.817617	4.902748	-73.180503	-2.458236			
13341	8.932693	0.392890	2.317134	0.328096	0.179355	-0.583577	4.906817	-73.467951	-2.514632			
13342	9.210830	0.391813	2.302678	0.375328	0.174516	-0.319334	5.016203	-73.739778	-2.672796			
13343	9.445953	0.363386	2.199608	0.497392	0.140812	-0.120991	5.261444	-73.988940	-2.951603			
13344	9.604817	0.388057	2.243780	0.456400	0.149406	0.046667	5.596530	-74.217423	-3.333608			
13345	9.552240	0.312892	2.189214	0.460405	0.061917	-0.018815	5.996916	-74.411057	-3.774447			
13346	9.438862	0.281549	2.132481	0.453333	0.017641	-0.142478	6.427474	-74.583240	-4.248425			
13347	9.412551	0.146149	1.974627	0.574582	-0.129160	-0.212181	6.892248	-74.734175	-4.750654			
13348	9.242375	0.041617	1.953085	0.527831	-0.248457	-0.384148	7.392730	-74.876584	-5.277710			
13349	9.186228	-0.143106	2.022578	0.426887	-0.454535	-0.426039	7.916144	-75.016867	-5.834415			
13350	9.177469	-0.327246	1.933312	0.491099	-0.655351	-0.463892	8.468395	-75.155180	-6.415764			
13351	9.233041	-0.490086	1.934575	0.484574	-0.841786	-0.416501	9.078074	-75.280194	-7.036286			
13352	9.215219	-0.628342	1.939221	0.457098	-1.003767	-0.439370	9.749024	-75.388419	-7.697808			
13353	9.134914	-0.544721	1.988224	0.366394	-0.946832	-0.503252	10.525866	-75.486090	-8.453710			
13354	8.972395	-0.388974	1.821965	0.463498	-0.810595	-0.696619	11.463186	-75.560147	-9.347472			
13355	9.013431	-0.133288	1.708130	0.560154	-0.590613	-0.674052	12.571710	-75.607408	-10.399044			
13356	8.961609	0.141001	1.705566	0.528036	-0.359224	-0.711522	13.817149	-75.622714	-11.602685			
13357	8.931559	0.367511	1.694158	0.515412	-0.181491	-0.730884	15.162280	-75.595291	-12.915438			
13358	8.936660	0.564263	1.666941	0.531731	-0.038652	-0.720026	16.549585	-75.531398	-14.283117			
13359	8.897708	0.789553	1.639327	0.541166	0.132959	-0.747966	17.933758	-75.433287	-15.664854			
13360	8.824992	0.962589	1.583187	0.574585	0.254841	-0.817235	19.326699	-75.312484	-17.073197			
13361	8.860976	1.095405	1.298522	0.860360	0.338981	-0.837860	20.668413	-75.162409	-18.462804			
13362	8.756192	1.221979	1.241005	0.895986	0.417230	-0.939861	21.916406	-74.982013	-19.818843			
13363	8.839598	1.060560	1.311952	0.864514	0.189389	-0.857187	22.969316	-74.785100	-21.071538			
13364	8.970103	0.797975	1.206944	1.019615	-0.130654	-0.784990	23.765717	-74.577361	-22.130614			
13365	9.161010	0.449905	1.225915	1.071197	-0.540016	-0.637169	24.288406	-74.379956	-22.955174			
13366	9.226795	-0.029111	1.267184	1.067918	-1.057888	-0.621350	24.559591	-74.207815	-23.554929			
13367	9.417505	-0.485166	1.434212	0.966693	-1.559072	-0.452318	24.617992	-74.084307	-23.944816			
13368	9.789536	-0.910350	1.768318	0.740137	-2.041331	-0.062002	24.491917	-74.016549	-24.144244			
13369	10.280307	-1.280029	1.808552	0.820387	-2.463803	0.378028	24.254831	-73.995913	-24.189895			
13370	10.739426	-1.448633	1.963594	0.778186	-2.677677	0.841606	23.984461	-74.009454	-24.150621			
13371	11.134945	-1.500067	2.008961	0.824172	-2.762968	1.230856	23.767471	-74.048570	-24.115957			
13372	11.452707	-1.162019	1.923311	0.982183	-2.452526	1.555441	23.647420	-74.100332	-24.127226			
13373	11.589953	-0.846228	1.785780	1.145460	-2.148962	1.689573	23.651771	-74.135234	-24.238354			
13374	11.689777	-0.448358	1.989647	0.973388	-1.768200	1.880755	23.729995	-74.144503	-24.449706			
13375	11.959389	-0.174264	1.938359	1.091832	-1.532596	2.157009	23.773146	-74.129533	-24.690068			
13376	12.063213	-0.113440	2.118759	0.945291	-1.489402	2.308006	23.685619	-74.082120	-24.859221			
13377	11.882220	0.093208	2.823149	0.234511	-1.256502	2.333596	23.379840	-74.017344	-24.876653			
13378	11.797961	0.244055	3.406521	-0.332304	-1.074567	2.418039	22.927118	-73.979772	-24.774707			
13379	11.566388	0.378390	3.598245	-0.557868	-0.885612	2.261097	22.422720	-73.962672	-24.580184			
13380	10.937165	0.822674	3.567627	-0.653651	-0.343775	1.697343	21.891613	-73.971958	-24.298989			
13381	10.414638	1.228374	3.306376	-0.507090	0.141478	1.170412	21.423612	-74.047470	-23.990502			
13382	10.346815	2.068691	3.522760	-0.694013	1.020986	1.242706	21.019299	-74.193162	-23.687008			
13383	10.532774	2.578533	4.113979	-1.210108	1.562988	1.615589	20.572940	-74.407368	-23.361472			
13384	10.370371	2.835302	4.534881	-1.673416	1.896364	1.578178	20.024261	-74.686304	-22.925918			
13385	9.839203	3.543821	4.219669	-1.499152	2.696417	1.034227	19.421221	-75.061581	-22.335227			
13386	9.747594	5.144462	3.587537	-0.877295	4.328066	0.904069	18.825262	-75.520309	-21.623313			
13387	9.833290	6.056678	2.650956	0.020408	5.248583	0.810658	18.246186	-75.981736	-20.841566			
13388	9.222725	6.401005	1.851678	0.594035	5.667939	0.035211	17.684142	-76.395890	-20.104556			
13389	8.844191	6.600334	1.633192	0.665888	5.937622	-0.391851	17.014584	-76.804037	-19.426875			
13390	9.324791	6.108408	1.714683	0.617500	5.464747	0.034103	16.115030	-77.245635	-18.776380			
13391	10.252144	4.944185	2.224724	0.218799	4.321477	0.947295	14.900710	-77.688044	-18.067751			
13392	10.667306	3.407069	3.085145	-0.650035	2.884982	1.419910	13.305425	-78.034521	-17.205697			
13393	10.556964	1.589321	3.817383	-1.519704	1.222687	1.356130	11.448056	-78.190591	-16.215910			
13394	10.320067	-0.151955	4.000916	-1.885095	-0.384541	1.088321	9.615609	-78.188886	-15.201883			
13395	10.008379	-1.694160	4.086003	-2.167692	-1.805436	0.759641	7.898616	-78.051837	-14.189527			
13396	9.782371	-2.969746	3.425714	-1.690428	-3.060156	0.386686	6.416199	-77.837661	-13.169926			
13397	9.660676	-3.286385	2.609340	-0.924193	-3.414977	0.108056	5.263126	-77.582045	-12.167509			
13398	9.565467	-2.919095	2.282047	-0.527931	-3.056024	-0.034720	4.346592	-77.284628	-11.154908			
13399	9.468438	-1.750316	2.520317	-0.573310	-1.844909	-0.048768	3.534341	-76.954766	-10.128340			
13400	8.937977	-0.657792	2.700907	-0.673276	-0.701843	-0.503081	2.749659	-76.611031	-9.122629			
13401	8.565408	0.318755	2.666712	-0.558898	0.295214	-0.858392	2.014355	-76.300979	-8.158655			
13402	8.154685	0.881581	2.640310	-0.521930	0.883953	-1.257377	1.244500	-76.008192	-7.183055			
13403	8.174529	1.027510	2.722662	-0.539086	1.057923	-1.217248	0.433892	-75.734962	-6.230246			
13404	8.105705	0.910553	2.607273	-0.415324	0.958482	-1.313392	-0.496623	-75.466632	-5.236677			
13405	8.017955	0.549942	2.582855	-0.407614	0.630882	-1.404550	-1.503742	-75.194419	-4.217588			
13406	7.914402	0.129480	2.790855	-0.634659	0.269732	-1.448023	-2.547801	-74.938068	-3.175475			
13407	7.837065	-0.253080	2.859879	-0.721583	-0.066238	-1.497805	-3.590655	-74.715807	-2.110746			
13408	8.153803	-0.756366	2.854048	-0.649537	-0.532891	-1.181574	-4.594126	-74.530768	-1.051787			
13409	8.419401	-1.155499	3.007663	-0.735440	-0.879933	-0.871088	-5.468579	-74.370307	-0.084292			
13410	8.827183	-1.273700	3.225690	-0.819249	-0.942662	-0.411272	-6.258541	-74.227628	0.817194			
13411	8.883860	-1.330419	3.369924	-0.919484	-0.955029	-0.310492	-6.894141	-74.059641	1.571598			
13412	8.768710	-1.268732	2.893254	-0.460687	-0.917536	-0.548958	-7.282263	-73.908337	2.183689			
13413	8.601085	-1.109249	2.480063	-0.071560	-0.785177	-0.827248	-7.478410	-73.769553	2.666302			
13414	8.446021	-1.114090	2.440058	-0.053310	-0.787851	-0.986207	-7.603904	-73.650941	3.087167			
13415	8.350045	-1.182166	2.702056	-0.315159	-0.829998	-1.001694	-7.749545	-73.545963	3.472686			
13416	8.232690	-1.381069	2.612851	-0.259881	-1.031265	-1.130495	-7.894953	-73.474111	3.842235			
13417	8.164586	-1.399022	2.506407	-0.167073	-1.052178	-1.224044	-8.053165	-73.446668	4.238403			
13418	8.390368	-1.462038	2.625741	-0.217003	-1.094913	-0.970492	-8.257437	-73.470827	4.662331			
13419	8.337676	-1.759933	2.333377	0.028446	-1.403453	-1.089824	-8.517682	-73.535471	5.134661			
13420	8.385045	-1.911331	2.296885	0.059127	-1.544130	-1.046275	-8.842207	-73.657511	5.675240			
13421	8.224255	-2.081448	2.401794	-0.110442	-1.698171	-1.161481	-9.273857	-73.802326	6.289248			
13422	7.975806	-2.359999	2.559656	-0.361997	-1.958214	-1.341016	-9.802934	-73.956139	6.978441			
13423	7.699960	-2.800418	2.079891	-0.011786	-2.414505	-1.711598	-10.360811	-74.099032	7.730291			
13424	7.368491	-3.116177	2.011329	-0.059916	-2.726422	-2.027210	-10.957680	-74.235823	8.556912			
13425	6.991674	-3.399487	2.042562	-0.212765	-3.003300	-2.359705	-11.669517	-74.412808	9.483139			
13426	6.682798	-3.777739	1.731878	-0.023801	-3.387405	-2.709495	-12.507861	-74.678634	10.589194			
13427	6.732832	-3.668976	2.047132	-0.338223	-3.242472	-2.577011	-13.503134	-75.041619	11.885674			
13428	7.087974	-3.511590	2.252746	-0.481796	-3.038440	-2.185036	-14.590706	-75.462477	13.315414			
13429	7.757830	-3.001605	2.779228	-0.868876	-2.456490	-1.438434	-15.695943	-75.894622	14.812422			
13430	8.746747	-2.146430	3.569964	-1.455836	-1.509294	-0.354378	-16.745708	-76.291673	16.261188			
13431	9.749587	-1.224405	4.053348	-1.757324	-0.507890	0.658074	-17.518779	-76.581050	17.463199			
13432	10.506609	-0.339864	4.105174	-1.694402	0.420146	1.336713	-17.736268	-76.756881	18.220943			
13433	11.200807	0.560880	3.942306	-1.429770	1.339986	1.912263	-17.305619	-76.827054	18.445549			
13434	11.711151	0.844210	3.529798	-0.930574	1.615181	2.305404	-16.189949	-76.755961	18.083646			
13435	11.987210	0.880776	3.661395	-0.979238	1.601729	2.611072	-14.706539	-76.607412	17.439714			
13436	13.066687	1.350394	4.810773	-1.850486	2.021298	3.905722	-13.376491	-76.422142	16.856133			
13437	13.206309	0.591529	5.867676	-2.738154	1.158368	4.341682	-12.588861	-76.128847	16.447695			
13438	12.340314	-0.485220	4.872370	-1.841266	0.058126	3.335128	-12.393062	-76.017477	16.642066			
13439	14.187576	0.697605	2.030023	1.236370	1.553656	4.398303	-12.718705	-76.139881	17.503534			
13440	16.516890	2.882181	0.436860	3.081493	4.041834	6.170845	-13.087309	-76.136381	18.076739			
13441	16.096401	3.403621	1.080364	2.339398	4.501614	5.875147	-12.999245	-75.894541	17.881836			
13442	14.006059	2.852842	5.106288	-1.888073	3.508517	4.833349	-12.634197	-75.446479	17.163231			
13443	11.511044	2.909592	5.390103	-2.633519	3.379826	2.502466	-12.086820	-74.953006	16.348850			
13444	11.511717	2.580436	2.313053	0.478609	3.263367	1.747975	-11.887172	-74.561610	15.701905			
13445	11.151467	0.473655	2.947621	0.034916	1.121396	1.676799	-11.951490	-74.087245	15.047262			
13446	10.548234	-0.773856	4.582978	-1.529292	-0.203192	1.610407	-11.977757	-73.657921	14.451588			
13447	10.544744	-1.752547	3.496415	-0.364396	-1.116702	1.372473	-11.826809	-73.285829	13.804974			
13448	9.801221	-3.196518	3.242502	-0.212803	-2.595554	0.676026	-11.499615	-72.942540	13.047107			
13449	8.602696	-4.426469	3.384895	-0.606014	-3.914187	-0.359156	-10.832745	-72.649340	12.178258			
13450	7.801906	-4.453851	2.873849	-0.313579	-4.012449	-1.282317	-9.868933	-72.470187	11.257333			
13451	7.255748	-3.630144	2.206932	0.169209	-3.252823	-2.061262	-8.686602	-72.385662	10.346292			
13452	7.008940	-1.924106	2.017332	0.242795	-1.605828	-2.446605	-7.363147	-72.378891	9.551646			
13453	7.711062	0.217083	1.968505	0.412765	0.518549	-1.879017	-6.051979	-72.449785	8.913703			
13454	8.552876	1.628812	1.793936	0.733249	1.924735	-1.165122	-4.861085	-72.570127	8.437027			
13455	9.318377	2.926043	1.487712	1.124379	3.225044	-0.542216	-3.807030	-72.712571	8.069272			
13456	9.368351	4.196718	1.499232	0.976260	4.452944	-0.493678	-2.864266	-72.840527	7.697726			
13457	8.831376	4.937418	1.708099	0.508186	5.116094	-0.932600	-2.056312	-72.936108	7.273282			
13458	8.019969	4.790091	1.851461	0.117320	4.894182	-1.644097	-1.357886	-73.027722	6.757316			
13459	7.258992	4.118140	1.936786	-0.135369	4.165044	-2.326887	-0.790081	-73.121751	6.180988			
13460	6.752864	2.902688	2.154554	-0.379815	2.900511	-2.733731	-0.356766	-73.235483	5.601034			
13461	6.718179	1.654746	2.133677	-0.261235	1.645316	-2.766457	-0.056499	-73.367656	5.055104			
13462	7.076605	0.681124	2.179452	-0.129603	0.670916	-2.408275	0.150150	-73.519904	4.566943			
13463	7.696428	-0.198330	2.234155	0.045901	-0.203439	-1.798810	0.262763	-73.687876	4.144815			
13464	8.420208	-0.613869	2.313882	0.177397	-0.613569	-1.082122	0.264892	-73.859130	3.838913			
13465	8.945307	-0.945925	2.117017	0.505733	-0.923246	-0.631901	0.187390	-74.018910	3.631768			
13466	9.337937	-0.968275	2.084333	0.616376	-0.936898	-0.261703	0.099830	-74.173777	3.497067			
13467	9.549050	-0.820538	2.271238	0.456815	-0.795513	-0.005824	-0.041255	-74.314930	3.431821			
13468	9.702136	-0.624022	2.063734	0.660531	-0.582289	0.087032	-0.146834	-74.439203	3.388246			
13469	9.894165	-0.419496	2.035479	0.707044	-0.372934	0.265737	-0.186036	-74.536818	3.297636			
13470	9.908996	-0.475027	2.064393	0.671049	-0.433114	0.288682	-0.096907	-74.600627	3.090406			
13471	9.627006	-0.531862	1.977006	0.674204	-0.498435	-0.006176	0.120003	-74.636596	2.761295			
13472	9.296142	-0.674387	1.977425	0.586536	-0.658930	-0.325590	0.458771	-74.673286	2.317306			
13473	8.893557	-0.744215	1.757279	0.688593	-0.741303	-0.773134	0.928025	-74.717186	1.763574			
13474	8.710577	-0.835761	1.829182	0.566110	-0.859860	-0.932447	1.481467	-74.781223	1.139198			
13475	8.615645	-0.838754	1.966299	0.398959	-0.893196	-0.989867	2.052829	-74.841573	0.526806			
13476	8.592471	-0.728803	1.957825	0.386214	-0.806457	-1.015233	2.627829	-74.904335	-0.057566			
13477	8.689799	-0.574296	1.973711	0.379533	-0.675921	-0.916790	3.194034	-74.969029	-0.614437			
13478	8.888857	-0.455360	1.937413	0.449991	-0.578360	-0.733279	3.728901	-75.039290	-1.145193			
13479	9.100055	-0.347511	1.979897	0.447908	-0.495143	-0.517208	4.234814	-75.099840	-1.658097			
13480	9.263147	-0.258989	1.803030	0.647210	-0.420754	-0.403759	4.726143	-75.145749	-2.166981			
13481	9.318732	-0.247367	1.793421	0.663387	-0.431212	-0.352759	5.262360	-75.170483	-2.737985			
13482	9.346457	-0.317628	1.764979	0.696807	-0.524609	-0.335795	5.840424	-75.173171	-3.367313			
13483	9.355687	-0.316463	1.797210	0.667649	-0.551658	-0.320119	6.472049	-75.148682	-4.060103			
13484	9.323301	-0.161152	1.814439	0.639564	-0.425565	-0.344220	7.138347	-75.105331	-4.796675			
13485	9.318528	-0.014349	1.783546	0.669053	-0.307808	-0.353631	7.811070	-75.036768	-5.563672			
13486	9.172547	0.124053	1.874989	0.547074	-0.200416	-0.467793	8.467588	-74.957707	-6.347315			
13487	9.044467	0.323831	1.919815	0.473958	-0.028870	-0.573240	9.099989	-74.877702	-7.134674			
13488	8.864803	0.460710	2.039228	0.316713	0.080637	-0.710569	9.705328	-74.810450	-7.929806			
13489	8.799481	0.358911	1.833094	0.506673	-0.038235	-0.831502	10.279649	-74.768477	-8.716832			
13490	8.822864	0.139413	1.726116	0.620274	-0.280958	-0.847304	10.843782	-74.759924	-9.503773			
13491	8.941134	-0.344970	1.581248	0.792013	-0.790768	-0.795450	11.376007	-74.781441	-10.271166			
13492	9.183129	-0.908558	1.185822	1.230331	-1.379729	-0.694350	11.902859	-74.821320	-11.002099			
13493	9.178736	-1.561021	0.910941	1.482971	-2.049615	-0.806268	12.441246	-74.880278	-11.692723			
13494	9.129973	-2.195059	0.936866	1.427757	-2.704286	-0.885164	13.021619	-74.964107	-12.366386			
13495	9.209757	-2.583574	1.029988	1.336928	-3.120306	-0.810932	13.616679	-75.062195	-12.973373			
13496	9.389339	-2.466419	1.095022	1.299057	-3.035067	-0.617974	14.226843	-75.159846	-13.487869			
13497	9.639798	-1.988379	1.024075	1.413318	-2.589655	-0.366828	14.825557	-75.243452	-13.904286			
13498	9.873015	-1.248738	1.054787	1.423386	-1.883107	-0.087658	15.393757	-75.319054	-14.254226			
13499	10.150308	-0.377832	1.188034	1.338052	-1.049702	0.271491	15.876824	-75.403367	-14.562465			
13500	10.861754	0.333614	1.188944	1.481950	-0.396260	1.010868	16.206180	-75.494754	-14.804377			
13501	11.589404	0.735520	1.719311	1.121144	-0.064127	1.872783	16.273956	-75.552058	-14.927652			
13502	12.069145	0.723392	2.459889	0.509681	-0.125405	2.514644	16.055399	-75.588240	-14.940495			
13503	12.432846	0.520425	3.267544	-0.191660	-0.354208	3.046593	15.647171	-75.649621	-14.860842			
13504	12.479591	-0.070185	3.649822	-0.561355	-0.924663	3.144784	15.174633	-75.731739	-14.739274			
13505	12.086671	-0.625409	3.649113	-0.674144	-1.424372	2.729696	14.843049	-75.833160	-14.656994			
13506	11.536699	-0.422450	4.052788	-1.224877	-1.171249	2.304520	14.744254	-76.001994	-14.663727			
13507	11.861274	0.266479	4.818800	-1.939152	-0.496849	2.835401	14.840838	-76.296638	-14.720365			
13508	12.827110	1.296125	4.667075	-1.647663	0.479720	3.790640	15.156808	-76.708931	-14.783168			
13509	13.527693	2.938582	3.485571	-0.450861	2.094488	4.300837	15.554724	-77.119746	-14.678607			
13510	13.161107	4.903409	2.187953	0.602456	4.108711	3.781421	15.840499	-77.395405	-14.315188			
13511	12.046024	7.344716	1.987231	0.403737	6.618839	2.797930	16.015973	-77.568712	-13.905869			
13512	11.154017	8.899866	1.965368	0.103046	8.220591	2.014960	16.133072	-77.679513	-13.696164			
13513	9.714830	9.115418	2.094186	-0.364997	8.504644	0.646384	16.111118	-77.744142	-13.737770			
13514	8.887035	7.851464	2.184885	-0.557975	7.291768	-0.225344	15.852897	-77.838168	-13.947163			
13515	9.193157	5.719829	2.868674	-1.055290	5.152741	0.076451	15.146878	-77.945174	-14.011049			
13516	9.359994	3.486452	3.750055	-1.796974	2.952395	0.280936	13.877111	-77.975071	-13.727463			
13517	9.033089	1.194090	3.917947	-1.985043	0.759021	-0.124778	12.253676	-77.886241	-13.113626			
13518	8.649014	-0.853265	3.170681	-1.346449	-1.197457	-0.738577	10.570719	-77.793472	-12.220940			
13519	8.992780	-2.670655	3.178248	-1.337157	-2.957261	-0.454808	8.749811	-77.692268	-11.011102			
13520	9.304206	-3.760131	3.671780	-1.798572	-3.965270	-0.054103	6.815977	-77.566257	-9.535228			
13521	9.480154	-3.838607	3.447782	-1.530342	-3.986827	0.099838	5.023989	-77.383701	-7.992609			
13522	9.284126	-2.873481	2.564955	-0.621727	-3.003387	-0.240666	3.596195	-77.160179	-6.480771			
13523	9.564130	-1.270607	2.150032	-0.022657	-1.386126	-0.025582	2.420411	-76.931411	-5.065696			
13524	9.629538	0.094905	1.919216	0.331847	0.006002	0.001073	1.377088	-76.647464	-3.794388			
13525	9.471748	0.979125	1.977085	0.327515	0.931199	-0.137624	0.422702	-76.352686	-2.699918			
13526	8.890258	1.359208	2.099102	0.134938	1.357365	-0.678716	-0.536226	-76.060955	-1.717165			
13527	8.504079	1.396175	2.372604	-0.176996	1.442795	-0.993126	-1.510648	-75.794564	-0.816654			
13528	8.181424	1.156663	2.722295	-0.561966	1.255453	-1.222447	-2.504619	-75.533876	0.018644			
13529	7.834917	0.621657	2.783265	-0.688847	0.762409	-1.538456	-3.531008	-75.272354	0.825685			
13530	7.708084	0.054287	2.769502	-0.696019	0.234102	-1.654981	-4.525611	-75.026329	1.612564			
13531	7.648402	-0.520313	3.018348	-0.945839	-0.286699	-1.633314	-5.544378	-74.789189	2.412997			
13532	7.736610	-1.273465	3.056473	-0.968519	-0.994620	-1.512605	-6.470117	-74.567493	3.145538			
13533	7.859377	-1.669996	2.862044	-0.744697	-1.364175	-1.426132	-7.237337	-74.385072	3.812423			
13534	8.159718	-1.668508	2.740922	-0.528274	-1.333673	-1.162848	-7.935776	-74.268406	4.481238			
13535	8.326740	-1.508288	2.797868	-0.513757	-1.136793	-0.987652	-8.624457	-74.156820	5.156787			
13536	8.326351	-1.433511	2.988229	-0.677208	-1.020018	-0.934994	-9.296633	-74.037067	5.824404			
13537	8.360301	-1.326043	3.044457	-0.700275	-0.879090	-0.887528	-9.932728	-73.924649	6.489039			
13538	8.314175	-1.280355	3.094183	-0.744686	-0.804431	-0.916787	-10.529739	-73.833824	7.140523			
13539	8.453706	-1.202074	3.093483	-0.690815	-0.696845	-0.784017	-11.053896	-73.764142	7.727979			
13540	8.482261	-1.264566	3.053339	-0.641020	-0.738523	-0.762030	-11.530503	-73.723966	8.258489			
13541	8.389487	-1.404187	2.936507	-0.559280	-0.869664	-0.873495	-11.941983	-73.713552	8.720845			
13542	8.342370	-1.556257	2.890404	-0.537456	-1.010736	-0.921059	-12.278957	-73.731313	9.106382			
13543	8.258628	-1.782787	2.910580	-0.596324	-1.228041	-0.981434	-12.523745	-73.779143	9.399959			
13544	8.120457	-1.958293	2.922568	-0.665003	-1.401901	-1.100021	-12.708171	-73.872533	9.625058			
13545	7.899104	-2.130824	2.788086	-0.620828	-1.588966	-1.339234	-12.842155	-74.003121	9.779152			
13546	7.642473	-2.296873	2.777171	-0.710245	-1.767059	-1.580513	-12.920428	-74.185676	9.865327			
13547	7.486532	-2.432493	2.570537	-0.588771	-1.925457	-1.780333	-12.932698	-74.428552	9.897746			
13548	7.465576	-2.518970	2.336259	-0.407903	-2.034313	-1.860756	-12.853805	-74.717399	9.858603			
13549	7.436118	-2.648998	2.135401	-0.265698	-2.188482	-1.937868	-12.697357	-75.026120	9.762682			
13550	7.397423	-2.735248	2.153588	-0.335259	-2.289706	-1.971381	-12.453882	-75.338183	9.599741			
13551	7.505943	-2.742506	2.391963	-0.575490	-2.296399	-1.814111	-12.138363	-75.629960	9.372299			
13552	7.629637	-2.669973	3.018931	-1.181801	-2.205658	-1.554820	-11.723608	-75.870891	9.040680			
13553	7.782031	-2.438783	3.693454	-1.813577	-1.959262	-1.267431	-11.146872	-76.046664	8.596300			
13554	8.130547	-1.959562	4.198358	-2.217365	-1.477904	-0.842134	-10.379850	-76.187456	8.065837			
13555	8.692095	-1.142107	4.250558	-2.118587	-0.684382	-0.327584	-9.518565	-76.312595	7.536367			
13556	9.556012	-0.396160	3.741165	-1.412174	0.020830	0.359616	-8.679232	-76.419703	7.094965			
13557	10.438114	0.081209	3.565816	-1.032592	0.475559	1.159246	-7.950816	-76.432666	6.696302			
13558	10.875830	0.199460	3.517943	-0.877282	0.568387	1.571802	-7.280307	-76.384403	6.285015			
13559	11.127034	0.108261	2.842358	-0.150807	0.437883	1.662809	-6.614773	-76.326854	5.827121			
13560	11.194161	-0.213911	1.845707	0.844786	0.071108	1.502913	-5.912623	-76.260153	5.312406			
13561	10.720420	-1.107393	1.957934	0.635773	-0.858158	1.088986	-5.300302	-76.166106	4.776939			
13562	10.019393	-2.199460	3.644926	-1.161199	-1.965942	0.831466	-4.878904	-76.114395	4.339852			
13563	10.348780	-3.056314	5.205062	-2.598491	-2.813146	1.539185	-4.652984	-76.131107	4.144030			
13564	12.331127	-3.108459	6.435242	-3.307718	-2.836294	3.757349	-4.455672	-76.084180	4.214779			
13565	14.655322	-3.031225	5.758440	-2.032615	-2.755949	5.852520	-4.101567	-75.856737	4.529021			
13566	16.633123	-1.812032	4.618498	-0.336977	-1.532253	7.473478	-3.565873	-75.471972	4.988621			
13567	15.887478	-0.687557	2.470878	1.670052	-0.387460	6.188842	-3.242974	-74.983208	5.548990			
13568	13.978479	1.247229	0.214892	3.366298	1.610149	3.717825	-3.128220	-74.718233	6.188286			
13569	13.921717	4.035179	1.624263	1.878575	4.353619	3.980495	-3.227523	-74.493942	6.502730			
13570	14.372095	6.103784	5.459950	-1.769503	6.245370	5.402051	-3.318720	-74.316226	6.506208			
13571	15.136859	7.460418	6.516983	-2.570450	7.583800	6.408623	-3.307866	-73.931118	6.401742			
13572	14.021693	6.951564	3.813471	-0.097036	7.185336	4.603729	-3.097491	-73.250843	6.028729			
13573	11.136044	3.415356	3.041002	0.193156	3.608701	1.670383	-2.964477	-72.459782	5.479300			
13574	8.578264	-0.041501	2.431887	0.316693	0.108310	-0.902623	-2.744121	-71.720607	4.821804			
13575	5.828190	-1.298017	2.733764	-0.689844	-1.230429	-3.398959	-2.428809	-71.046827	4.029214			
13576	3.775334	-1.905170	2.725940	-1.283477	-1.883522	-5.327319	-1.976999	-70.541248	3.178613			
13577	3.704274	-1.921546	3.264398	-1.788460	-1.914980	-5.207856	-1.371413	-70.153363	2.412342			
13578	5.237013	-1.418594	3.521991	-1.498778	-1.411588	-3.680466	-0.702445	-70.007738	1.864339			
13579	7.462301	-0.235869	3.207298	-0.463549	-0.227456	-1.703333	-0.101944	-70.099059	1.612183			
13580	8.711395	1.148389	2.782681	0.297338	1.151772	-0.672920	0.330721	-70.314099	1.629381			
13581	9.070713	2.826272	2.494662	0.578442	2.823232	-0.422088	0.647822	-70.595614	1.749853			
13582	9.447861	4.030149	2.193489	0.866952	4.028638	-0.151758	0.923799	-70.911733	1.808942			
13583	10.042204	4.936424	2.124893	1.013531	4.928961	0.405288	1.222003	-71.209949	1.671899			
13584	10.229587	5.106194	2.194473	0.948291	5.078633	0.620023	1.524579	-71.457464	1.303855			
13585	9.890245	4.471549	2.315977	0.732609	4.414875	0.343470	1.858696	-71.634608	0.704869			
13586	9.180993	3.379254	2.440107	0.437403	3.293675	-0.293000	2.190718	-71.736580	-0.031814			
13587	8.387662	2.279472	2.547508	0.135084	2.172377	-1.020579	2.500363	-71.796943	-0.840655			
13588	7.715305	1.251853	2.870583	-0.348623	1.127403	-1.570070	2.731580	-71.865573	-1.637565			
13589	7.320091	0.371528	2.837378	-0.430044	0.247235	-1.968811	2.888662	-71.962981	-2.380700			
13590	7.018925	-0.166599	2.683109	-0.390194	-0.285784	-2.312143	2.997476	-72.114486	-3.081180			
13591	7.122922	-0.389029	2.586087	-0.295458	-0.508184	-2.247665	3.050915	-72.334523	-3.735970			
13592	7.338258	-0.436410	2.603657	-0.285185	-0.555712	-2.039063	3.054703	-72.591762	-4.304454			
13593	7.777298	-0.232202	2.766506	-0.346671	-0.351877	-1.569528	3.015275	-72.877046	-4.797421			
13594	8.239902	-0.059452	2.554719	-0.047693	-0.188225	-1.187826	2.926776	-73.171393	-5.213849			
13595	8.716151	-0.063948	2.406092	0.184877	-0.202230	-0.774469	2.800111	-73.472040	-5.558388			
13596	9.379509	-0.005631	2.302236	0.426599	-0.158042	-0.165494	2.644521	-73.758188	-5.852963			
13597	9.713310	-0.296323	2.071117	0.677303	-0.462374	0.089486	2.504755	-74.008212	-6.159923			
13598	9.935288	-0.499931	2.079661	0.671652	-0.667236	0.306028	2.438638	-74.231652	-6.516498			
13599	10.033583	-0.705679	2.075886	0.645856	-0.876307	0.399801	2.502288	-74.413250	-6.974335			
13600	9.803056	-0.949746	2.061789	0.542697	-1.120183	0.172475	2.721432	-74.553144	-7.556288			
13601	9.562516	-1.104817	2.237257	0.267289	-1.265297	-0.014976	3.083922	-74.658982	-8.238998			
13602	9.221322	-1.117908	2.200939	0.186449	-1.285783	-0.355491	3.555233	-74.737180	-8.992373			
13603	9.058279	-1.031226	2.336344	0.002025	-1.201656	-0.478326	4.121818	-74.793224	-9.797807			
13604	8.858436	-0.876660	2.268769	0.014552	-1.069525	-0.688896	4.778309	-74.824846	-10.662314			
13605	8.704031	-0.780183	2.212875	0.026601	-0.999513	-0.853567	5.524505	-74.831428	-11.576139			
13606	8.646777	-0.620855	2.191109	0.040590	-0.871374	-0.913691	6.329907	-74.825920	-12.523135			
13607	8.453076	-0.526497	2.268717	-0.080678	-0.791892	-1.080845	7.186220	-74.807852	-13.507597			
13608	8.579363	-0.439444	2.197229	0.022124	-0.755483	-0.977812	8.096533	-74.791998	-14.535297			
13609	8.647915	-0.210682	2.181603	0.073724	-0.571664	-0.910000	9.020705	-74.762485	-15.574599			
13610	8.659707	0.066747	2.089581	0.192045	-0.345002	-0.912952	9.939422	-74.721234	-16.616727			
13611	8.639024	0.345694	2.051473	0.253445	-0.109594	-0.930998	10.850919	-74.665589	-17.664659			
13612	8.648297	0.673129	1.930432	0.410859	0.162247	-0.937021	11.725294	-74.597751	-18.691069			
13613	8.867889	0.921756	1.659738	0.758519	0.320633	-0.781324	12.559276	-74.513071	-19.688547			
13614	9.259751	0.941478	1.367465	1.143644	0.232362	-0.477952	13.272769	-74.412997	-20.611217			
13615	9.458099	0.784262	1.049711	1.485629	-0.017307	-0.380558	13.816114	-74.277736	-21.430048			
13616	9.598507	0.298782	0.942310	1.569952	-0.560741	-0.308518	14.177891	-74.103978	-22.150616			
13617	9.480531	-0.277076	1.363254	1.071701	-1.096768	-0.354138	14.358518	-73.894649	-22.750705			
13618	9.266893	-0.889557	1.639678	0.676222	-1.664861	-0.532274	14.371405	-73.698253	-23.238482			
13619	8.885345	-1.517117	1.788812	0.342713	-2.233675	-0.905158	14.307593	-73.547277	-23.671711			
13620	8.581722	-2.121901	2.031325	-0.075095	-2.762178	-1.173277	14.188303	-73.477363	-24.055651			
13621	8.586645	-2.653240	1.906213	-0.068320	-3.300733	-1.239226	14.078073	-73.469840	-24.389113			
13622	8.803448	-2.871821	2.016453	-0.182875	-3.516869	-1.014264	14.014418	-73.519179	-24.688179			
13623	9.422905	-2.935284	2.054307	-0.101264	-3.639248	-0.412010	14.032030	-73.618871	-24.973372			
13624	10.251209	-2.782844	2.028765	0.131633	-3.589041	0.387742	14.197458	-73.747501	-25.292063			
13625	10.980998	-2.209242	1.916324	0.502677	-3.136384	1.098118	14.515751	-73.897528	-25.669214			
13626	11.764902	-1.288397	1.811574	0.944595	-2.357312	1.887969	15.013512	-74.052647	-26.173855			
13627	12.483327	-0.358829	1.444153	1.623215	-1.619977	2.548078	15.577879	-74.115561	-26.764512			
13628	12.438857	-0.013274	1.456301	1.654241	-1.305651	2.532547	16.082388	-74.055598	-27.375654			
13629	12.028547	-0.159050	1.564981	1.425551	-1.411316	2.151270	16.353510	-73.912853	-27.870689			
13630	11.249679	-0.444628	2.355654	0.439514	-1.468145	1.587024	16.346140	-73.795446	-28.169921			
13631	10.911146	-0.438271	3.588602	-0.801352	-1.186013	1.592331	16.130619	-73.791860	-28.281727			
13632	11.003094	-0.608801	3.906842	-1.120821	-1.281905	1.754618	15.799500	-73.852186	-28.223424			
13633	10.908773	-0.667867	4.099360	-1.347076	-1.260677	1.713289	15.442931	-73.939281	-28.018622			
13634	10.495406	-0.077421	4.701031	-1.895479	-0.482591	1.520159	15.105593	-74.094256	-27.748885			
13635	10.527719	0.795674	4.257610	-1.297458	0.304562	1.492925	14.833984	-74.329990	-27.424188			
13636	11.022727	1.750077	3.535493	-0.325308	1.056777	1.842357	14.715989	-74.617295	-27.059366			
13637	11.732434	2.821772	2.883228	0.632301	1.917160	2.428616	14.750880	-74.939764	-26.673532			
13638	11.723121	4.288767	2.326932	1.388880	3.277802	2.376075	14.810191	-75.259118	-26.238276			
13639	11.153474	5.889899	1.834850	1.962140	4.855336	1.807655	14.860388	-75.566183	-25.800332			
13640	10.334398	7.433845	1.484205	2.320765	6.432656	1.027000	14.891202	-75.853957	-25.433710			
13641	9.610334	7.964731	1.543364	2.126067	7.071845	0.367974	14.879027	-76.134802	-25.265659			
13642	9.489328	7.248296	1.942108	1.542978	6.475364	0.289080	14.614983	-76.408865	-25.201413			
13643	8.885076	5.200445	2.720495	0.275330	4.697329	-0.260233	13.894680	-76.697076	-25.003195			
13644	8.947387	3.359302	3.633645	-0.948140	3.112263	-0.119473	12.872533	-77.040252	-24.629689			
13645	9.083076	1.591418	4.196626	-1.833790	1.564956	0.027733	11.423169	-77.365285	-23.928293			
13646	9.261277	-0.367748	4.183886	-2.233784	-0.263146	0.104542	9.734424	-77.638106	-22.937197			
13647	9.749713	-1.888673	4.189546	-2.517145	-1.680107	0.532197	7.930186	-77.840196	-21.667524			
13648	9.976811	-3.110970	4.247986	-2.839743	-2.773685	0.746765	6.038841	-77.975547	-20.152294			
13649	10.183612	-3.799168	3.921362	-2.660606	-3.448507	0.889890	4.232903	-78.012465	-18.515405			
13650	10.224655	-3.679160	2.949724	-1.675096	-3.507421	0.754825	2.707871	-77.910702	-16.898558			
13651	10.639165	-2.473691	2.019616	-0.358435	-2.546847	0.993536	1.528485	-77.719121	-15.333135			
13652	11.105498	-0.718740	1.935374	0.305174	-0.860062	1.446133	0.646836	-77.437304	-13.962909			
13653	10.755874	0.609209	2.265436	0.293253	0.545967	1.178567	-0.108840	-77.092634	-12.794308			
13654	10.156840	1.345453	2.548598	0.123226	1.371625	0.654887	-0.821327	-76.731630	-11.777149			
13655	9.461159	1.706896	2.559600	0.095448	1.773035	-0.023637	-1.429549	-76.368925	-10.924680			
13656	8.429351	1.619797	2.552493	-0.100301	1.743264	-1.029541	-1.983904	-76.009321	-10.209490			
13657	7.802271	1.089089	2.547419	-0.306581	1.260510	-1.635412	-2.551879	-75.684506	-9.548667			
13658	7.201495	0.426958	2.565129	-0.563353	0.652093	-2.204734	-3.107982	-75.376754	-8.924452			
13659	6.798993	-0.080030	2.743036	-0.897019	0.218810	-2.539152	-3.654467	-75.098551	-8.301881			
13660	6.745318	-0.631611	2.811826	-1.055729	-0.292845	-2.559812	-4.255412	-74.893428	-7.602835			
13661	7.101128	-1.061976	2.782257	-0.996879	-0.717704	-2.210988	-4.864885	-74.752146	-6.841706			
13662	7.528218	-1.393230	2.761833	-0.910109	-1.043431	-1.792353	-5.465570	-74.648867	-6.030298			
13663	7.770056	-1.478776	2.713137	-0.796590	-1.127385	-1.565502	-6.010898	-74.563156	-5.219788			
13664	7.959683	-1.430297	2.705913	-0.712089	-1.070219	-1.382279	-6.529763	-74.502508	-4.400597			
13665	7.982250	-1.281850	2.750793	-0.705251	-0.902487	-1.350157	-6.972779	-74.449949	-3.608667			
13666	8.295189	-0.942178	2.801498	-0.597273	-0.553511	-1.044385	-7.317410	-74.426692	-2.871938			
13667	8.232844	-0.618036	2.706734	-0.460658	-0.242558	-1.139911	-7.541919	-74.395686	-2.227147			
13668	8.055406	-0.326054	2.793145	-0.537701	0.064750	-1.297746	-7.662406	-74.377499	-1.689503			
13669	8.000710	-0.194451	2.783130	-0.522724	0.192924	-1.357835	-7.704633	-74.393931	-1.258269			
13670	7.983410	-0.094306	2.718831	-0.457931	0.279048	-1.395551	-7.668397	-74.448465	-0.945115			
13671	7.905597	-0.156158	2.674104	-0.457358	0.206483	-1.480710	-7.567359	-74.543043	-0.742602			
13672	7.959966	-0.324743	2.726619	-0.534619	0.039773	-1.409502	-7.404137	-74.685380	-0.654133			
13673	8.063465	-0.590173	2.760103	-0.597947	-0.228528	-1.293525	-7.158386	-74.854662	-0.698676			
13674	8.052251	-0.884574	2.807405	-0.710582	-0.527378	-1.285108	-6.784246	-75.039701	-0.902496			
13675	7.965119	-1.241090	2.551947	-0.559375	-0.933287	-1.427471	-6.228423	-75.211061	-1.297873			
13676	7.736265	-1.788643	2.045896	-0.224196	-1.565462	-1.766962	-5.453823	-75.383893	-1.863577			
13677	7.598436	-2.131741	1.506522	0.195767	-2.001937	-2.034258	-4.494003	-75.592245	-2.540186			
13678	7.611473	-2.388710	1.434884	0.213394	-2.296318	-2.042192	-3.503623	-75.853531	-3.233338			
13679	7.790046	-2.412837	2.073147	-0.392146	-2.277761	-1.721805	-2.664712	-76.166735	-3.833241			
13680	8.117959	-2.110426	3.203275	-1.413447	-1.880718	-1.147761	-2.093245	-76.512980	-4.237213			
13681	8.523058	-1.553404	3.823905	-1.908530	-1.283399	-0.626395	-1.790798	-76.859080	-4.359018			
13682	8.923673	-0.760128	3.675170	-1.641110	-0.528644	-0.286740	-1.635809	-77.179538	-4.218744			
13683	9.605604	0.133920	3.641859	-1.416756	0.336775	0.357263	-1.555310	-77.438575	-3.924654			
13684	10.416976	0.751707	3.641042	-1.220824	0.931271	1.140754	-1.525267	-77.566377	-3.584594			
13685	11.117003	0.970509	3.093845	-0.534172	1.084128	1.704293	-1.420963	-77.535990	-3.346549			
13686	11.499856	0.874105	1.893479	0.716398	0.874650	1.819927	-1.053263	-77.418818	-3.329211			
13687	11.262776	0.428511	1.261264	1.267642	0.369727	1.451452	-0.455953	-77.269536	-3.559338			
13688	11.094603	-0.508191	1.840127	0.630433	-0.547574	1.413937	0.248706	-77.109222	-4.000695			
13689	11.122221	-1.870115	3.623669	-1.157703	-1.821368	1.835245	0.753233	-76.972446	-4.443246			
13690	11.925362	-3.092540	5.097263	-2.466404	-2.978856	2.946756	0.837909	-76.885887	-4.546086			
13691	13.221575	-3.269187	6.357264	-3.384582	-3.097317	4.500368	0.566114	-76.780983	-4.211105			
13692	14.638734	-3.327796	5.402556	-2.073791	-3.238719	5.671616	0.381917	-76.519190	-3.581190			
13693	15.376021	-1.878878	3.588963	0.048681	-1.919625	5.971617	0.750133	-76.204609	-2.883204			
13694	16.196441	0.685222	2.621565	1.378149	0.584525	6.540458	1.080067	-75.888570	-2.075873			
13695	15.033004	2.047488	1.123272	2.657673	1.952829	5.038827	0.933464	-75.433474	-1.202638			
13696	13.759089	2.978055	0.432474	3.091231	2.924763	3.613328	0.610818	-75.074368	-0.574194			
13697	14.268936	4.937007	4.134131	-0.302534	4.905861	5.050303	0.316351	-74.914084	-0.221265			
13698	14.655373	6.648664	6.092681	-2.029727	6.641481	5.931375	-0.107660	-74.639686	0.008618			
13699	12.857821	7.387032	3.472547	0.156446	7.397450	3.499005	-0.238205	-74.030580	-0.106975			
13700	10.022594	4.863242	3.782441	-0.755348	4.883738	0.863731	-0.244361	-73.243019	-0.605445			
13701	7.433276	0.581351	3.610772	-1.249984	0.610179	-1.646084	-0.007555	-72.504104	-1.324630			
13702	5.830109	-1.391350	3.531831	-1.618575	-1.353109	-3.183292	0.338065	-71.899634	-2.162794			
13703	4.050059	-2.826569	3.754556	-2.389582	-2.757596	-4.795251	0.733525	-71.419376	-2.963698			
13704	3.243618	-3.128327	2.909552	-1.839765	-3.078956	-5.824173	1.317331	-71.085953	-3.651981			
13705	4.020338	-3.174867	3.303833	-1.946344	-3.142984	-4.965881	1.979534	-70.915270	-4.184573			
13706	6.220966	-2.216847	3.083590	-0.972232	-2.275600	-2.957058	2.786392	-71.012231	-4.558856			
13707	8.427355	-0.461993	2.375946	0.453912	-0.632227	-1.079250	3.591492	-71.271933	-4.759224			
13708	9.788235	1.286524	2.147214	1.092971	1.049022	0.176292	4.279395	-71.602187	-4.781474			
13709	10.902400	3.125377	1.786324	1.724765	2.839913	1.177332	4.859338	-71.941621	-4.746185			
13710	11.442380	4.563201	1.874420	1.715362	4.250575	1.774102	5.357436	-72.233422	-4.781856			
13711	11.333090	5.273374	2.001061	1.478812	4.945573	1.746105	5.830033	-72.427771	-4.974033			
13712	10.331649	5.204012	1.971434	1.161607	4.883207	0.794675	6.255492	-72.526909	-5.317693			
13713	9.185081	4.380429	2.158884	0.637177	4.067999	-0.259677	6.631833	-72.558042	-5.791318			
13714	8.354323	3.323021	2.395041	0.180431	3.013924	-1.011718	6.970134	-72.552591	-6.358802			
13715	7.726231	2.396942	2.736551	-0.316429	2.089003	-1.538353	7.318974	-72.543741	-7.000615			
13716	7.647195	1.739763	2.737583	-0.334732	1.422270	-1.635535	7.673743	-72.575405	-7.686863			
13717	7.570360	1.126674	2.765966	-0.389767	0.801590	-1.723446	7.991725	-72.636399	-8.375222			
13718	7.519193	0.639752	2.644721	-0.305055	0.309321	-1.828119	8.262925	-72.743118	-9.050165			
13719	7.454264	0.550695	2.455029	-0.161951	0.215758	-1.949885	8.526324	-72.895823	-9.704957			
13720	7.620264	0.662366	2.447549	-0.127515	0.314632	-1.788827	8.737248	-73.094288	-10.322140			
13721	7.795429	0.680589	2.358328	-0.019048	0.321123	-1.646288	8.851818	-73.313410	-10.877216			
13722	7.974291	0.793704	2.290772	0.069552	0.425344	-1.489162	8.905894	-73.567057	-11.372502			
13723	8.332913	0.882168	2.039540	0.380260	0.488750	-1.210839	8.942157	-73.829832	-11.833817			
13724	8.643180	0.899266	2.057596	0.412543	0.492402	-0.905713	8.989553	-74.089760	-12.306289			
13725	9.059124	0.752308	1.952803	0.577183	0.317833	-0.538376	9.111814	-74.352804	-12.856009			
13726	9.527858	0.690509	1.822015	0.781782	0.217286	-0.121553	9.332972	-74.589712	-13.501438			
13727	9.665039	0.454914	1.755950	0.825659	-0.040442	-0.013717	9.684221	-74.770323	-14.256824			
13728	9.777267	0.245362	1.815768	0.746015	-0.269159	0.103112	10.173419	-74.911089	-15.125066			
13729	9.639542	-0.029815	1.888031	0.588181	-0.550662	-0.023049	10.768901	-75.002775	-16.065182			
13730	9.519850	-0.233570	1.925134	0.479500	-0.768611	-0.139661	11.459126	-75.048714	-17.048786			
13731	9.434618	-0.376847	2.052747	0.302990	-0.923401	-0.198988	12.180611	-75.057424	-18.024876			
13732	9.383328	-0.513599	2.180997	0.139121	-1.074113	-0.226540	12.888583	-75.032082	-18.951553			
13733	9.170487	-0.516321	1.952535	0.299093	-1.112192	-0.493337	13.605181	-74.981026	-19.816826			
13734	9.046283	-0.315868	1.957091	0.283927	-0.933964	-0.603332	14.297222	-74.910615	-20.622346			
13735	8.860265	-0.304864	2.004312	0.194075	-0.932709	-0.773505	14.965279	-74.825569	-21.391690			
13736	8.812745	-0.166889	1.968328	0.234396	-0.825778	-0.822152	15.621767	-74.739936	-22.129091			
13737	8.859010	-0.018495	1.849601	0.379845	-0.726851	-0.799877	16.294162	-74.641497	-22.869140			
13738	8.873885	0.282610	1.930500	0.345510	-0.455054	-0.744833	16.976586	-74.538306	-23.617108			
13739	9.076477	0.421419	1.930013	0.417788	-0.373525	-0.540643	17.621828	-74.411366	-24.354623			
13740	9.212078	0.604820	2.079790	0.338950	-0.227289	-0.358215	18.236548	-74.259777	-25.089598			
13741	9.410437	0.702273	2.146626	0.349756	-0.184088	-0.143088	18.808376	-74.075171	-25.807961			
13742	9.476222	0.704339	1.946953	0.576229	-0.250125	-0.133290	19.341831	-73.862253	-26.498627			
13743	9.418466	0.595480	1.828430	0.682614	-0.403294	-0.232684	19.833749	-73.629364	-27.151386			
13744	9.185947	0.486847	1.919533	0.545038	-0.508797	-0.445343	20.248975	-73.394971	-27.733659			
13745	9.075065	0.297000	2.114238	0.326232	-0.693694	-0.521441	20.601779	-73.173794	-28.257900			
13746	9.051500	0.038933	2.088291	0.327023	-0.977528	-0.580704	20.894577	-72.979328	-28.706103			
13747	9.094628	-0.258816	2.060870	0.336408	-1.305036	-0.581757	21.118717	-72.814008	-29.060083			
13748	9.165695	-0.624930	1.914833	0.451352	-1.713020	-0.597000	21.300288	-72.682308	-29.336839			
13749	9.259424	-0.803332	1.782165	0.584519	-1.934960	-0.567546	21.467250	-72.579730	-29.558823			
13750	9.372215	-0.800899	1.616031	0.779650	-1.983988	-0.509605	21.639315	-72.500861	-29.751567			
13751	9.461791	-0.517026	1.673332	0.796238	-1.725479	-0.379684	21.849593	-72.453720	-29.974091			
13752	9.882124	-0.046138	1.581881	1.064442	-1.351207	0.046422	22.103332	-72.436056	-30.270632			
13753	10.281559	0.350822	1.624196	1.185006	-1.032362	0.483016	22.342881	-72.417037	-30.642158			
13754	10.644830	0.471457	1.590378	1.325942	-0.989367	0.832827	22.459944	-72.388741	-31.021839			
13755	10.950245	0.201716	1.251975	1.680701	-1.358184	0.996872	22.453480	-72.347087	-31.356112			
13756	11.026959	0.148233	1.954127	1.025824	-1.338390	1.259385	22.254458	-72.291728	-31.592995			
13757	10.990651	0.101111	3.150221	-0.121527	-1.201990	1.556962	21.781387	-72.271599	-31.706603			
13758	11.288328	-0.340733	3.532841	-0.489232	-1.588905	1.903083	21.122220	-72.328586	-31.691226			
13759	11.425357	-0.859638	3.663247	-0.690525	-2.042930	2.021435	20.380185	-72.437830	-31.582968			
13760	11.226221	-1.186036	3.914838	-1.068899	-2.224565	1.877866	19.685499	-72.603472	-31.452822			
13761	11.281300	-0.993967	4.239076	-1.350106	-1.927291	2.048504	19.211663	-72.826078	-31.349682			
13762	11.926344	-0.180007	4.370060	-1.175201	-1.159844	2.782579	19.043694	-73.136230	-31.328759			
13763	12.975734	1.122947	3.727933	-0.086010	-0.133483	3.733613	19.167602	-73.524160	-31.360128			
13764	13.605700	2.739782	2.583110	1.414309	1.164651	4.185034	19.493427	-73.937482	-31.366501			
13765	13.351877	4.718575	1.827734	2.393533	3.025161	3.934912	19.842800	-74.287926	-31.263814			
13766	12.260855	7.014492	2.196176	2.166808	5.518560	3.195171	20.092088	-74.567855	-31.113550			
13767	11.212479	8.728998	2.515534	1.885039	7.420695	2.419338	20.195502	-74.798398	-31.025435			
13768	10.033044	8.861319	2.582202	1.543784	7.745688	1.299184	19.995021	-74.982812	-30.961511			
13769	9.082409	7.491922	2.832585	0.835170	6.607027	0.301264	19.438626	-75.158990	-30.883296			
13770	8.464494	5.485600	3.406726	-0.221649	4.878572	-0.352497	18.593482	-75.361644	-30.750264			
13771	8.045002	3.291646	3.580823	-0.917310	2.890722	-0.914314	17.477226	-75.542317	-30.447537			
13772	7.835597	1.289487	3.597800	-1.414932	1.046417	-1.274183	16.174310	-75.670825	-29.937516			
13773	7.669672	-0.463434	3.545028	-1.819918	-0.569776	-1.568374	14.851664	-75.804365	-29.291595			
13774	7.909495	-1.730392	3.855245	-2.390964	-1.675186	-1.333664	13.491428	-75.959467	-28.464922			
13775	8.654861	-2.722935	3.960063	-2.603976	-2.615487	-0.626769	12.036896	-76.112170	-27.403645			
13776	9.258329	-3.274152	3.474755	-2.169449	-3.263547	-0.161107	10.531425	-76.172115	-26.088258			
13777	9.611854	-3.078340	2.748106	-1.333201	-3.244243	0.041911	9.155266	-76.107099	-24.640143			
13778	9.993342	-1.976980	2.412978	-0.589148	-2.270447	0.390029	7.995237	-75.972780	-23.179867			
13779	10.250103	-0.604470	2.262410	0.031227	-0.979608	0.655719	6.953305	-75.769505	-21.768511			
13780	10.035593	0.491502	2.112576	0.463533	0.089055	0.443753	6.020045	-75.527918	-20.456762			
13781	9.609199	1.400130	2.126293	0.631702	1.034304	0.053878	5.129112	-75.268464	-19.215884			
13782	8.791265	1.941996	2.276815	0.473007	1.687657	-0.692959	4.216604	-75.000056	-18.025389			
13783	8.211818	1.944838	2.500872	0.161714	1.811668	-1.200937	3.316465	-74.756667	-16.936561			
13784	7.598864	1.628760	2.761839	-0.276547	1.633790	-1.733241	2.414994	-74.552174	-15.930489			
13785	7.206751	1.168753	2.983333	-0.662551	1.289193	-2.060113	1.507426	-74.396782	-14.972968			
13786	7.110805	0.591945	3.086882	-0.894725	0.784290	-2.129781	0.606099	-74.283617	-14.058258			
13787	7.079160	0.037536	2.958597	-0.892523	0.245730	-2.196117	-0.270195	-74.209158	-13.149364			
13788	7.284884	-0.378343	2.851858	-0.820017	-0.167797	-2.025190	-1.113745	-74.169811	-12.228895			
13789	7.694656	-0.625839	2.866747	-0.770597	-0.400749	-1.623478	-1.933163	-74.156117	-11.289711			
13790	8.300334	-0.803686	2.862795	-0.637115	-0.577305	-1.037850	-2.725421	-74.164282	-10.349729			
13791	8.693984	-0.950199	2.942291	-0.631860	-0.691344	-0.632925	-3.480782	-74.172587	-9.414806			
13792	8.937526	-0.969042	2.974041	-0.594348	-0.683759	-0.387058	-4.188469	-74.188712	-8.499289			
13793	9.074498	-0.843656	3.075923	-0.621622	-0.517549	-0.228051	-4.813063	-74.208183	-7.640997			
13794	9.048143	-0.732652	3.041026	-0.570708	-0.392193	-0.264183	-5.321213	-74.234296	-6.882610			
13795	8.974537	-0.682844	2.914510	-0.461641	-0.348865	-0.369801	-5.720436	-74.265314	-6.229745			
13796	8.804546	-0.719980	2.702617	-0.317749	-0.409749	-0.589149	-5.986014	-74.301218	-5.720427			
13797	8.516514	-0.750246	2.546894	-0.258883	-0.454492	-0.907242	-6.127129	-74.355977	-5.350087			
13798	8.301497	-0.884254	2.418011	-0.228940	-0.602154	-1.145016	-6.153493	-74.432825	-5.116639			
13799	8.017053	-1.029068	2.466535	-0.388928	-0.729434	-1.402422	-6.052506	-74.525190	-5.042503			
13800	7.859888	-1.244928	2.610686	-0.621140	-0.917305	-1.511117	-5.793551	-74.638962	-5.149782			
13801	7.644001	-1.575252	2.453632	-0.604114	-1.280142	-1.754851	-5.305842	-74.732414	-5.470511			
13802	7.375603	-1.970942	1.969015	-0.298643	-1.773134	-2.136237	-4.572157	-74.841188	-5.936437			
13803	7.430558	-1.920269	1.933233	-0.254156	-1.757516	-2.100070	-3.758699	-74.999321	-6.463491			
13804	7.605725	-2.121855	1.786792	-0.123178	-2.012926	-1.972099	-2.954027	-75.180842	-6.995575			
13805	7.860069	-1.754431	2.651855	-0.840708	-1.538304	-1.517039	-2.261548	-75.361465	-7.461836			
13806	8.096752	-1.285583	3.477293	-1.514103	-0.971303	-1.091125	-1.725870	-75.526904	-7.800908			
13807	8.207998	-0.777699	2.846025	-0.828345	-0.596153	-1.150457	-1.234886	-75.746671	-7.919121			
13808	9.143208	0.384392	2.853405	-0.464611	0.506390	-0.251546	-0.934747	-76.018856	-7.737142			
13809	9.800885	0.927237	3.792774	-1.170861	1.154901	0.608321	-1.004255	-76.194671	-7.342053			
13810	10.256764	1.178958	4.011251	-1.262398	1.423984	1.098769	-1.226016	-76.240832	-6.874717			
13811	10.773691	1.348442	2.990622	-0.136985	1.441671	1.355899	-1.374077	-76.157629	-6.449786			
13812	11.084672	1.472791	1.716701	1.196379	1.392731	1.350424	-1.461258	-75.994861	-6.078637			
13813	10.662562	0.605655	0.802031	1.891360	0.433399	0.719887	-1.551382	-75.799552	-5.793924			
13814	10.349534	-0.623761	1.226256	1.281466	-0.717864	0.524047	-1.768048	-75.659800	-5.537294			
13815	9.885256	-2.280638	2.709378	-0.447501	-2.149751	0.455641	-2.331165	-75.559067	-5.201112			
13816	9.768744	-3.758681	4.149297	-2.050677	-3.393578	0.725381	-3.103561	-75.568113	-4.689795			
13817	10.623354	-4.340899	4.655910	-2.412884	-3.883005	1.697166	-3.741623	-75.637782	-4.031523			
13818	11.744022	-4.368739	5.301589	-2.752210	-3.830261	2.949334	-3.977530	-75.642239	-3.464356			
13819	13.676783	-4.223210	5.170340	-2.087018	-3.753563	4.787894	-3.764575	-75.583762	-2.948168			
13820	16.101212	-3.388137	4.794581	-0.926048	-3.053972	7.025664	-3.107113	-75.292822	-2.503183			
13821	16.653114	-2.471714	4.591313	-0.322806	-2.242698	7.489835	-2.258933	-74.717253	-2.118185			
13822	15.270577	-1.881301	2.562381	1.512633	-1.847414	5.601315	-1.466193	-74.151406	-1.640487			
13823	13.793968	-0.412829	0.257778	3.543033	-0.489115	3.518376	-1.018780	-73.788694	-1.018062			
13824	13.048881	2.304875	0.213255	3.532694	2.261507	2.758578	-1.098010	-73.583027	-0.518210			
13825	13.039876	4.661538	2.990533	0.958857	4.720060	3.510717	-1.422395	-73.488666	-0.248164			
13826	13.455469	6.709198	6.456422	-2.129009	6.883399	4.878595	-1.570791	-73.164505	-0.169684			
13827	11.904626	6.325105	4.470116	-0.576639	6.441616	2.831701	-1.409384	-72.546165	-0.301895			
13828	9.323536	3.717073	3.393543	-0.274920	3.800744	0.073604	-1.385044	-71.953059	-0.514669			
13829	7.552351	0.414926	3.782445	-1.206098	0.524045	-1.458806	-1.531056	-71.494791	-0.721878			
13830	6.200872	-0.555514	3.324428	-1.177503	-0.449791	-2.868468	-1.510498	-71.060393	-0.970454			
13831	4.645182	-0.881789	3.292583	-1.619665	-0.768980	-4.337145	-1.308138	-70.606789	-1.278900			
13832	3.523415	-1.487850	3.604297	-2.276115	-1.360978	-5.275503	-0.915951	-70.226849	-1.599002			
13833	4.225692	-1.766457	3.044997	-1.500155	-1.689028	-4.798160	-0.290294	-70.102158	-1.924303			
13834	6.135468	-1.184377	2.821028	-0.610941	-1.166655	-3.084353	0.429941	-70.203829	-2.178245			
13835	8.145569	-0.007829	2.439064	0.447288	-0.057903	-1.321761	1.115526	-70.410584	-2.237569			
13836	9.664427	1.344534	2.088421	1.271549	1.246633	0.005623	1.654322	-70.637428	-2.091043			
13837	10.575562	2.592284	2.259042	1.363300	2.472389	0.943429	2.058985	-70.849263	-1.851135			
13838	10.996547	3.534515	2.218643	1.468927	3.401762	1.350156	2.425128	-71.041350	-1.655256			
13839	10.783693	4.251915	2.199484	1.346993	4.112712	1.163445	2.737982	-71.173936	-1.535268			
13840	10.199496	4.564496	2.225637	1.085306	4.421029	0.632136	2.961975	-71.231640	-1.507968			
13841	9.335222	4.249030	2.248437	0.775143	4.102906	-0.178301	3.180495	-71.225313	-1.616030			
13842	8.604462	3.478076	2.228583	0.579354	3.328651	-0.886055	3.392684	-71.171992	-1.852489			
13843	8.049401	2.320379	2.363445	0.312424	2.162341	-1.387158	3.596842	-71.108263	-2.184518			
13844	7.783444	1.281158	2.581149	0.054381	1.111846	-1.587937	3.752835	-71.064397	-2.516146			
13845	7.752558	0.521912	2.544375	0.098243	0.348391	-1.644617	3.828930	-71.064564	-2.782501			
13846	7.700502	0.018955	2.648033	-0.011659	-0.156648	-1.671097	3.793432	-71.100140	-2.956069			
13847	7.688884	-0.341482	2.492660	0.125627	-0.510063	-1.739712	3.662303	-71.193524	-3.026687			
13848	7.908577	-0.285376	2.401450	0.263163	-0.449244	-1.559029	3.499695	-71.351677	-3.016451			
13849	8.193158	-0.087837	2.513862	0.220718	-0.247723	-1.248524	3.264682	-71.541444	-2.905280			
13850	8.562503	0.126276	2.588214	0.235700	-0.026762	-0.869819	2.993030	-71.755189	-2.732528			
13851	8.988387	0.283385	2.316315	0.592723	0.140531	-0.546322	2.721917	-71.981057	-2.522217			
13852	9.549320	0.531671	2.163000	0.875541	0.396526	-0.054264	2.470391	-72.198698	-2.327233			
13853	9.835958	0.453085	2.013200	1.072274	0.326819	0.174688	2.276812	-72.382966	-2.222801			
13854	9.872669	0.378474	2.054691	1.014968	0.259619	0.224094	2.176965	-72.533983	-2.183540			
13855	9.681908	0.218561	1.958669	1.025841	0.103806	0.013825	2.203984	-72.654770	-2.269729			
13856	9.268163	-0.042933	1.984248	0.858679	-0.157230	-0.374687	2.346460	-72.752868	-2.473270			
13857	8.770992	-0.333838	1.999339	0.678211	-0.451117	-0.847444	2.589375	-72.865757	-2.779559			
13858	8.442288	-0.617961	2.130256	0.433148	-0.743405	-1.126391	2.938143	-73.015543	-3.190971			
13859	8.320401	-0.879269	2.217513	0.286559	-1.019650	-1.222131	3.409492	-73.184120	-3.691966			
13860	8.249207	-1.055517	2.177101	0.276147	-1.216255	-1.306944	4.016519	-73.354057	-4.272808			
13861	8.262572	-1.007991	2.223606	0.209461	-1.196226	-1.282998	4.782585	-73.516247	-4.963167			
13862	8.288437	-0.818482	2.232371	0.185606	-1.040441	-1.254974	5.687358	-73.651517	-5.742679			
13863	8.431216	-0.384399	2.371669	0.073774	-0.650620	-1.070316	6.746626	-73.746446	-6.666155			
13864	8.608076	0.154423	2.506925	-0.021696	-0.165877	-0.847238	7.947333	-73.802105	-7.692608			
13865	8.862947	0.686508	2.413253	0.127385	0.302299	-0.607308	9.277259	-73.803803	-8.883443			
13866	9.131411	1.229464	2.191250	0.407010	0.773264	-0.382318	10.738870	-73.760241	-10.196533			
13867	9.422840	1.625839	1.863670	0.799374	1.089724	-0.164911	12.269381	-73.670387	-11.643740			
13868	9.621419	1.807936	1.537394	1.170966	1.191477	-0.044748	13.785010	-73.535383	-13.122234			
13869	9.621784	2.015688	1.246058	1.462854	1.327965	-0.102360	15.182842	-73.357307	-14.598840			
13870	9.652843	2.128217	1.119103	1.613250	1.367164	-0.092250	16.361650	-73.150835	-15.951612			
13871	9.548177	2.201065	1.350445	1.391305	1.376491	-0.117059	17.269280	-72.919930	-17.184646			
13872	9.540214	2.145973	1.621715	1.163354	1.262329	-0.050329	17.873127	-72.692152	-18.218048			
13873	9.472554	1.804818	1.777994	1.028171	0.884245	-0.101424	18.151331	-72.455579	-19.061309			
13874	9.353818	1.207339	1.521984	1.262575	0.270704	-0.346936	18.117286	-72.225090	-19.641417			
13875	9.029068	0.427725	1.206838	1.473071	-0.495889	-0.826724	17.882537	-72.020095	-20.054507			
13876	8.762901	-0.389544	0.979559	1.592427	-1.296707	-1.228841	17.488847	-71.864918	-20.260846			
13877	8.780135	-1.015153	1.027195	1.521869	-1.921173	-1.258774	16.974338	-71.766748	-20.325055			
13878	9.068756	-1.422655	1.348240	1.270385	-2.334877	-0.923453	16.388393	-71.739681	-20.247639			
13879	9.778207	-1.522520	2.123115	0.721201	-2.450681	-0.019171	15.771243	-71.788636	-20.136524			
13880	10.751266	-1.419432	3.030367	0.131489	-2.364007	1.195564	15.129768	-71.894780	-20.009725			
13881	11.673921	-1.595030	3.037219	0.347345	-2.593230	2.070221	14.503585	-72.016860	-19.925215			
13882	12.034842	-1.811671	3.476932	-0.026326	-2.768941	2.538046	14.026984	-72.177691	-19.896542			
13883	12.088649	-1.552774	4.485744	-0.991286	-2.389606	2.914259	13.766069	-72.410491	-20.009348			
13884	12.477468	-0.928117	4.437761	-0.819879	-1.784146	3.316921	13.767019	-72.664792	-20.222132			
13885	12.734667	-0.422575	4.600657	-0.897575	-1.280355	3.643582	13.969713	-72.866658	-20.498559			
13886	13.224076	0.022691	5.244201	-1.376599	-0.824798	4.322472	14.254437	-73.102408	-20.702014			
13887	13.974849	1.110647	4.045242	0.037881	0.058631	4.778016	14.595096	-73.373150	-20.742250			
13888	14.226417	3.035352	2.595594	1.636092	1.812283	4.760562	14.972230	-73.626524	-20.551517			
13889	13.933033	5.263313	1.766833	2.499633	3.998882	4.425061	15.304460	-73.824065	-20.242277			
13890	13.223153	7.398331	1.853703	2.340536	6.214913	3.932105	15.492274	-73.951231	-19.897513			
13891	11.961501	8.590991	2.534190	1.403085	7.579802	2.988976	15.359928	-74.013709	-19.625886			
13892	10.313850	8.689670	3.179130	0.366278	7.890645	1.571340	14.883665	-74.037272	-19.414113			
13893	8.619268	7.840329	3.648785	-0.535625	7.265285	-0.014518	14.139764	-74.056546	-19.323688			
13894	7.037727	6.167758	3.981467	-1.340133	5.822660	-1.583320	13.204709	-74.084701	-19.299323			
13895	5.840077	3.922467	4.122164	-1.955365	3.781688	-2.858624	12.159622	-74.127294	-19.322145			
13896	5.527253	2.014751	4.176618	-2.287357	1.999131	-3.268621	11.125092	-74.229360	-19.292416			
13897	5.767370	0.521137	4.161635	-2.416103	0.574586	-3.127989	10.097952	-74.390340	-19.190442			
13898	6.479089	-0.730726	3.982222	-2.280142	-0.677965	-2.552415	9.150496	-74.597673	-18.978381			
13899	7.312600	-1.595097	3.684275	-1.967821	-1.585978	-1.862571	8.339825	-74.821069	-18.704437			
13900	8.126691	-1.701888	3.205596	-1.362169	-1.792167	-1.201775	7.688069	-75.028953	-18.354959			
13901	8.783747	-1.219612	3.138553	-1.073748	-1.346824	-0.564706	7.155636	-75.208036	-18.024657			
13902	9.236670	-0.329813	3.120804	-0.795908	-0.482749	-0.101989	6.689812	-75.339974	-17.680735			
13903	9.814393	0.485191	3.139377	-0.525629	0.300649	0.485210	6.249829	-75.399068	-17.354807			
13904	10.110964	1.182950	3.332874	-0.495209	1.020217	0.838738	5.733321	-75.357988	-16.964079			
13905	10.249727	1.331102	3.174231	-0.257865	1.146219	0.935525	5.193570	-75.244833	-16.586520			
13906	10.174707	1.246613	3.291145	-0.368164	1.108810	0.889890	4.654235	-75.070489	-16.226744			
13907	9.659169	0.721253	3.269834	-0.539387	0.643260	0.375868	4.137623	-74.866283	-15.929549			
13908	9.298912	0.347851	3.366139	-0.755884	0.336658	0.048184	3.657998	-74.660102	-15.639389			
13909	8.741882	-0.009693	3.466255	-1.029852	0.059524	-0.465427	3.254645	-74.476678	-15.429796			
13910	8.360269	-0.321069	3.419829	-1.120417	-0.216331	-0.846629	2.923318	-74.317320	-15.226204			
13911	8.116188	-0.424093	3.363793	-1.129631	-0.302385	-1.094894	2.648307	-74.195568	-15.049361			
13912	8.113291	-0.298371	3.316616	-1.041534	-0.181297	-1.106553	2.382180	-74.117492	-14.817992			
13913	8.305788	-0.102579	3.444278	-1.055631	0.032624	-0.882724	2.073114	-74.069867	-14.571363			
13914	8.444653	-0.080636	3.562460	-1.115613	0.082404	-0.715524	1.712262	-74.042165	-14.289054			
13915	8.668342	-0.023989	3.719587	-1.183743	0.171983	-0.456128	1.338887	-74.030623	-14.032338			
13916	8.814845	0.000862	3.686086	-1.101448	0.197715	-0.323936	0.947432	-74.018989	-13.763961			
13917	8.851345	-0.138847	3.376952	-0.827543	0.011224	-0.374234	0.603509	-74.016670	-13.542660			
13918	8.751976	-0.213638	3.043824	-0.556003	-0.113026	-0.561435	0.367213	-74.020980	-13.382688			
13919	8.535445	-0.499233	2.978859	-0.615925	-0.381794	-0.787638	0.192231	-74.018026	-13.317920			
13920	8.186727	-0.890346	3.001435	-0.819051	-0.727702	-1.116514	0.046677	-74.024961	-13.273732			
13921	7.985322	-1.325532	2.965848	-0.943946	-1.138886	-1.319717	-0.054963	-74.074824	-13.281049			
13922	7.978941	-1.691247	2.834723	-0.918913	-1.516950	-1.362012	-0.093516	-74.173455	-13.292085			
13923	7.852474	-2.105022	2.830800	-1.062830	-1.906705	-1.485579	-0.100207	-74.313866	-13.325655			
13924	7.909419	-2.295300	2.992565	-1.266056	-2.054064	-1.388874	-0.068606	-74.478849	-13.368238			
13925	7.696157	-2.492013	3.022060	-1.420432	-2.221363	-1.589448	0.014672	-74.651907	-13.484488			
13926	7.683366	-2.560704	2.733955	-1.197835	-2.350376	-1.682086	0.201570	-74.866486	-13.651884			
13927	7.922239	-2.430193	2.536223	-0.951923	-2.283744	-1.507363	0.456465	-75.074678	-13.867449			
13928	7.943423	-2.133654	2.244964	-0.632129	-2.066632	-1.565282	0.802491	-75.277105	-14.059768			
13929	8.231349	-1.336402	2.876157	-1.001074	-1.175329	-1.127659	1.122194	-75.488503	-14.237905			
13930	8.430776	-0.709860	3.301830	-1.242351	-0.490131	-0.829357	1.376337	-75.680445	-14.342141			
13931	8.538110	-0.249016	2.071083	0.015641	-0.317919	-1.029221	1.683053	-75.923941	-14.330311			
13932	9.246246	0.772729	2.644613	-0.177840	0.758335	-0.196177	1.828078	-76.172059	-14.113327			
13933	9.324263	0.957207	3.862804	-1.317108	1.190931	0.168604	1.701820	-76.366567	-13.809753			
13934	9.278837	0.899920	3.051366	-0.604109	0.981134	-0.071547	1.627816	-76.559412	-13.481893			
13935	9.591438	1.213006	1.871847	0.621167	1.045524	-0.040695	1.563999	-76.715778	-13.126617			
13936	9.738752	1.107144	1.841922	0.636092	0.943054	0.095275	1.278030	-76.826830	-12.654529			
13937	9.436794	0.577511	2.456527	-0.136717	0.575804	-0.062260	0.793780	-76.903346	-12.128501			
13938	8.986168	-0.063049	2.586893	-0.494606	0.015413	-0.474470	0.243054	-76.962376	-11.554373			
13939	8.548250	-0.895123	2.714285	-0.881838	-0.734324	-0.872650	-0.365149	-77.029495	-10.932130			
13940	8.434845	-2.028849	2.911321	-1.326732	-1.780511	-0.935293	-0.997170	-77.157237	-10.259356			
13941	8.871386	-2.901653	3.481658	-1.965275	-2.520453	-0.377226	-1.639619	-77.353902	-9.531620			
13942	9.693635	-3.577946	3.467969	-1.924680	-3.197027	0.427902	-2.121369	-77.557133	-8.758131			
13943	10.475922	-3.725769	3.956472	-2.263416	-3.274470	1.297432	-2.325121	-77.740323	-8.000235			
13944	11.613973	-3.521665	4.477600	-2.482952	-3.036684	2.514063	-2.284205	-77.882305	-7.220450			
13945	12.776056	-2.992710	4.035600	-1.715568	-2.648578	3.548142	-2.184590	-78.018318	-6.366863			
13946	13.785374	-2.274401	2.525879	0.055963	-2.190615	4.215411	-2.318184	-78.236272	-5.353664			
13947	14.505483	-0.934115	1.688944	1.161778	-0.959519	4.742843	-2.748883	-78.452797	-4.265761			
13948	14.831798	1.074092	2.547740	0.589457	1.172828	5.217402	-3.361965	-78.605455	-3.109463			
13949	15.569172	3.464995	3.843800	-0.300727	3.720730	6.163723	-3.956981	-78.616978	-2.062707			
13950	16.711066	5.484030	3.638943	0.321456	5.726647	7.207252	-4.357251	-78.465758	-1.309529			
13951	17.083792	5.864203	2.855773	1.254515	6.040721	7.401703	-4.431889	-78.071855	-1.108889			
13952	14.361078	4.057393	2.060497	1.426198	4.171827	4.592461	-4.277477	-77.479153	-1.404210			
13953	10.696263	2.088893	1.940721	0.693920	2.205746	1.012836	-4.099672	-76.939433	-1.903339			
13954	8.190028	0.868470	3.058862	-0.981710	1.119879	-1.154227	-3.975820	-76.437063	-2.472897			
13955	6.527755	-0.321856	3.566901	-1.923591	0.014718	-2.619825	-3.874343	-76.000224	-2.985842			
13956	5.720066	-1.534012	3.801430	-2.443968	-1.144046	-3.313357	-3.764721	-75.674635	-3.354556			
13957	5.437133	-2.594755	3.788184	-2.606400	-2.190871	-3.563508	-3.610725	-75.473644	-3.631151			
13958	5.651240	-2.739648	3.882834	-2.649239	-2.330209	-3.326530	-3.425721	-75.417262	-3.765962			
13959	6.281838	-1.989752	3.504363	-2.030968	-1.654323	-2.824160	-3.179803	-75.462590	-3.785189			
13960	6.958782	-0.550099	2.733971	-0.955448	-0.344647	-2.385026	-2.793215	-75.571792	-3.774869			
13961	7.627812	0.761225	2.037986	0.008818	0.851761	-1.926579	-2.266818	-75.708450	-3.817772			
13962	8.206880	2.117403	1.837231	0.453169	2.152778	-1.423903	-1.614532	-75.840422	-3.933500			
13963	8.743786	3.258766	1.634928	0.845172	3.242501	-0.951650	-0.900547	-75.953258	-4.124274			
13964	9.333085	4.087044	1.255928	1.380215	4.008454	-0.463095	-0.232217	-76.022551	-4.338585			
13965	9.786810	4.474461	1.192518	1.546115	4.366343	-0.026522	0.353581	-76.023914	-4.563279			
13966	10.001658	4.483147	1.379858	1.396452	4.368477	0.237291	0.894570	-75.961126	-4.806942			
13967	10.062528	4.312019	1.438885	1.337573	4.181847	0.318520	1.434885	-75.846393	-5.107953			
13968	9.894475	4.044648	1.554841	1.172854	3.905623	0.189703	1.961385	-75.701755	-5.435085			
13969	9.433695	3.778977	1.879557	0.741922	3.648338	-0.171778	2.468594	-75.554786	-5.798638			
13970	9.065798	3.524556	1.965725	0.564410	3.387716	-0.502476	2.933156	-75.442036	-6.155890			
13971	8.889390	3.328233	2.094216	0.395070	3.184119	-0.637209	3.357041	-75.359138	-6.527302			
13972	8.724857	2.982679	1.979045	0.451898	2.820938	-0.825241	3.746205	-75.317917	-6.906386			
13973	8.687193	2.619903	2.005697	0.398493	2.445797	-0.856500	4.110432	-75.319658	-7.304536			
13974	8.765650	2.152714	1.968585	0.422948	1.961314	-0.794901	4.457676	-75.369336	-7.702543			
13975	8.910229	1.857820	1.925839	0.472984	1.647208	-0.668537	4.784519	-75.456638	-8.106864			
13976	9.183464	1.601879	1.805265	0.625097	1.365597	-0.436901	5.047185	-75.587633	-8.465763			
13977	9.594126	1.415574	1.723662	0.770379	1.151971	-0.060686	5.277805	-75.752960	-8.830378			
13978	10.039401	1.183361	1.568197	0.985168	0.887624	0.330815	5.500398	-75.935288	-9.199267			
13979	10.384716	0.892365	1.380802	1.197989	0.565040	0.617591	5.719276	-76.121338	-9.598130			
13980	10.598841	0.645574	1.318443	1.258770	0.298137	0.808847	5.955671	-76.294430	-10.030425			
13981	10.570484	0.448553	1.343693	1.182748	0.093857	0.786089	6.229709	-76.442027	-10.526552			
