// General information: 
//  MT Manager version: 2022.0.0 
//  XDA version: 2022.0.0 build 7085 rev 119802 built on 2022-11-08
// Device information: 
//  DeviceId: 00B4938D
//  ProductCode: MTW2-3A7G6
//  Firmware Version: 4.6.0
//  Hardware Version: 2.0.0
// Device settings: 
//  Filter Profile: human(46.1)
//  Option Flags: Orientation Smoother Disabled, Position/Velocity Smoother Disabled, Continuous Zero Rotation Update Disabled, AHS Disabled, ICC Disabled
// Coordinate system: ENU
PacketCounter	Acc_X	Acc_Y	Acc_Z	FreeAcc_E	FreeAcc_N	FreeAcc_U	Roll	Pitch	Yaw	Vel_E	Vel_N	Vel_U
12890	9.485300	-0.290240	2.547326	-0.077230	-0.397613	0.004643	-14.438383	-73.873458	-161.918560			
12891	9.390289	-0.357747	2.430266	-0.168602	-0.329571	-0.113478	-14.507974	-73.867894	-161.888461			
12892	9.374478	-0.329315	2.470586	-0.122359	-0.357966	-0.119908	-14.600479	-73.872492	-161.834678			
12893	9.347914	-0.321739	2.535555	-0.050489	-0.364128	-0.128632	-14.711044	-73.879179	-161.771328			
12894	9.399607	-0.316861	2.515769	-0.079323	-0.379080	-0.084783	-14.837058	-73.894266	-161.708905			
12895	9.468390	-0.382409	2.470195	-0.142467	-0.326099	-0.026377	-14.932377	-73.909567	-161.675810			
12896	9.533171	-0.374086	2.526546	-0.101446	-0.339823	0.050322	-14.984085	-73.920946	-161.683741			
12897	9.488883	-0.431024	2.392839	-0.221625	-0.286617	-0.023964	-15.001993	-73.920034	-161.730470			
12898	9.452598	-0.434072	2.352097	-0.251396	-0.282847	-0.069526	-15.020904	-73.919151	-161.790204			
12899	9.435855	-0.422338	2.307508	-0.289365	-0.295176	-0.098395	-15.030453	-73.923723	-161.869436			
12900	9.532178	-0.474333	2.281989	-0.340693	-0.252076	-0.008848	-15.038430	-73.942529	-161.954676			
12901	9.680837	-0.495828	2.324191	-0.337971	-0.239970	0.146956	-15.026579	-73.963672	-162.062169			
12902	9.845528	-0.547726	2.324434	-0.380781	-0.199457	0.309201	-14.992229	-73.987536	-162.181826			
12903	9.906899	-0.579305	2.343268	-0.378975	-0.168645	0.375595	-14.927723	-73.998984	-162.328120			
12904	9.857580	-0.624359	2.374903	-0.337418	-0.114190	0.339897	-14.851041	-74.007035	-162.476546			
12905	9.731277	-0.602572	2.428967	-0.252672	-0.118941	0.231353	-14.747336	-73.999158	-162.639978			
12906	9.565838	-0.609432	2.491257	-0.152128	-0.091532	0.089408	-14.632515	-73.992244	-162.807147			
12907	9.432062	-0.514856	2.460835	-0.143652	-0.170399	-0.053850	-14.505807	-73.993331	-162.982331			
12908	9.380012	-0.479615	2.462237	-0.127251	-0.195054	-0.105833	-14.375743	-74.005830	-163.162732			
12909	9.466428	-0.419862	2.470068	-0.139456	-0.253285	-0.024574	-14.191157	-74.024339	-163.378087			
12910	9.630312	-0.404291	2.544105	-0.111299	-0.268464	0.151968	-13.928056	-74.031887	-163.652718			
12911	9.625575	-0.397925	2.492582	-0.162951	-0.263431	0.133520	-13.650543	-74.029981	-163.963748			
12912	9.516610	-0.440068	2.521846	-0.111147	-0.200272	0.039559	-13.412332	-74.034934	-164.257774			
12913	9.409688	-0.523344	2.564906	-0.047265	-0.097550	-0.046260	-13.213888	-74.047703	-164.533775			
12914	9.176472	-0.611464	2.571923	0.018901	0.016482	-0.263045	-13.061919	-74.082095	-164.767215			
12915	9.021295	-0.642055	2.562327	0.054139	0.066168	-0.412996	-12.918196	-74.132812	-164.997865			
12916	8.902183	-0.612183	2.661775	0.190645	0.056254	-0.503060	-12.760694	-74.200042	-165.233472			
12917	8.811166	-0.638858	2.841550	0.395399	0.104279	-0.541659	-12.543143	-74.272167	-165.517182			
12918	8.868109	-0.702158	2.980739	0.520359	0.180544	-0.446910	-12.232259	-74.338012	-165.876319			
12919	8.903163	-0.755366	3.023895	0.556266	0.249602	-0.399449	-11.826111	-74.392107	-166.324915			
12920	9.101274	-0.882288	3.118800	0.594857	0.387548	-0.177624	-11.302890	-74.439992	-166.880774			
12921	9.316664	-0.948616	3.197476	0.612680	0.469888	0.052793	-10.646013	-74.474589	-167.549306			
12922	9.625132	-1.044938	3.287105	0.612114	0.584215	0.376719	-9.851814	-74.487989	-168.333408			
12923	9.908053	-1.107043	3.182927	0.426253	0.668084	0.622728	-8.954609	-74.468727	-169.199707			
12924	10.076224	-1.065405	3.237642	0.421985	0.664016	0.795258	-7.971614	-74.424659	-170.096991			
12925	10.146914	-0.943295	3.273086	0.423403	0.588395	0.866125	-6.932587	-74.369434	-171.012859			
12926	10.138538	-0.859443	3.221383	0.359742	0.553888	0.839517	-5.894516	-74.308649	-171.901557			
12927	10.058100	-0.573966	3.682275	0.814054	0.340183	0.877273	-4.794195	-74.217896	-172.778714			
12928	9.695823	-0.092710	3.843740	1.061973	-0.066589	0.563216	-3.695470	-74.088708	-173.617005			
12929	9.347613	0.520255	3.839275	1.153769	-0.613988	0.221260	-2.620045	-73.944776	-174.429775			
12930	9.288729	1.051194	4.018023	1.342658	-1.080589	0.215238	-1.568709	-73.794523	-175.231639			
12931	9.212436	1.533794	4.079131	1.422547	-1.503641	0.166086	-0.510998	-73.630705	-176.053916			
12932	9.491311	1.910727	4.030454	1.293653	-1.834045	0.431474	0.515656	-73.469815	-176.869712			
12933	9.829333	2.179060	3.829957	0.993311	-2.067580	0.712084	1.451302	-73.284705	-177.638939			
12934	10.060785	2.414672	3.800318	0.880147	-2.259450	0.939632	2.294313	-73.074613	-178.330701			
12935	10.308046	2.502527	3.898832	0.867987	-2.298266	1.218343	3.034117	-72.833784	-178.931497			
12936	10.388152	2.475426	3.830728	0.732978	-2.238805	1.285336	3.605647	-72.577770	-179.394925			
12937	10.474901	2.295955	3.659170	0.481875	-2.045260	1.321447	3.971930	-72.312260	-179.717884			
12938	10.449706	2.023901	3.543661	0.309860	-1.766602	1.261289	4.154583	-72.048356	-179.896711			
12939	10.346365	1.811720	3.499315	0.231924	-1.552153	1.146856	4.180100	-71.772672	-179.947496			
12940	10.160792	1.440170	3.350585	0.071105	-1.196533	0.916023	4.028289	-71.503836	-179.841306			
12941	9.946381	1.136895	3.409504	0.122720	-0.901930	0.723867	3.763075	-71.231894	-179.614255			
12942	9.616886	0.962790	3.478979	0.233478	-0.741120	0.429908	3.409412	-70.962497	-179.292832			
12943	9.103803	0.816727	3.375323	0.246851	-0.622611	-0.092076	3.009412	-70.703993	-178.929748			
12944	8.809713	0.772529	3.343946	0.271889	-0.601256	-0.381131	2.631824	-70.481250	-178.567756			
12945	8.580256	0.783220	3.374606	0.343140	-0.626927	-0.587109	2.332319	-70.270719	-178.255736			
12946	8.382799	0.916300	3.414287	0.425419	-0.769183	-0.757546	2.131498	-70.080524	-178.016629			
12947	8.366999	0.985927	3.406052	0.399364	-0.848026	-0.773815	2.013318	-69.897944	-177.832833			
12948	8.298718	1.192607	3.594119	0.587954	-1.045390	-0.770002	1.951140	-69.733550	-177.696974			
12949	8.313634	1.313805	3.606920	0.578915	-1.167623	-0.748807	1.943220	-69.572235	-177.625546			
12950	8.323486	1.420904	3.721087	0.666682	-1.267074	-0.696993	1.941746	-69.419807	-177.571911			
12951	8.443259	1.449042	3.915232	0.784982	-1.282499	-0.514497	1.956268	-69.277410	-177.541283			
12952	8.557764	1.443929	4.104661	0.897920	-1.264853	-0.338388	1.964139	-69.122944	-177.486959			
12953	8.423123	1.461700	3.779045	0.618159	-1.306398	-0.578084	1.916434	-68.950634	-177.401884			
12954	8.282434	1.389296	3.567654	0.441995	-1.252306	-0.785322	1.843456	-68.796774	-177.280908			
12955	8.217125	1.439375	3.742880	0.610873	-1.292331	-0.781697	1.763821	-68.660965	-177.125304			
12956	8.081698	1.488761	3.857195	0.753288	-1.336202	-0.865324	1.636679	-68.547789	-176.907316			
12957	8.070736	1.659457	3.982453	0.873647	-1.503437	-0.827872	1.485280	-68.453660	-176.661862			
12958	8.038242	1.807634	4.029416	0.932514	-1.655898	-0.840203	1.289870	-68.387388	-176.376626			
12959	8.188665	2.002430	4.057988	0.914590	-1.862261	-0.689819	1.061171	-68.340452	-176.072093			
12960	8.384852	2.110533	4.133368	0.920137	-1.982716	-0.481718	0.792459	-68.318937	-175.743778			
12961	8.657166	2.166065	4.229208	0.913677	-2.054530	-0.196627	0.469576	-68.304506	-175.391554			
12962	8.845744	2.143916	4.180274	0.799084	-2.064304	-0.044458	0.075597	-68.303651	-175.009302			
12963	8.978356	2.070804	4.138675	0.706802	-2.025307	0.057785	-0.368220	-68.297516	-174.603559			
12964	8.974538	1.972287	4.130839	0.694753	-1.958633	0.045155	-0.885102	-68.301623	-174.152753			
12965	8.844456	1.917073	4.165980	0.773341	-1.929958	-0.069379	-1.447247	-68.313117	-173.682054			
12966	8.559239	1.949454	4.001181	0.735623	-1.999888	-0.403672	-2.060380	-68.362921	-173.182013			
12967	8.465979	1.998523	4.221110	0.990429	-2.063738	-0.418830	-2.646455	-68.453365	-172.717592			
12968	8.510605	2.057458	4.582055	1.332500	-2.132676	-0.255765	-3.195292	-68.572041	-172.306228			
12969	8.608369	2.079760	4.583507	1.319494	-2.190349	-0.174267	-3.672808	-68.691427	-171.992048			
12970	8.692800	2.143794	4.467104	1.205997	-2.295068	-0.148642	-4.128641	-68.831086	-171.742300			
12971	8.857952	2.136890	4.285039	0.996967	-2.334302	-0.068552	-4.541958	-68.987757	-171.589276			
12972	8.980505	2.182953	4.358439	1.046800	-2.407868	0.062384	-4.943469	-69.159188	-171.480058			
12973	9.121766	2.260454	4.537802	1.190204	-2.507172	0.247398	-5.305072	-69.329188	-171.436971			
12974	9.130334	2.405570	4.853099	1.509294	-2.662584	0.352692	-5.646773	-69.485222	-171.440336			
12975	8.881355	2.572892	4.708047	1.480802	-2.848045	0.054416	-5.987040	-69.626068	-171.497377			
12976	8.661747	2.790131	4.651813	1.521187	-3.083070	-0.188205	-6.339372	-69.765416	-171.581486			
12977	8.695309	2.759673	5.167085	1.997627	-3.066829	0.012124	-6.610831	-69.930238	-171.739750			
12978	9.390398	2.530736	5.081711	1.683253	-2.897811	0.636106	-6.802981	-70.103831	-171.991994			
12979	10.262907	2.135886	4.754569	1.081420	-2.564062	1.356524	-6.911041	-70.265102	-172.334345			
12980	11.566152	1.267654	4.511680	0.420997	-1.762887	2.534498	-6.946923	-70.469047	-172.723790			
12981	12.654874	0.645705	4.567231	0.137835	-1.181222	3.604017	-6.860043	-70.665833	-173.181104			
12982	12.721377	0.126908	4.227211	-0.170914	-0.652739	3.576243	-6.799944	-70.842029	-173.599890			
12983	12.046842	-0.611315	4.170199	0.030608	0.121813	2.949553	-6.696837	-71.001692	-174.008877			
12984	11.824064	-1.413758	3.943698	-0.071666	0.947195	2.695611	-6.546094	-71.143081	-174.404107			
12985	12.439124	-2.448541	3.010255	-1.106819	2.003191	3.015047	-6.258168	-71.303462	-174.816776			
12986	13.764799	-3.700708	3.322199	-1.183268	3.235109	4.411790	-5.948507	-71.432795	-175.111549			
12987	14.244292	-4.869053	3.592825	-1.050648	4.403464	4.986689	-5.808598	-71.428946	-175.231737			
12988	13.071752	-5.022125	2.944164	-1.309329	4.607653	3.671215	-5.738667	-71.306758	-175.238791			
12989	10.780889	-3.040544	2.986236	-0.595427	2.690437	1.447731	-5.621522	-71.165320	-175.231304			
12990	8.355753	-0.766034	3.865475	0.971336	0.466917	-0.637406	-5.621993	-71.075000	-175.140690			
12991	6.555050	0.080529	4.143539	1.798420	-0.339584	-2.276479	-5.837535	-71.019707	-174.966354			
12992	5.641729	0.350345	3.277648	1.270800	-0.580182	-3.429642	-6.204580	-71.033657	-174.711681			
12993	5.669054	-0.128035	2.802374	0.823230	-0.109292	-3.542266	-6.678802	-71.122163	-174.409918			
12994	6.592565	-0.905276	2.511947	0.278395	0.625929	-2.733002	-7.216418	-71.281338	-174.078421			
12995	7.612536	-1.712388	1.973847	-0.516677	1.393297	-1.902524	-7.796773	-71.457571	-173.740926			
12996	8.422430	-2.304648	1.829935	-0.863004	1.939411	-1.147173	-8.394591	-71.633285	-173.367381			
12997	9.090838	-2.907942	1.805105	-1.046964	2.497455	-0.484005	-8.901376	-71.787614	-173.026414			
12998	9.626333	-3.547254	1.730850	-1.233794	3.099481	0.042057	-9.318530	-71.923970	-172.734161			
12999	9.912521	-3.903869	1.783507	-1.232945	3.427643	0.356392	-9.621645	-72.045314	-172.504436			
13000	9.650414	-3.955532	2.001508	-0.920078	3.467398	0.182978	-9.905460	-72.146955	-172.236951			
13001	8.938618	-3.518186	1.979607	-0.720535	3.048784	-0.518545	-10.197441	-72.244029	-171.906685			
13002	8.412261	-2.617403	2.213137	-0.349283	2.149752	-0.993875	-10.485471	-72.359616	-171.513654			
13003	8.237939	-1.600857	2.411956	-0.118273	1.125972	-1.154623	-10.680867	-72.487868	-171.174789			
13004	8.414478	-0.734989	2.619287	0.026331	0.240790	-0.972687	-10.811832	-72.626983	-170.911693			
13005	8.714059	-0.217781	2.770754	0.093089	-0.296020	-0.671407	-10.875668	-72.761788	-170.750402			
13006	8.989399	0.026663	2.675692	-0.060885	-0.548330	-0.449732	-10.889249	-72.892021	-170.671960			
13007	9.229210	-0.007828	2.500800	-0.275998	-0.515326	-0.268548	-10.857724	-73.021615	-170.672194			
13008	9.368885	-0.328558	2.459076	-0.328382	-0.194751	-0.128412	-10.791051	-73.154451	-170.717634			
13009	9.314831	-0.650508	2.353245	-0.387440	0.139976	-0.192020	-10.710075	-73.284656	-170.788760			
13010	9.178090	-0.912990	2.216687	-0.453242	0.419945	-0.346814	-10.626958	-73.419519	-170.860460			
13011	9.047469	-1.015619	2.158094	-0.450374	0.537807	-0.482444	-10.533665	-73.551326	-170.909691			
13012	8.925935	-0.943437	2.043910	-0.506115	0.481431	-0.633799	-10.458369	-73.694458	-170.916407			
13013	8.785833	-0.759943	1.999184	-0.491269	0.312345	-0.789043	-10.382852	-73.849858	-170.897994			
13014	8.779421	-0.397839	2.149235	-0.325462	-0.047617	-0.771257	-10.345305	-74.023413	-170.814330			
13015	8.767326	-0.015152	2.140931	-0.307590	-0.424468	-0.802972	-10.355645	-74.204642	-170.683331			
13016	8.843760	0.311079	2.213574	-0.230636	-0.752779	-0.724849	-10.414763	-74.401861	-170.512457			
13017	9.007290	0.537222	2.107440	-0.345852	-0.981327	-0.605165	-10.478049	-74.596648	-170.346006			
13018	9.082556	0.636579	1.994991	-0.440966	-1.079377	-0.565070	-10.516973	-74.796941	-170.205937			
13019	9.093271	0.629728	1.929344	-0.473898	-1.067524	-0.569191	-10.504162	-74.992881	-170.117368			
13020	9.151321	0.592770	1.806812	-0.573569	-1.025799	-0.540078	-10.466338	-75.191980	-170.048374			
13021	9.274484	0.554298	1.876504	-0.504711	-0.986400	-0.399040	-10.369341	-75.380891	-170.028904			
13022	9.438902	0.536683	1.908345	-0.483190	-0.968024	-0.228740	-10.255253	-75.559074	-170.013017			
13023	9.567993	0.504873	2.035017	-0.363302	-0.934021	-0.069062	-10.131553	-75.715446	-169.991835			
13024	9.668966	0.547690	2.172370	-0.228539	-0.974827	0.061799	-10.059007	-75.842995	-169.910989			
13025	9.607477	0.653069	2.237683	-0.128804	-1.072942	0.014292	-10.050491	-75.938380	-169.774493			
13026	9.620400	0.590465	2.336549	-0.019657	-1.010930	0.053305	-10.145435	-76.003398	-169.542500			
13027	9.557856	0.574776	2.267424	-0.060758	-0.996433	-0.023530	-10.324863	-76.035498	-169.237860			
13028	9.425643	0.584041	2.296394	0.006148	-1.008237	-0.146215	-10.583779	-76.039073	-168.849097			
13029	9.229858	0.539560	2.287122	0.044924	-0.966110	-0.337619	-10.895538	-76.008149	-168.408988			
13030	8.980039	0.491007	2.166704	-0.015088	-0.921084	-0.607898	-11.271636	-75.956433	-167.912071			
13031	8.711722	0.569122	2.313991	0.188642	-1.000562	-0.838512	-11.675782	-75.883840	-167.392371			
13032	8.726649	0.520574	2.277260	0.142723	-0.971683	-0.832334	-12.127879	-75.807401	-166.856363			
13033	8.738115	0.511608	2.393088	0.244241	-0.982085	-0.794978	-12.604792	-75.712530	-166.337865			
13034	8.941395	0.549766	2.252404	0.049755	-1.056719	-0.636364	-13.132959	-75.604939	-165.818713			
13035	9.120454	0.440082	2.055256	-0.200641	-0.985554	-0.507378	-13.688207	-75.482602	-165.321821			
13036	9.224338	0.448650	1.789699	-0.497539	-1.030673	-0.475514	-14.271892	-75.357245	-164.832173			
13037	9.316735	0.505262	1.653681	-0.665742	-1.121015	-0.426978	-14.822902	-75.236243	-164.389359			
13038	9.385879	0.600411	1.537675	-0.806274	-1.246824	-0.399136	-15.339907	-75.134289	-163.979398			
13039	9.400132	0.767940	1.573337	-0.783113	-1.436811	-0.391972	-15.779028	-75.052613	-163.644241			
13040	9.475196	0.722803	1.541726	-0.839560	-1.416346	-0.327553	-16.180094	-75.012993	-163.333706			
13041	9.714648	0.655499	1.620218	-0.823968	-1.382299	-0.074131	-16.531803	-75.016471	-163.039929			
13042	10.092264	0.556082	1.624030	-0.907141	-1.325491	0.297735	-16.885196	-75.059943	-162.703136			
13043	10.523536	0.715625	1.623844	-0.995807	-1.529968	0.702127	-17.228904	-75.131106	-162.324424			
13044	10.985811	0.813009	1.530947	-1.175776	-1.677247	1.118788	-17.632573	-75.214975	-161.848127			
13045	11.288179	0.977329	1.523162	-1.229850	-1.882048	1.396392	-18.074460	-75.285858	-161.297660			
13046	11.563703	1.024137	1.903019	-0.901411	-1.971901	1.749688	-18.565733	-75.347400	-160.656429			
13047	11.773846	1.032530	2.106546	-0.729519	-2.018435	1.999202	-19.015137	-75.394369	-160.040641			
13048	11.972358	0.921501	1.950875	-0.909666	-1.946988	2.161206	-19.402521	-75.419112	-159.480879			
13049	11.959498	0.742868	2.030245	-0.818098	-1.783801	2.181147	-19.663405	-75.443373	-159.033078			
13050	11.959873	0.472211	2.130614	-0.713650	-1.525265	2.227467	-19.867735	-75.479307	-158.656497			
13051	11.758080	0.233295	2.241130	-0.550814	-1.275266	2.078478	-20.080813	-75.537057	-158.300815			
13052	11.566339	-0.120399	2.282791	-0.458391	-0.912955	1.933043	-20.371238	-75.620746	-157.917942			
13053	11.360374	-0.689571	2.234361	-0.454353	-0.336017	1.772068	-20.755831	-75.742697	-157.508516			
13054	11.318055	-1.315951	2.172511	-0.492910	0.281407	1.772976	-21.250932	-75.926388	-157.060065			
13055	11.378072	-1.841968	1.751274	-0.887003	0.787800	1.785271	-21.734214	-76.176594	-156.689535			
13056	11.474230	-2.169395	1.414832	-1.187493	1.103068	1.838009	-22.115349	-76.467371	-156.454375			
13057	11.308514	-3.041949	1.656877	-0.880731	2.006641	1.809639	-22.264871	-76.784607	-156.442221			
13058	10.863970	-3.830401	1.690863	-0.715451	2.857377	1.451414	-22.193530	-77.094303	-156.643078			
13059	9.971632	-4.852049	1.673976	-0.524292	3.986190	0.656941	-21.825244	-77.386166	-157.071724			
13060	8.860811	-5.428394	1.726084	-0.229608	4.692206	-0.384481	-21.115311	-77.637154	-157.709843			
13061	8.038053	-5.588928	1.832639	0.042836	4.961651	-1.176429	-20.041581	-77.833487	-158.537780			
13062	7.590506	-5.017761	2.316215	0.607585	4.480626	-1.583892	-18.735497	-77.980271	-159.408214			
13063	7.784208	-3.890633	2.437272	0.704327	3.396952	-1.467897	-17.257279	-78.088961	-160.359828			
13064	8.157527	-2.847457	2.402916	0.621098	2.384555	-1.189749	-15.686655	-78.187476	-161.370881			
13065	8.783937	-1.617496	2.771654	0.912117	1.196493	-0.582738	-13.935747	-78.290474	-162.566683			
13066	9.394497	-0.452491	3.429578	1.507847	0.106861	0.083666	-12.149598	-78.398907	-163.856167			
13067	10.068936	0.695344	3.914053	1.936842	-0.966628	0.793942	-10.431339	-78.477410	-165.222576			
13068	10.506005	1.499989	4.114502	2.113242	-1.706423	1.240692	-8.923773	-78.524155	-166.544346			
13069	10.976935	1.686368	4.024126	1.943318	-1.862656	1.688805	-7.603904	-78.534085	-167.854806			
13070	11.264618	1.285680	3.739996	1.559204	-1.453121	1.934198	-6.497897	-78.476508	-169.132047			
13071	11.492042	0.437078	3.264289	0.950897	-0.617346	2.088075	-5.550747	-78.339266	-170.358362			
13072	11.236499	-0.459700	2.883507	0.518849	0.284137	1.781908	-4.776295	-78.094300	-171.450944			
13073	10.686514	-1.237746	2.262974	-0.081601	1.055566	1.129593	-4.239619	-77.780018	-172.365888			
13074	10.086283	-1.697042	1.685079	-0.603653	1.508892	0.425043	-3.906798	-77.408280	-173.078124			
13075	9.211554	-1.803148	1.643256	-0.517702	1.642764	-0.440526	-3.632784	-77.015020	-173.661263			
13076	8.701382	-1.644092	1.738431	-0.356133	1.506286	-0.922058	-3.334825	-76.657906	-174.189475			
13077	8.313318	-1.291542	1.927520	-0.115344	1.178896	-1.263338	-2.933278	-76.335704	-174.754834			
13078	7.990855	-0.875816	2.206140	0.204056	0.792085	-1.516986	-2.439246	-76.031388	-175.369278			
13079	7.927036	-0.306389	2.487276	0.471133	0.249678	-1.516071	-1.828646	-75.740590	-176.083582			
13080	7.928639	0.235328	2.675904	0.631067	-0.266806	-1.469454	-1.172100	-75.462123	-176.856523			
13081	7.975846	0.613979	2.749384	0.660640	-0.622916	-1.402839	-0.504233	-75.188287	-177.660166			
13082	8.198374	0.793128	2.700561	0.520175	-0.785090	-1.195943	0.104480	-74.931982	-178.425591			
13083	8.429138	0.848042	2.645290	0.367603	-0.823092	-0.983512	0.629756	-74.695252	-179.120506			
13084	8.754714	0.716337	2.749302	0.339909	-0.672507	-0.639418	1.046926	-74.473204	-179.714712			
13085	8.800452	0.457354	2.692435	0.230143	-0.399825	-0.609786	1.380000	-74.260618	179.781504			
13086	8.771549	0.335371	2.698438	0.207590	-0.266072	-0.635535	1.620432	-74.062054	179.375694			
13087	8.581010	0.239420	2.666399	0.195487	-0.162098	-0.827357	1.804711	-73.865090	179.043433			
13088	8.145806	0.392843	2.684593	0.306125	-0.311659	-1.238038	1.896581	-73.676869	178.817421			
13089	7.792233	0.527511	2.717411	0.411022	-0.445827	-1.565644	1.910821	-73.504648	178.679036			
13090	7.490954	0.699778	2.682458	0.441556	-0.622487	-1.861766	1.822044	-73.365947	178.644669			
13091	7.264550	0.858846	2.638862	0.447633	-0.789692	-2.089289	1.610876	-73.266876	178.730895			
13092	7.222406	0.955038	2.585996	0.397439	-0.897941	-2.144680	1.269835	-73.210692	178.948650			
13093	7.278210	1.014772	2.536780	0.328005	-0.973242	-2.106681	0.824098	-73.202673	179.281104			
13094	7.408220	1.156300	2.369251	0.130908	-1.134678	-2.032749	0.274154	-73.244878	179.728961			
13095	7.586152	1.315248	2.400348	0.115947	-1.316783	-1.856946	-0.357732	-73.325607	-179.740807			
13096	7.784306	1.457404	2.470938	0.138733	-1.487368	-1.652211	-1.100448	-73.445875	-179.136557			
13097	8.019086	1.535764	2.860416	0.461004	-1.601223	-1.323299	-1.922858	-73.590604	-178.501535			
13098	8.305526	1.482570	3.520412	1.032077	-1.596601	-0.870733	-2.882766	-73.749347	-177.841363			
13099	8.880782	1.038628	3.465296	0.844379	-1.204047	-0.336804	-3.812311	-73.928997	-177.290707			
13100	9.827347	0.949193	3.357245	0.504424	-1.163697	0.538160	-4.410389	-74.083773	-177.003025			
13101	10.349550	1.224224	3.774995	0.771928	-1.482528	1.144899	-4.734752	-74.153969	-176.992258			
13102	10.631087	1.098252	3.738888	0.664169	-1.379007	1.406165	-4.992144	-74.165768	-177.131179			
13103	10.776813	0.693425	3.069989	-0.014522	-0.963756	1.372853	-5.159147	-74.139349	-177.408311			
13104	10.734241	0.383794	2.752758	-0.308873	-0.644201	1.252505	-5.199846	-74.080129	-177.795750			
13105	10.481296	0.445386	2.753584	-0.260909	-0.700560	1.007629	-5.131385	-73.991177	-178.254168			
13106	10.055208	0.659830	2.958925	0.021630	-0.918505	0.649324	-5.011022	-73.918812	-178.712705			
13107	9.649829	1.193821	3.235840	0.348700	-1.460491	0.324394	-4.831165	-73.868551	-179.177596			
13108	9.316156	1.832514	3.547214	0.682228	-2.111838	0.077019	-4.630898	-73.844664	-179.636515			
13109	9.147119	2.520881	4.031112	1.131024	-2.828303	0.035966	-4.429817	-73.853695	179.915972			
13110	9.651612	2.767377	4.445073	1.360733	-3.102699	0.632040	-4.230463	-73.910205	179.442708			
13111	10.771671	2.954669	4.586934	1.163630	-3.294096	1.745592	-4.031920	-73.960570	178.907889			
13112	11.485299	2.664479	3.801336	0.234285	-2.929367	2.221664	-3.966776	-74.055660	178.418375			
13113	12.820092	1.816969	3.897070	0.052376	-2.079053	3.548376	-3.799224	-74.237317	177.883129			
13114	13.817025	1.194194	4.618029	0.564175	-1.519492	4.714365	-3.736874	-74.396102	177.420907			
13115	13.807934	0.041706	3.735225	-0.127213	-0.287410	4.488146	-4.001631	-74.512180	177.120530			
13116	14.025599	-0.711034	3.842702	0.024272	0.427833	4.740857	-4.374597	-74.542718	176.871886			
13117	13.652334	-1.024007	3.090347	-0.560284	0.812930	4.187678	-4.612577	-74.428513	176.512839			
13118	13.215366	-1.730899	2.090988	-1.318197	1.643502	3.513053	-4.684694	-74.292374	176.145727			
13119	13.671478	-3.650414	2.406957	-0.881145	3.518078	4.075255	-4.460172	-74.172946	175.788862			
13120	13.813740	-5.945485	2.621539	-0.407982	5.779645	4.310687	-4.135810	-74.016410	175.549555			
13121	13.016614	-6.677628	2.388929	-0.358900	6.537765	3.486123	-4.058714	-73.763732	175.555194			
13122	10.681955	-4.706237	2.666518	0.208892	4.495532	1.282782	-4.332567	-73.480527	175.803621			
13123	8.169925	-1.664438	3.471978	1.197350	1.305150	-0.956307	-4.690809	-73.243838	176.104678			
13124	6.109683	0.337777	3.575500	1.566311	-0.745725	-2.941224	-5.141468	-73.064823	176.481790			
13125	4.748710	1.000713	3.354953	1.635839	-1.410938	-4.322641	-5.754986	-72.929088	176.926589			
13126	4.064573	0.630495	2.838752	1.389540	-0.999833	-5.117345	-6.486956	-72.848707	177.375809			
13127	4.378165	-0.364712	2.403862	1.033213	0.032029	-4.912556	-7.194387	-72.849196	177.747075			
13128	5.759982	-1.082707	2.469680	0.807937	0.722278	-3.545754	-7.783227	-72.935159	178.015546			
13129	7.217760	-1.735224	2.145637	0.199196	1.413306	-2.218372	-8.254710	-73.053438	178.168409			
13130	8.442451	-2.704901	1.664207	-0.418848	2.446059	-1.140762	-8.611098	-73.196924	178.212604			
13131	9.670676	-3.708930	1.550115	-0.672571	3.454676	0.051072	-8.804505	-73.316105	178.165945			
13132	10.104106	-4.371489	1.519258	-0.677781	4.108910	0.491119	-8.940727	-73.393363	178.128228			
13133	10.519190	-4.910103	1.878480	-0.339459	4.569712	1.017531	-9.044977	-73.456435	178.157538			
13134	10.368256	-4.565415	1.979038	-0.251725	4.202988	0.889268	-9.223833	-73.509808	178.349953			
13135	9.580294	-3.628070	2.174450	-0.009251	3.227290	0.150126	-9.507655	-73.563661	178.722092			
13136	8.913368	-2.424442	2.361071	0.143540	1.988607	-0.489303	-9.942330	-73.635201	179.262859			
13137	8.521412	-1.230912	2.426128	0.110763	0.781303	-0.902415	-10.451366	-73.710927	179.877680			
13138	8.330092	-0.366804	2.624998	0.211009	-0.126172	-1.074547	-10.943764	-73.788289	-179.547806			
13139	8.038361	0.063930	2.455748	0.070241	-0.537530	-1.424833	-11.397582	-73.877535	-179.056759			
13140	7.853313	0.230831	2.257079	-0.079293	-0.680225	-1.666941	-11.729697	-73.995900	-178.711249			
13141	7.984666	0.117492	2.219257	-0.112197	-0.572791	-1.545095	-11.933447	-74.145344	-178.510655			
13142	8.489309	-0.272933	1.940029	-0.421916	-0.147868	-1.111731	-12.067055	-74.322917	-178.382836			
13143	8.831906	-0.768951	1.936038	-0.405220	0.334059	-0.753646	-12.156431	-74.494575	-178.275997			
13144	8.928550	-1.318971	1.837733	-0.401766	0.888234	-0.653784	-12.268136	-74.664646	-178.128879			
13145	9.099376	-1.697979	1.702509	-0.483768	1.278652	-0.500799	-12.431517	-74.831201	-177.892370			
13146	9.221611	-1.950165	1.679827	-0.468356	1.519875	-0.371627	-12.726196	-75.003556	-177.474276			
13147	9.395388	-1.939428	1.528664	-0.634683	1.518625	-0.238639	-13.152897	-75.166502	-176.883943			
13148	9.557538	-1.690693	1.614919	-0.612122	1.234342	-0.070277	-13.707673	-75.323324	-176.107522			
13149	9.672453	-1.354952	1.678110	-0.613809	0.863911	0.040489	-14.349465	-75.457517	-175.207024			
13150	9.602561	-0.891159	1.536434	-0.783729	0.401876	-0.087045	-15.040626	-75.579782	-174.228585			
13151	9.490303	-0.517363	1.547110	-0.782747	0.003467	-0.215071	-15.708242	-75.677995	-173.252327			
13152	9.395830	-0.119728	1.589943	-0.757280	-0.422659	-0.322079	-16.352430	-75.763556	-172.281304			
13153	9.385215	0.157053	1.770022	-0.601175	-0.750684	-0.309274	-16.944297	-75.837276	-171.351495			
13154	9.424224	0.366965	1.808897	-0.581718	-0.990816	-0.278403	-17.521922	-75.897496	-170.453520			
13155	9.570563	0.558222	1.791280	-0.640387	-1.208002	-0.156263	-18.066727	-75.937535	-169.599389			
13156	9.525445	0.568652	1.868595	-0.541129	-1.250800	-0.185032	-18.575319	-75.951171	-168.795015			
13157	9.520006	0.555685	1.834673	-0.560180	-1.256476	-0.199533	-19.090782	-75.940156	-167.995415			
13158	9.478210	0.435789	1.860904	-0.504149	-1.163659	-0.227229	-19.630695	-75.905774	-167.179635			
13159	9.486694	0.427453	1.744716	-0.614294	-1.167530	-0.247983	-20.178771	-75.845651	-166.346561			
13160	9.474762	0.316561	1.884642	-0.464384	-1.102381	-0.221429	-20.778893	-75.765398	-165.443562			
13161	9.524833	0.233646	1.954121	-0.403112	-1.061135	-0.153130	-21.365006	-75.669857	-164.538585			
13162	9.465635	0.198193	1.951957	-0.392395	-1.052854	-0.211381	-21.958050	-75.547909	-163.612177			
13163	9.382216	0.226703	1.648605	-0.676633	-1.075851	-0.369178	-22.519507	-75.398963	-162.714027			
13164	9.301283	0.301774	1.424038	-0.890826	-1.156019	-0.512002	-23.060356	-75.237088	-161.836235			
13165	9.329465	0.276776	1.737450	-0.604241	-1.197096	-0.413964	-23.585541	-75.068473	-160.982679			
13166	9.348732	0.274436	1.865882	-0.496959	-1.242382	-0.369964	-24.154791	-74.889785	-160.133466			
13167	9.350963	0.299979	1.789142	-0.588186	-1.297212	-0.394478	-24.719251	-74.692780	-159.340088			
13168	9.112160	0.324580	1.730786	-0.604175	-1.331045	-0.647777	-25.270914	-74.483084	-158.604924			
13169	8.834544	0.577556	1.694764	-0.601232	-1.586541	-0.959651	-25.778399	-74.275483	-157.955491			
13170	8.594300	1.117089	1.613674	-0.661993	-2.121705	-1.281928	-26.220933	-74.093222	-157.418406			
13171	8.482294	1.850873	1.666026	-0.631590	-2.865808	-1.473690	-26.536947	-73.942895	-157.060072			
13172	8.511983	2.264128	1.698876	-0.639112	-3.298478	-1.495365	-26.727721	-73.827145	-156.876738			
13173	8.778941	2.203344	1.893070	-0.529589	-3.292005	-1.187697	-26.778897	-73.751869	-156.873448			
13174	9.302187	1.640728	2.003473	-0.541142	-2.803834	-0.588684	-26.762195	-73.726454	-156.968314			
13175	10.053559	0.964470	1.801398	-0.901316	-2.198592	0.167448	-26.766571	-73.749045	-157.066224			
13176	10.707321	0.096820	1.635926	-1.181043	-1.396497	0.863795	-26.923967	-73.801181	-157.014490			
13177	11.404470	-0.778991	1.805365	-1.136537	-0.623773	1.687193	-27.223714	-73.873055	-156.778602			
13178	12.082193	-1.310951	2.116856	-0.960052	-0.209317	2.484202	-27.585410	-73.937674	-156.379098			
13179	12.314625	-1.617821	2.559805	-0.555675	0.017647	2.856598	-27.893232	-73.986187	-155.931428			
13180	12.048044	-1.712136	2.814052	-0.220607	0.107576	2.675122	-28.170976	-74.041116	-155.471391			
13181	11.618636	-1.569030	2.803860	-0.107946	0.006546	2.241541	-28.479678	-74.140336	-155.008200			
13182	10.972572	-1.736409	2.861910	0.146654	0.236466	1.655768	-28.831445	-74.293480	-154.546131			
13183	10.650389	-1.381951	2.622654	0.018247	-0.059716	1.242394	-29.140639	-74.507265	-154.180196			
13184	10.737032	-0.851236	2.694036	0.096393	-0.593031	1.273566	-29.436476	-74.814153	-153.924843			
13185	11.544503	-0.934518	2.818890	0.098996	-0.593438	2.092460	-29.645794	-75.203437	-153.876855			
13186	11.961570	-1.369811	1.989989	-0.707718	-0.117337	2.369284	-29.709726	-75.580125	-154.120738			
13187	11.461052	-3.676528	1.982576	-0.400333	2.261137	2.167688	-29.699775	-75.975266	-154.504183			
13188	11.101250	-5.892307	1.734926	-0.333608	4.557964	2.022835	-29.557825	-76.415638	-154.948711			
13189	10.913843	-7.202625	1.390143	-0.451424	5.957939	1.901432	-29.054445	-76.812441	-155.597353			
13190	10.386200	-7.789166	1.083751	-0.542025	6.675271	1.361624	-28.175010	-77.133604	-156.403755			
13191	9.892834	-7.700591	1.326229	-0.201179	6.672504	0.881370	-26.904658	-77.374057	-157.322593			
13192	9.595190	-6.861426	1.590594	0.029865	5.909311	0.519554	-25.343349	-77.553077	-158.280234			
13193	9.667957	-5.204284	1.911994	0.188227	4.304389	0.465724	-23.637703	-77.707134	-159.215367			
13194	9.521168	-3.416958	2.569029	0.745704	2.576071	0.273703	-21.919343	-77.884297	-160.065882			
13195	9.722342	-1.800275	3.302653	1.364489	1.004833	0.473238	-20.276519	-78.066463	-160.863915			
13196	9.870742	-0.270823	4.001673	2.007294	-0.462126	0.640774	-18.808393	-78.226203	-161.598203			
13197	10.371770	1.044049	4.278770	2.202292	-1.729929	1.101902	-17.566235	-78.367211	-162.286709			
13198	10.754968	1.860231	4.218679	2.097351	-2.503070	1.423973	-16.507009	-78.440207	-163.015812			
13199	10.599112	2.060996	3.965805	1.885250	-2.647381	1.221512	-15.522365	-78.426328	-163.856027			
13200	10.332341	1.694718	3.734933	1.684405	-2.234603	0.945948	-14.584493	-78.308217	-164.807233			
13201	9.707121	0.831105	3.356272	1.381928	-1.319815	0.313104	-13.759169	-78.100096	-165.797882			
13202	9.355388	-0.155797	2.541993	0.592168	-0.305445	-0.139783	-13.021624	-77.828290	-166.819877			
13203	8.905549	-1.120403	2.005112	0.099793	0.693472	-0.642437	-12.257758	-77.512382	-167.890853			
13204	8.450593	-1.766400	1.950260	0.092517	1.374658	-1.069818	-11.462992	-77.198469	-168.937863			
13205	8.178585	-2.101660	1.953628	0.111620	1.738193	-1.322167	-10.649248	-76.900261	-169.936576			
13206	8.030432	-2.199432	2.079880	0.227170	1.858724	-1.437449	-9.832719	-76.623841	-170.859032			
13207	7.885387	-2.025912	2.201032	0.336871	1.709848	-1.560963	-8.976043	-76.363613	-171.748315			
13208	7.706998	-1.622979	2.292071	0.425008	1.334898	-1.730440	-8.116234	-76.121485	-172.580687			
13209	7.679103	-1.108160	2.318187	0.416272	0.845287	-1.770133	-7.274491	-75.899234	-173.348228			
13210	7.752880	-0.634105	2.365341	0.407695	0.394348	-1.702064	-6.435998	-75.703354	-174.084615			
13211	7.915364	-0.266686	2.585543	0.549074	0.046752	-1.499725	-5.652385	-75.523841	-174.747299			
13212	8.114223	0.074233	2.724187	0.604876	-0.275316	-1.278899	-5.005516	-75.354620	-175.284891			
13213	8.398416	0.298278	2.819955	0.598962	-0.485521	-0.982063	-4.514480	-75.191621	-175.690516			
13214	8.604411	0.494886	2.914042	0.612027	-0.671789	-0.760257	-4.190876	-75.037745	-175.960397			
13215	8.845638	0.671692	2.962594	0.571259	-0.844247	-0.515682	-4.006852	-74.878871	-176.129787			
13216	8.776902	0.807538	2.912690	0.514715	-0.975569	-0.595683	-3.955028	-74.717358	-176.212162			
13217	8.533354	0.989890	2.839659	0.481953	-1.155037	-0.851927	-3.994250	-74.560291	-176.238559			
13218	8.354036	0.996512	2.854774	0.519415	-1.164065	-1.020202	-4.108582	-74.414164	-176.223845			
13219	8.149007	1.176054	2.818560	0.516082	-1.347774	-1.230681	-4.281849	-74.286198	-176.176197			
13220	7.946394	1.207135	2.630418	0.368575	-1.383508	-1.477733	-4.507816	-74.166966	-176.123565			
13221	7.827886	1.107968	2.478090	0.237196	-1.291783	-1.632264	-4.785210	-74.084002	-176.022543			
13222	7.885075	0.960273	2.563434	0.293708	-1.160597	-1.552273	-5.145280	-74.040417	-175.835205			
13223	7.911144	1.003326	2.440543	0.161980	-1.219152	-1.564262	-5.626535	-74.034417	-175.538013			
13224	7.966429	1.083060	2.505291	0.207210	-1.323944	-1.498984	-6.250631	-74.060471	-175.118564			
13225	8.000947	1.233141	2.408265	0.104633	-1.500623	-1.501694	-7.067040	-74.115832	-174.565106			
13226	8.159537	1.336407	2.246280	-0.088762	-1.636448	-1.402941	-7.998871	-74.215862	-173.923337			
13227	8.458476	1.427793	2.759124	0.336519	-1.791261	-0.987997	-8.904210	-74.363114	-173.280749			
13228	8.847304	1.390748	3.134228	0.617660	-1.816357	-0.520133	-9.658860	-74.540075	-172.763989			
13229	9.277182	1.349830	3.293846	0.684200	-1.824815	-0.069002	-10.209983	-74.708710	-172.463278			
13230	9.615859	1.108772	3.674173	0.992766	-1.639336	0.361819	-10.675627	-74.838032	-172.328289			
13231	9.828370	0.666842	3.379159	0.685495	-1.214090	0.507985	-11.170357	-74.917759	-172.298549			
13232	10.099352	0.063498	2.778581	0.076339	-0.607069	0.644227	-11.646440	-74.970026	-172.351470			
13233	10.541512	-0.383959	2.457884	-0.311202	-0.168876	1.012594	-11.950702	-75.009116	-172.556509			
13234	10.964112	-0.678438	2.671185	-0.187145	0.085806	1.490625	-12.027978	-75.020767	-172.926650			
13235	10.984856	-0.786678	2.903220	0.037991	0.173421	1.575161	-11.910805	-74.985853	-173.440258			
13236	10.842709	-0.675557	3.012654	0.161002	0.063430	1.459705	-11.681481	-74.926164	-174.015759			
13237	10.458371	0.074567	3.168823	0.324413	-0.676556	1.089674	-11.344361	-74.842962	-174.643088			
13238	9.908293	1.173445	3.368950	0.529706	-1.762389	0.556228	-10.931359	-74.754563	-175.294665			
13239	9.212706	2.268203	3.771462	0.962287	-2.864085	-0.060068	-10.479829	-74.694119	-175.963287			
13240	9.318058	2.800413	4.285114	1.351184	-3.437362	0.156742	-9.973823	-74.699733	-176.710783			
13241	10.137273	3.080790	4.252853	1.054643	-3.705835	0.934255	-9.455314	-74.709136	-177.548910			
13242	10.853793	2.853904	4.315821	0.931831	-3.477254	1.659724	-8.969582	-74.729403	-178.403411			
13243	11.991522	2.108327	4.746191	1.118544	-2.778066	2.907341	-8.369186	-74.754698	-179.363152			
13244	12.733120	0.955560	4.459911	0.788072	-1.574568	3.597602	-7.892859	-74.776657	179.675826			
13245	13.118036	-0.662607	3.688972	0.175573	0.154564	3.828269	-7.685549	-74.818921	178.839928			
13246	13.616619	-2.230674	3.115327	-0.246343	1.800908	4.215478	-7.687441	-74.863628	178.193501			
13247	14.283376	-3.105098	2.412295	-0.928599	2.787421	4.707768	-7.773396	-74.803558	177.735480			
13248	14.378548	-4.193518	2.399133	-0.784320	3.866246	4.833850	-7.802522	-74.650027	177.433288			
13249	14.136014	-5.831689	3.256091	0.350264	5.333121	4.879916	-7.581729	-74.461563	177.147846			
13250	13.360589	-7.714077	3.011086	0.603455	7.236376	4.128232	-7.343595	-74.226493	177.007567			
13251	11.905593	-7.794679	1.571869	-0.428548	7.563589	2.335510	-7.256406	-73.938597	177.144018			
13252	9.972645	-5.557851	2.507192	0.521034	5.177641	0.653893	-7.265908	-73.635402	177.488493			
13253	8.026922	-2.640549	3.504631	1.458715	2.112999	-1.032397	-7.452516	-73.307953	177.902984			
13254	6.245500	-0.066150	3.071055	1.099367	-0.379815	-2.950543	-7.863350	-72.994003	178.352408			
13255	4.855514	0.841995	2.978284	1.242730	-1.286124	-4.339426	-8.438753	-72.752354	178.878424			
13256	4.769857	0.283851	2.870925	1.237395	-0.734892	-4.427237	-9.030944	-72.614284	179.426675			
13257	5.691766	-0.868797	2.236371	0.538222	0.494258	-3.679306	-9.484321	-72.540237	179.823126			
13258	7.335982	-2.028371	2.216451	0.208367	1.630382	-2.057560	-9.700375	-72.537289	-179.999092			
13259	8.682742	-2.839411	1.948292	-0.313253	2.468590	-0.809576	-9.791778	-72.577736	-179.964730			
13260	9.540995	-3.417310	1.797809	-0.607755	3.060022	-0.004140	-9.853717	-72.637637	-179.942047			
13261	9.998283	-3.943784	1.570892	-0.862304	3.614139	0.394233	-9.912764	-72.693032	-179.854670			
13262	10.027850	-4.353804	1.682412	-0.693801	3.994462	0.478416	-10.001242	-72.754738	-179.665164			
13263	9.767459	-4.433684	1.919572	-0.379951	4.027084	0.305800	-10.121900	-72.815826	-179.362810			
13264	9.120918	-3.994393	2.175604	-0.020189	3.546013	-0.257325	-10.282685	-72.880028	-178.950057			
13265	8.484059	-3.114382	2.309938	0.154683	2.652992	-0.871091	-10.410687	-72.947537	-178.495293			
13266	8.154436	-2.204647	2.499274	0.294501	1.725150	-1.179102	-10.457096	-73.020203	-178.093438			
13267	8.048527	-1.204877	2.713109	0.390386	0.707782	-1.272306	-10.425065	-73.094942	-177.776238			
13268	8.068606	-0.460167	2.814090	0.388775	-0.037974	-1.263965	-10.310624	-73.167564	-177.564387			
13269	7.956271	0.019696	2.679530	0.243950	-0.484933	-1.434870	-10.140112	-73.251129	-177.462285			
13270	8.061599	0.048600	2.407604	-0.031980	-0.469676	-1.412292	-9.950262	-73.364093	-177.426612			
13271	8.196791	-0.211888	2.312516	-0.111009	-0.192533	-1.296198	-9.773014	-73.491498	-177.399265			
13272	8.356625	-0.619250	2.148171	-0.245051	0.238444	-1.168942	-9.581314	-73.631638	-177.385756			
13273	8.607034	-0.874052	1.925616	-0.479411	0.524058	-0.978182	-9.351106	-73.767143	-177.377239			
13274	8.694056	-1.133001	2.077505	-0.311679	0.772112	-0.840899	-9.084070	-73.911160	-177.367615			
13275	8.945457	-1.256741	2.075911	-0.351363	0.902744	-0.594685	-8.834710	-74.058189	-177.312819			
13276	9.449309	-1.276232	1.955354	-0.584462	0.937220	-0.142030	-8.645408	-74.200559	-177.163203			
13277	9.592147	-1.158551	2.035489	-0.539981	0.813999	0.012818	-8.559609	-74.337159	-176.866316			
13278	9.834848	-0.716757	2.053224	-0.607314	0.366649	0.234720	-8.638945	-74.480393	-176.390992			
13279	9.920374	-0.431739	2.102925	-0.582799	0.066854	0.320344	-8.872145	-74.612941	-175.757972			
13280	10.007927	-0.016176	2.308705	-0.414371	-0.381551	0.442634	-9.220837	-74.736185	-175.012687			
13281	9.921716	0.187270	2.260731	-0.426772	-0.599407	0.338416	-9.706112	-74.838471	-174.148259			
13282	9.690289	0.414192	2.477447	-0.147051	-0.858110	0.159922	-10.232424	-74.930989	-173.241616			
13283	9.606206	0.517715	2.311963	-0.265953	-0.972764	0.029837	-10.829207	-75.020173	-172.286632			
13284	9.595477	0.507104	2.243915	-0.303543	-0.984145	0.000808	-11.438005	-75.103166	-171.316750			
13285	9.461518	0.633322	2.302191	-0.194926	-1.133867	-0.122602	-12.033033	-75.167991	-170.345226			
13286	9.327415	0.594595	2.306332	-0.133071	-1.113939	-0.251582	-12.617309	-75.230891	-169.390266			
13287	9.307644	0.495403	2.326087	-0.084528	-1.037588	-0.262582	-13.176248	-75.291387	-168.468262			
13288	9.058187	0.371383	2.353316	0.026359	-0.923049	-0.492065	-13.716893	-75.336910	-167.563404			
13289	8.830779	0.254807	2.183244	-0.063940	-0.808886	-0.748708	-14.222240	-75.371092	-166.684410			
13290	8.727009	0.153228	2.077673	-0.124784	-0.717261	-0.870048	-14.693990	-75.407156	-165.833374			
13291	8.740226	0.129389	1.920073	-0.266938	-0.708206	-0.895170	-15.083076	-75.435615	-165.050285			
13292	8.785352	0.159534	1.821224	-0.361093	-0.754777	-0.878226	-15.393325	-75.454196	-164.319897			
13293	8.807072	0.157845	1.642026	-0.530208	-0.767111	-0.901117	-15.618095	-75.455043	-163.651065			
13294	8.972947	0.184264	1.521795	-0.678091	-0.817776	-0.771946	-15.767447	-75.448687	-163.026842			
13295	9.174490	0.244949	1.261148	-0.971222	-0.908584	-0.644648	-15.860956	-75.425676	-162.441540			
13296	9.274716	0.354521	1.139630	-1.103651	-1.041562	-0.585451	-15.929474	-75.391498	-161.858976			
13297	9.375578	0.405926	1.247362	-1.016082	-1.111720	-0.466362	-15.998772	-75.352085	-161.270971			
13298	9.590911	0.491858	1.424402	-0.885878	-1.222277	-0.222189	-16.100395	-75.309456	-160.660483			
13299	9.674625	0.618253	1.421006	-0.895402	-1.370067	-0.152407	-16.223770	-75.261426	-160.056305			
13300	9.754103	0.949673	1.494107	-0.812633	-1.717350	-0.082987	-16.329735	-75.209081	-159.484580			
13301	9.577488	1.320087	1.488233	-0.738068	-2.082722	-0.283614	-16.387496	-75.154226	-158.988856			
13302	9.281429	1.780316	1.599863	-0.508440	-2.513877	-0.577108	-16.384296	-75.103916	-158.569263			
13303	9.068166	2.148410	1.757884	-0.256867	-2.851298	-0.771583	-16.328506	-75.068615	-158.227523			
13304	9.012874	2.376693	1.896243	-0.071210	-3.061248	-0.807135	-16.272734	-75.061920	-157.938099			
13305	9.121597	2.220134	2.098646	0.098628	-2.896313	-0.639986	-16.253939	-75.095079	-157.671396			
13306	9.320917	1.865177	1.901457	-0.158826	-2.582165	-0.470253	-16.414532	-75.166377	-157.312566			
13307	9.616637	0.981893	2.415438	0.188813	-1.690553	0.004872	-16.758918	-75.283367	-156.800668			
13308	10.418017	0.312807	2.868150	0.391919	-1.069897	0.937233	-17.232372	-75.437547	-156.158941			
13309	11.097764	0.020260	2.607257	-0.011743	-0.886470	1.552717	-17.798970	-75.596513	-155.452008			
13310	11.538497	-0.118244	2.630639	-0.059582	-0.807782	1.994719	-18.515374	-75.777541	-154.655041			
13311	11.711206	-0.309883	2.964576	0.255330	-0.621005	2.253211	-19.421429	-75.983172	-153.760165			
13312	11.742095	-0.719401	3.040957	0.333917	-0.238513	2.331155	-20.559360	-76.204677	-152.733923			
13313	11.622871	-1.731635	2.999047	0.262592	0.738474	2.289755	-21.830620	-76.439181	-151.642519			
13314	11.782585	-2.083084	2.932040	0.201051	1.029308	2.461874	-23.130619	-76.701640	-150.561250			
13315	12.267599	-1.947575	3.085321	0.356852	0.828658	2.954124	-24.379401	-76.995435	-149.597482			
13316	12.480992	-2.381631	3.255751	0.526809	1.228846	3.235639	-25.525519	-77.302326	-148.842020			
13317	11.993046	-3.320547	2.774698	0.144943	2.162039	2.751625	-26.424095	-77.610341	-148.390762			
13318	11.248175	-4.359181	2.381922	-0.111622	3.248510	2.046125	-27.031598	-77.931236	-148.193237			
13319	10.672270	-5.476445	2.415485	0.010482	4.440283	1.589351	-27.358574	-78.265781	-148.164052			
13320	10.160800	-6.102118	1.859184	-0.426949	5.102793	1.036880	-27.452083	-78.551405	-148.227219			
13321	9.235611	-6.244892	1.565083	-0.522602	5.347066	0.080759	-27.418507	-78.805021	-148.257878			
13322	8.912459	-6.308657	1.359875	-0.657440	5.452741	-0.277716	-27.151375	-79.006256	-148.277839			
13323	9.136462	-5.492437	2.195656	0.176648	4.707052	-0.000710	-26.375522	-79.109919	-148.471508			
13324	9.464569	-4.005184	3.150629	1.148882	3.320065	0.346182	-25.085240	-79.108291	-148.943059			
13325	9.896623	-2.511574	3.836808	1.847236	1.923455	0.763678	-23.481236	-79.017844	-149.694549			
13326	9.821173	-1.187323	3.873574	1.995586	0.687140	0.599547	-21.889017	-78.859583	-150.553587			
13327	9.902856	0.039571	3.317027	1.556544	-0.553384	0.499513	-20.670590	-78.701988	-151.244037			
13328	10.167387	0.936064	3.334595	1.624952	-1.426879	0.708477	-19.689318	-78.569026	-151.831680			
13329	10.434515	1.470127	3.280889	1.578679	-1.958999	0.933222	-18.816075	-78.437202	-152.457383			
13330	10.795594	1.399955	3.306938	1.495875	-1.899182	1.304682	-18.017876	-78.289290	-153.146546			
13331	10.915878	0.607640	3.207698	1.208892	-1.129765	1.460154	-17.225277	-78.098569	-153.943065			
13332	10.733279	-0.311459	2.805772	0.655719	-0.255118	1.263293	-16.408370	-77.874414	-154.850824			
13333	10.360458	-1.120044	2.678405	0.418191	0.567678	0.923698	-15.468797	-77.601204	-155.889743			
13334	9.752146	-1.699849	2.398949	0.114507	1.166528	0.305343	-14.432807	-77.293685	-157.022567			
13335	9.079387	-2.167933	2.408718	0.123545	1.702928	-0.324720	-13.318594	-76.955623	-158.174373			
13336	8.502948	-2.040097	2.088145	-0.110075	1.596820	-0.966210	-12.245550	-76.602997	-159.248695			
13337	8.113668	-1.857607	1.877992	-0.261629	1.435536	-1.405568	-11.211773	-76.272802	-160.217520			
13338	8.055209	-1.317320	2.216009	0.103153	0.973057	-1.411815	-10.143160	-75.975565	-161.142685			
13339	8.174932	-0.795090	2.494965	0.371041	0.510627	-1.251856	-9.093811	-75.695628	-162.015731			
13340	8.301014	-0.403027	2.507343	0.364118	0.140193	-1.140690	-8.108737	-75.427176	-162.827096			
13341	8.451678	-0.039933	2.634642	0.459214	-0.186574	-0.973691	-7.210609	-75.166932	-163.539186			
13342	8.534655	0.247539	2.775563	0.574220	-0.432512	-0.863478	-6.429759	-74.915113	-164.136673			
13343	8.541714	0.460896	2.907516	0.689897	-0.603438	-0.824546	-5.758966	-74.671102	-164.633364			
13344	8.473260	0.586214	2.897239	0.678017	-0.707279	-0.892280	-5.195503	-74.439456	-165.046748			
13345	8.253439	0.672744	2.806210	0.626222	-0.778364	-1.126576	-4.705628	-74.225798	-165.403403			
13346	8.213118	0.784676	2.856021	0.670751	-0.865401	-1.150762	-4.252103	-74.034713	-165.741562			
13347	8.140785	0.779244	2.928140	0.727232	-0.830570	-1.196725	-3.787293	-73.859958	-166.102548			
13348	8.111397	0.784346	2.956593	0.735455	-0.814918	-1.213482	-3.321268	-73.702884	-166.468102			
13349	8.085542	0.807846	2.930654	0.697562	-0.826259	-1.242508	-2.877100	-73.569421	-166.820994			
13350	8.121719	0.765691	2.845787	0.580079	-0.787600	-1.228384	-2.492963	-73.470891	-167.118214			
13351	8.114931	0.816105	2.835305	0.565936	-0.826866	-1.236378	-2.205219	-73.390749	-167.316945			
13352	7.964593	0.837432	2.898456	0.659919	-0.819554	-1.361066	-2.040048	-73.324977	-167.385285			
13353	7.915889	0.882541	3.160565	0.919679	-0.811273	-1.331805	-1.981338	-73.261179	-167.338299			
13354	7.737993	1.008948	3.086325	0.915570	-0.938164	-1.524051	-2.056331	-73.191982	-167.176571			
13355	7.612571	1.102827	2.912086	0.798676	-1.059845	-1.695635	-2.273510	-73.137411	-166.896117			
13356	7.432888	1.340258	3.003017	0.978279	-1.275859	-1.845419	-2.594708	-73.109737	-166.528649			
13357	7.321505	1.546750	2.830231	0.888940	-1.516092	-2.007670	-3.014820	-73.110234	-166.105083			
13358	7.320783	1.687088	2.973633	1.058669	-1.644522	-1.973214	-3.500612	-73.150423	-165.620581			
13359	7.423393	1.820291	3.232647	1.310858	-1.753389	-1.807847	-3.980829	-73.219302	-165.169443			
13360	7.779471	1.847056	3.465278	1.452044	-1.779262	-1.406399	-4.382531	-73.320288	-164.795047			
13361	8.280984	1.646909	3.854896	1.659943	-1.563406	-0.815602	-4.683459	-73.430274	-164.569546			
13362	8.927215	1.454415	3.931713	1.535199	-1.421700	-0.174703	-4.976442	-73.521115	-164.434558			
13363	9.451460	1.108716	3.885267	1.294191	-1.147650	0.319566	-5.338742	-73.567665	-164.371896			
13364	9.986039	0.664284	3.881202	1.068308	-0.777551	0.840014	-5.774174	-73.571292	-164.328723			
13365	10.425932	0.323494	3.925287	0.929151	-0.498775	1.282375	-6.200458	-73.539085	-164.352101			
13366	10.712952	-0.026635	3.737209	0.608463	-0.233820	1.514705	-6.563076	-73.479661	-164.436473			
13367	10.828624	-0.249302	3.680675	0.476511	-0.055375	1.617029	-6.798866	-73.392815	-164.629269			
13368	10.750181	-0.311451	3.875237	0.657294	0.020652	1.599952	-6.902280	-73.286684	-164.873722			
13369	10.698021	-0.030079	3.928184	0.741104	-0.259855	1.556673	-6.915747	-73.158200	-165.177449			
13370	10.385001	0.606873	3.579709	0.562676	-0.918011	1.135895	-6.820413	-73.040257	-165.502529			
13371	10.034732	1.504414	3.542931	0.725629	-1.784332	0.760914	-6.613265	-72.959409	-165.889086			
13372	9.830999	2.205993	4.123898	1.412898	-2.387312	0.714701	-6.337082	-72.945546	-166.296663			
13373	10.277278	2.602726	4.341024	1.533403	-2.773917	1.196179	-6.015342	-72.969766	-166.798032			
13374	11.000928	2.657083	4.563707	1.536618	-2.839225	1.955299	-5.770059	-72.997138	-167.281698			
13375	11.844512	1.912875	4.036995	0.700469	-2.205516	2.632951	-5.647939	-73.109367	-167.767905			
13376	13.071642	1.193135	3.427134	-0.290739	-1.616001	3.653585	-5.498632	-73.321986	-168.262358			
13377	13.799732	0.605392	4.127967	0.146557	-0.984504	4.569534	-5.387052	-73.534603	-168.736547			
13378	13.485574	-0.130847	3.161201	-0.730936	-0.311254	4.016260	-5.331393	-73.660277	-169.108147			
13379	12.142211	-0.517771	1.727761	-1.752450	0.035217	2.336970	-5.062051	-73.702777	-169.513187			
13380	10.990437	-0.701578	2.858092	-0.367257	0.398605	1.552030	-4.625565	-73.739071	-169.931185			
13381	11.163377	-2.456798	4.273325	0.772921	2.291771	2.148434	-4.034150	-73.815286	-170.515553			
13382	12.874053	-5.744649	4.081697	-0.194331	5.509905	3.788983	-3.319433	-73.849421	-171.251997			
13383	14.387695	-8.165371	2.048323	-2.798191	7.716541	4.695917	-2.824329	-73.728930	-171.815750			
13384	14.239151	-6.858834	1.894040	-2.821335	6.427501	4.474069	-2.612621	-73.530037	-171.961817			
13385	11.610809	-2.807720	2.501729	-1.166354	2.553214	2.064742	-2.583746	-73.305101	-171.896594			
13386	8.577288	-0.841325	2.877532	0.207638	0.741312	-0.759227	-2.855506	-73.110005	-171.600368			
13387	6.505465	-0.166988	2.479605	0.466231	0.101908	-2.865057	-3.428253	-72.921636	-171.143096			
13388	5.159224	0.488126	2.148500	0.589652	-0.542596	-4.260233	-4.168460	-72.771727	-170.573431			
13389	4.884682	1.397466	2.684109	1.255473	-1.415351	-4.387011	-4.950440	-72.705772	-170.047480			
13390	5.519714	1.328612	2.748402	1.120717	-1.402260	-3.765890	-5.693159	-72.740952	-169.662732			
13391	6.980508	0.416877	2.560959	0.442613	-0.610761	-2.403855	-6.229944	-72.826061	-169.571737			
13392	8.217914	-0.875292	2.699305	0.130581	0.603057	-1.140565	-6.534971	-72.923161	-169.750235			
13393	9.083603	-2.225767	2.406458	-0.465874	1.880635	-0.352085	-6.726247	-73.008272	-170.104011			
13394	9.493709	-3.392256	2.003753	-1.002816	3.003989	-0.033975	-6.913059	-73.081161	-170.423471			
13395	9.777046	-4.216190	1.759879	-1.317784	3.804876	0.199818	-7.121686	-73.160590	-170.650315			
13396	9.715996	-4.681330	1.798918	-1.243086	4.271813	0.175194	-7.381446	-73.241628	-170.692039			
13397	9.338358	-4.426738	1.808436	-1.083153	4.028633	-0.186255	-7.699098	-73.326476	-170.556504			
13398	9.110363	-3.887824	2.159137	-0.638509	3.496247	-0.318255	-8.119120	-73.418966	-170.202952			
13399	8.826986	-2.786921	2.056813	-0.597218	2.389393	-0.655879	-8.666770	-73.516752	-169.694547			
13400	8.629250	-1.704387	2.163184	-0.382342	1.297471	-0.856206	-9.302660	-73.614777	-169.069629			
13401	8.365368	-1.067468	2.244959	-0.190004	0.652870	-1.112325	-9.933858	-73.696209	-168.462682			
13402	8.194753	-0.719407	2.144011	-0.211069	0.290367	-1.319197	-10.517673	-73.772093	-167.932037			
13403	8.027199	-0.590107	1.990052	-0.294448	0.149693	-1.528044	-10.972325	-73.835019	-167.550793			
13404	8.098988	-0.827173	1.947670	-0.348480	0.368977	-1.457232	-11.269899	-73.920752	-167.301662			
13405	8.170198	-1.139058	1.749107	-0.553655	0.666556	-1.424713	-11.439189	-74.016578	-167.180451			
13406	8.330591	-1.394768	1.877578	-0.465136	0.913384	-1.220902	-11.483749	-74.121429	-167.156303			
13407	8.582085	-1.663613	1.777525	-0.620622	1.167469	-0.990488	-11.492784	-74.232360	-167.157160			
13408	8.797176	-1.815682	1.772792	-0.668495	1.309137	-0.775595	-11.539807	-74.360836	-167.084333			
13409	9.114011	-1.826112	1.734448	-0.768468	1.299865	-0.478451	-11.684332	-74.499512	-166.874825			
13410	9.265426	-1.564516	1.746976	-0.764184	1.025528	-0.341045	-11.936784	-74.646802	-166.516236			
13411	9.393604	-1.209795	1.844639	-0.665886	0.656335	-0.208946	-12.292318	-74.793982	-166.005474			
13412	9.452839	-0.783110	2.013750	-0.475097	0.218546	-0.130174	-12.692511	-74.938772	-165.420526			
13413	9.273457	-0.494260	2.029339	-0.377166	-0.070254	-0.314674	-13.095392	-75.066487	-164.824763			
13414	9.158081	-0.241732	2.200628	-0.146980	-0.321193	-0.397444	-13.473460	-75.183579	-164.238697			
13415	9.245184	-0.148786	2.197311	-0.144509	-0.430114	-0.319647	-13.799641	-75.284810	-163.696840			
13416	9.322990	-0.048247	2.173635	-0.160687	-0.544213	-0.256374	-14.036732	-75.373712	-163.234165			
13417	9.217998	0.033272	2.221906	-0.066044	-0.620918	-0.351211	-14.217138	-75.450983	-162.824566			
13418	9.168680	-0.040455	2.157594	-0.104408	-0.548837	-0.410061	-14.329252	-75.528006	-162.471372			
13419	9.235185	-0.028417	2.065708	-0.193656	-0.570728	-0.368465	-14.396132	-75.597539	-162.159529			
13420	9.309524	-0.044403	2.045432	-0.217632	-0.560678	-0.299998	-14.428171	-75.669339	-161.870236			
13421	9.439226	-0.141887	2.011005	-0.274915	-0.473556	-0.176121	-14.419420	-75.738355	-161.604417			
13422	9.604514	-0.133878	1.931596	-0.377517	-0.495453	-0.034770	-14.336422	-75.798868	-161.373955			
13423	9.680503	-0.021158	1.913877	-0.393986	-0.609690	0.028480	-14.181061	-75.832562	-161.175411			
13424	9.715308	0.220376	1.969698	-0.321929	-0.841845	0.061680	-13.930251	-75.831324	-161.020137			
13425	9.519364	0.505829	1.971723	-0.247715	-1.102425	-0.143916	-13.643855	-75.789753	-160.878905			
13426	9.340251	0.641499	1.993999	-0.175129	-1.215381	-0.319531	-13.401929	-75.710171	-160.681906			
13427	9.067807	0.673442	1.985399	-0.124192	-1.225111	-0.587497	-13.288996	-75.602144	-160.360514			
13428	8.930651	0.592981	1.769108	-0.318034	-1.162248	-0.769131	-13.356714	-75.489319	-159.862008			
13429	8.741090	0.607155	1.511600	-0.525221	-1.203067	-1.018543	-13.629087	-75.376739	-159.166717			
13430	8.686918	0.701219	1.290948	-0.713388	-1.339416	-1.134105	-14.047987	-75.272327	-158.326534			
13431	8.752292	0.998905	0.919093	-1.041791	-1.712798	-1.185633	-14.497862	-75.165971	-157.456504			
13432	8.833532	1.530325	0.706457	-1.179831	-2.301564	-1.199733	-14.888768	-75.065460	-156.656978			
13433	8.879588	2.137981	0.619965	-1.169314	-2.943244	-1.223603	-15.186228	-74.969889	-155.978760			
13434	8.912906	2.779053	0.828195	-0.860886	-3.569044	-1.188900	-15.370344	-74.894696	-155.450950			
13435	9.066759	3.505149	0.991543	-0.603497	-4.288670	-1.053782	-15.474352	-74.858169	-155.078826			
13436	9.242536	3.782003	2.005699	0.389108	-4.432069	-0.649927	-15.531385	-74.881249	-154.866385			
13437	9.633757	3.773381	2.445042	0.729119	-4.398174	-0.161244	-15.586637	-74.952917	-154.817752			
13438	10.141442	2.532494	3.123782	1.057377	-3.127617	0.585404	-15.673542	-75.110743	-154.876227			
13439	10.912580	1.456965	3.043182	0.640667	-2.159128	1.385336	-15.783589	-75.324806	-155.016724			
13440	11.392414	0.147561	3.320876	0.618804	-0.871075	2.006583	-15.980248	-75.611804	-155.157702			
13441	12.300164	-0.498907	3.861366	0.895615	-0.240419	3.055591	-16.285085	-75.984490	-155.306169			
13442	13.605934	-1.104996	3.406075	0.169839	0.178874	4.254367	-16.724168	-76.400326	-155.458354			
13443	14.454622	-1.849855	2.528944	-0.859811	0.741012	4.933982	-17.244389	-76.767952	-155.605328			
13444	14.226198	-2.657197	2.424284	-0.918380	1.566291	4.748394	-17.744922	-77.053777	-155.751471			
13445	13.498406	-3.728189	2.489838	-0.734751	2.712542	4.130303	-18.284646	-77.330976	-155.896241			
13446	13.095068	-5.145203	2.027421	-1.150026	4.124875	3.741875	-18.703102	-77.573414	-156.169895			
13447	12.593162	-6.273452	1.353110	-1.711735	5.256649	3.195445	-18.920747	-77.771308	-156.574684			
13448	11.432091	-7.327100	0.287118	-2.524608	6.355786	1.921503	-18.995811	-77.922041	-156.990388			
13449	10.149805	-8.428914	0.030227	-2.549116	7.567901	0.689441	-18.833671	-78.063330	-157.325737			
13450	9.347247	-8.801931	0.372740	-2.076268	8.043754	-0.016208	-18.289130	-78.189427	-157.617046			
13451	9.138709	-8.549202	0.942642	-1.511893	7.862370	-0.148833	-17.414735	-78.301861	-157.818242			
13452	9.273622	-7.162729	1.456840	-1.007804	6.533858	-0.029077	-16.283317	-78.382148	-157.978898			
13453	9.430853	-5.360748	1.767882	-0.646309	4.789790	0.058651	-15.060472	-78.457259	-158.080102			
13454	9.880800	-3.234199	2.585202	0.251487	2.783471	0.529554	-13.751752	-78.526623	-158.164022			
13455	10.144628	-1.095014	3.867710	1.709653	0.890044	0.927700	-12.368137	-78.537648	-158.304063			
13456	10.460268	1.059781	4.851857	2.936765	-1.012946	1.342106	-11.062346	-78.449239	-158.505633			
13457	10.140882	2.792388	4.565496	3.029795	-2.660895	0.921291	-10.090101	-78.297633	-158.696951			
13458	10.012315	3.568442	4.030081	2.686759	-3.463289	0.675813	-9.472221	-78.141810	-158.845511			
13459	9.838970	3.425813	3.666879	2.327675	-3.360252	0.447824	-9.095038	-77.970018	-159.001467			
13460	9.689924	2.676244	3.319581	1.836877	-2.680840	0.262797	-8.775893	-77.745672	-159.264898			
13461	9.533392	1.676977	3.110049	1.409372	-1.739719	0.104822	-8.446500	-77.434904	-159.641770			
13462	8.920544	0.652057	2.658296	0.827792	-0.791289	-0.552228	-8.106111	-77.059107	-160.109136			
13463	8.068560	-0.008904	2.365261	0.527740	-0.148584	-1.422497	-7.746755	-76.646482	-160.624490			
13464	7.548421	-0.478581	2.121475	0.254069	0.294963	-1.966890	-7.365266	-76.245624	-161.177249			
13465	7.289252	-0.806961	2.061665	0.137401	0.620257	-2.221175	-6.920488	-75.885589	-161.758804			
13466	7.174555	-1.003738	2.024974	0.043913	0.816353	-2.335139	-6.344582	-75.569446	-162.410180			
13467	7.205892	-0.855561	2.084322	0.080439	0.687031	-2.294534	-5.701676	-75.298444	-163.058144			
13468	7.203884	-0.535802	2.191916	0.209418	0.405841	-2.277514	-5.009896	-75.081311	-163.695682			
13469	7.540255	-0.198140	2.501303	0.455487	0.124937	-1.879968	-4.298374	-74.922781	-164.307180			
13470	8.056780	0.085684	2.861039	0.697458	-0.101722	-1.291672	-3.643696	-74.799306	-164.849110			
13471	8.514290	0.168880	3.094906	0.796901	-0.150943	-0.788154	-3.126867	-74.694991	-165.263622			
13472	8.916196	0.170164	3.185922	0.761449	-0.146498	-0.374663	-2.767995	-74.610018	-165.537285			
13473	9.307964	0.152184	3.306047	0.753199	-0.121356	0.036640	-2.526599	-74.521955	-165.682242			
13474	9.348924	0.166634	3.200257	0.626306	-0.153352	0.049157	-2.371773	-74.400050	-165.738498			
13475	9.121512	0.159576	2.912095	0.389770	-0.188515	-0.246066	-2.325718	-74.258020	-165.704346			
13476	8.792167	0.349991	2.727497	0.320331	-0.393086	-0.614493	-2.316984	-74.120909	-165.624623			
13477	8.556508	0.595297	2.742870	0.429457	-0.617514	-0.839072	-2.285880	-73.997359	-165.539491			
13478	8.367726	0.981273	3.084825	0.866158	-0.914889	-0.929523	-2.255468	-73.875913	-165.446957			
13479	8.197675	1.334242	3.049833	0.939531	-1.258682	-1.105417	-2.327116	-73.766953	-165.302373			
13480	7.984694	1.601074	2.893099	0.896923	-1.543445	-1.356796	-2.495417	-73.689955	-165.098767			
13481	7.808896	1.860650	2.821506	0.929634	-1.807229	-1.550032	-2.688630	-73.667662	-164.875170			
13482	7.902909	2.102094	2.955390	1.086439	-2.029072	-1.427486	-2.890115	-73.697584	-164.626274			
13483	7.894842	2.363755	2.992601	1.191396	-2.282278	-1.431560	-3.139586	-73.758000	-164.331741			
13484	7.941428	2.593896	3.031395	1.281089	-2.509655	-1.383907	-3.457017	-73.847926	-164.005404			
13485	8.094561	2.620367	3.070913	1.300735	-2.548741	-1.231854	-3.824498	-73.955041	-163.679992			
13486	8.155459	2.612588	3.037053	1.270623	-2.562026	-1.188169	-4.129969	-74.087898	-163.438682			
13487	8.420714	2.538848	3.468801	1.611212	-2.428713	-0.818687	-4.334446	-74.242106	-163.353955			
13488	8.725915	2.194488	3.399794	1.410028	-2.135280	-0.540776	-4.476460	-74.375339	-163.446744			
13489	9.020791	1.589011	3.425356	1.240765	-1.567381	-0.239992	-4.576881	-74.479852	-163.691107			
13490	9.353890	0.955573	3.327876	0.940542	-0.997553	0.066756	-4.626362	-74.563062	-164.072908			
13491	9.764420	0.147916	2.813955	0.195280	-0.331707	0.342900	-4.532720	-74.623999	-164.632213			
13492	10.422216	-0.570458	3.466590	0.511850	0.453112	1.164468	-4.190560	-74.629182	-165.369105			
13493	10.921775	-0.948251	3.980482	0.791551	0.893702	1.789178	-3.707619	-74.529708	-166.206391			
13494	10.949618	-1.123173	3.394853	0.169940	0.983744	1.662673	-3.165332	-74.355919	-167.059008			
13495	10.513257	-0.895420	3.295445	0.191740	0.792808	1.211142	-2.472200	-74.170292	-167.920794			
13496	9.977663	-0.246446	3.926796	1.004017	0.315863	0.860933	-1.611506	-74.007460	-168.772288			
13497	9.656188	0.686209	4.202789	1.475661	-0.502069	0.625052	-0.676094	-73.894178	-169.617342			
13498	9.853342	1.621775	4.451965	1.792773	-1.349837	0.887883	0.196371	-73.831804	-170.409917			
13499	10.091792	2.191277	4.592694	1.942541	-1.862070	1.164468	0.812206	-73.811310	-171.050550			
13500	11.396675	1.968264	4.496229	1.451872	-1.687451	2.394641	1.261288	-73.882074	-171.655403			
13501	13.353853	1.309326	4.027400	0.372227	-1.169308	4.142734	1.555846	-73.991637	-172.240693			
13502	15.338488	0.325964	4.551547	0.194342	-0.176305	6.188035	1.606663	-74.117333	-172.696893			
13503	16.696346	-0.875157	4.894646	-0.006732	1.006045	7.579241	1.300265	-74.144587	-172.927686			
13504	16.439980	-1.608692	3.112353	-1.744349	1.472259	6.840756	1.043785	-73.980021	-173.210013			
13505	15.491801	-2.226906	2.952137	-1.774692	2.097070	5.875601	1.285788	-73.684247	-173.632837			
13506	13.634140	-3.708943	2.474935	-1.985567	3.573693	3.937112	1.559271	-73.360149	-173.818954			
13507	11.651797	-6.023029	2.008338	-2.262575	5.867954	1.871566	1.768047	-73.049781	-173.726786			
13508	8.986121	-5.558446	1.409461	-2.080106	5.398705	-0.859485	1.697155	-72.711082	-173.356472			
13509	6.617550	-3.007882	1.525165	-0.964803	2.953021	-3.066272	1.380597	-72.470702	-172.820056			
13510	5.732178	0.951297	3.572918	1.794212	-0.647647	-3.263647	1.054721	-72.398892	-172.261729			
13511	6.709801	3.068627	4.819011	2.998775	-2.613965	-1.949150	0.332642	-72.421097	-171.558118			
13512	7.011160	3.202443	3.291881	1.490439	-3.021312	-2.138151	-0.757802	-72.400027	-170.749268			
13513	7.130527	2.578795	2.617604	0.716366	-2.556111	-2.243056	-1.951795	-72.373080	-169.981451			
13514	7.631446	1.524056	2.787881	0.574013	-1.568877	-1.716832	-3.146278	-72.428882	-169.322590			
13515	8.168800	-0.285978	2.398173	-0.179802	0.099297	-1.296825	-4.213521	-72.555113	-168.853036			
13516	8.833608	-1.983266	1.930760	-0.993058	1.658564	-0.759699	-5.054153	-72.684546	-168.575484			
13517	9.351507	-3.432333	1.543191	-1.633064	3.006466	-0.330753	-5.751258	-72.778398	-168.414174			
13518	9.687957	-4.428454	1.349232	-1.971457	3.944309	-0.022709	-6.368830	-72.853294	-168.275693			
13519	9.730477	-4.976412	1.405823	-1.935990	4.480007	0.066811	-6.871113	-72.935268	-168.135985			
13520	9.546683	-4.907751	1.629251	-1.623257	4.429577	-0.033966	-7.278021	-73.024852	-167.955359			
13521	8.968272	-4.036153	1.756989	-1.229868	3.595690	-0.573325	-7.630005	-73.108546	-167.723879			
13522	8.338003	-2.854730	2.103928	-0.596167	2.472868	-1.116266	-7.951867	-73.204112	-167.450531			
13523	8.069603	-1.773118	2.359931	-0.165083	1.421136	-1.340096	-8.257274	-73.300796	-167.168552			
13524	7.869843	-0.640165	2.524437	0.162172	0.309624	-1.530487	-8.503670	-73.401390	-166.952154			
13525	8.014341	0.111877	2.440129	0.121285	-0.459455	-1.447845	-8.669830	-73.501195	-166.842880			
13526	8.092216	0.505563	2.393745	0.103028	-0.860738	-1.403284	-8.720243	-73.598663	-166.860789			
13527	8.320917	0.672705	2.539332	0.206756	-1.029237	-1.150338	-8.689716	-73.703881	-166.993077			
13528	8.590025	0.387923	2.371052	-0.037472	-0.768930	-0.926281	-8.660353	-73.812271	-167.179577			
13529	8.646578	-0.115197	2.185810	-0.255220	-0.278070	-0.901354	-8.646680	-73.922833	-167.381696			
13530	8.771652	-0.553532	2.090071	-0.397130	0.150961	-0.788490	-8.624611	-74.034270	-167.589510			
13531	8.875222	-0.992608	1.893097	-0.627637	0.577094	-0.723592	-8.610231	-74.144908	-167.781896			
13532	9.013764	-1.324868	1.782017	-0.775546	0.900048	-0.605776	-8.615485	-74.245168	-167.932220			
13533	9.148702	-1.581900	1.633649	-0.952902	1.145157	-0.504061	-8.657697	-74.341118	-168.016476			
13534	9.108376	-1.556439	1.638063	-0.918483	1.124641	-0.541236	-8.738470	-74.436721	-168.020987			
13535	8.981976	-1.399657	1.570421	-0.923161	0.972025	-0.685581	-8.856597	-74.540276	-167.945229			
13536	9.020451	-1.047165	1.637853	-0.827392	0.620265	-0.643265	-9.002244	-74.663043	-167.798836			
13537	9.070543	-0.614544	1.742544	-0.691628	0.188122	-0.583652	-9.193111	-74.794213	-167.587721			
13538	9.129007	-0.149613	1.849240	-0.551510	-0.277484	-0.517547	-9.405418	-74.935550	-167.339697			
13539	9.181112	0.178808	1.768555	-0.597724	-0.616795	-0.500608	-9.644591	-75.072976	-167.064193			
13540	9.155385	0.426161	1.756110	-0.563011	-0.867663	-0.538166	-9.884513	-75.211284	-166.787613			
13541	9.047520	0.505192	1.662059	-0.597789	-0.950485	-0.668593	-10.148514	-75.345921	-166.493809			
13542	9.065028	0.502029	1.580691	-0.657049	-0.958314	-0.670739	-10.415377	-75.478070	-166.194762			
13543	9.137999	0.494426	1.583930	-0.649447	-0.961148	-0.597988	-10.679287	-75.596127	-165.883594			
13544	9.129272	0.380998	1.573555	-0.643230	-0.854984	-0.602907	-10.969884	-75.706748	-165.532396			
13545	9.127614	0.298390	1.568235	-0.632926	-0.782635	-0.601359	-11.356255	-75.803652	-165.068059			
13546	9.268570	0.259465	1.648111	-0.570950	-0.762068	-0.443419	-11.834465	-75.894603	-164.487625			
13547	9.510305	0.232446	1.689062	-0.569192	-0.767784	-0.198150	-12.454768	-75.967265	-163.735802			
13548	9.598704	0.295196	1.654919	-0.599406	-0.863658	-0.124770	-13.174878	-76.002904	-162.852980			
13549	9.651957	0.304153	1.819294	-0.437333	-0.897370	-0.036902	-13.962989	-75.991417	-161.854789			
13550	9.448502	0.350169	1.837266	-0.361268	-0.961604	-0.235785	-14.778988	-75.924417	-160.792339			
13551	9.297553	0.314365	1.635132	-0.524666	-0.966718	-0.431482	-15.626889	-75.801249	-159.672954			
13552	8.974235	0.432396	1.542752	-0.533920	-1.105822	-0.779645	-16.497081	-75.630513	-158.515556			
13553	8.735429	0.533676	1.388259	-0.626515	-1.242644	-1.061522	-17.438871	-75.429004	-157.302225			
13554	8.714898	0.718710	1.241462	-0.752632	-1.485821	-1.138999	-18.453899	-75.221056	-156.054394			
13555	8.953172	0.914302	1.393522	-0.646926	-1.745006	-0.897906	-19.515213	-75.008405	-154.815894			
13556	9.399780	1.097975	1.835989	-0.310849	-1.994088	-0.386184	-20.560814	-74.789587	-153.661283			
13557	9.782821	1.234432	2.167494	-0.077857	-2.201815	0.039778	-21.477762	-74.542515	-152.710022			
13558	9.775327	1.314267	1.931257	-0.316257	-2.354459	-0.046916	-22.242612	-74.271434	-152.007853			
13559	9.542242	1.287824	1.473775	-0.732283	-2.385102	-0.396760	-22.877117	-74.012174	-151.519382			
13560	9.292241	1.319401	1.164354	-0.993792	-2.446649	-0.731475	-23.400953	-73.804859	-151.197597			
13561	9.192921	1.338089	1.024601	-1.123855	-2.490383	-0.874849	-23.853368	-73.673483	-150.977882			
13562	9.406021	1.008070	0.996103	-1.248945	-2.213837	-0.646407	-24.253571	-73.639806	-150.801494			
13563	9.891746	0.592486	1.226711	-1.184675	-1.865416	-0.075170	-24.640422	-73.687572	-150.601083			
13564	10.609557	0.023626	2.090974	-0.563080	-1.352089	0.901330	-24.993761	-73.813369	-150.352221			
13565	11.463203	-0.325814	2.589163	-0.290911	-1.092460	1.889309	-25.244910	-73.976791	-150.137064			
13566	11.888337	-0.811500	2.761886	-0.236344	-0.650844	2.399582	-25.345545	-74.153883	-150.058823			
13567	11.946493	-1.397660	2.944977	-0.089623	-0.050752	2.570134	-25.407967	-74.368728	-150.069096			
13568	11.943390	-1.664545	3.053922	0.041349	0.241550	2.624408	-25.559595	-74.645194	-150.057688			
13569	11.805622	-2.138988	2.918069	-0.039899	0.741265	2.512557	-25.839821	-74.941815	-150.001665			
13570	11.726801	-2.009062	2.218470	-0.625914	0.602234	2.258807	-26.111600	-75.227294	-150.010751			
13571	11.389129	-1.564928	1.863133	-0.799560	0.209847	1.804060	-26.332126	-75.533918	-150.151367			
13572	11.609023	-2.149546	2.183327	-0.508096	0.809510	2.155719	-26.454205	-75.922696	-150.479888			
13573	11.480306	-3.890985	2.511575	-0.184082	2.610297	2.286759	-26.350544	-76.352809	-151.100489			
13574	10.864406	-6.106959	2.061040	-0.507806	4.922409	1.810073	-26.062564	-76.814378	-151.938454			
13575	10.696965	-8.094098	1.006602	-1.469150	6.960239	1.604293	-25.496737	-77.290004	-152.957365			
13576	10.594689	-9.180243	0.368789	-2.005802	8.120517	1.443108	-24.506391	-77.716559	-154.137406			
13577	10.880992	-9.172467	-0.135891	-2.497451	8.157033	1.579128	-23.256383	-78.091204	-155.249638			
13578	11.087359	-8.149778	-0.201237	-2.563952	7.186761	1.640042	-21.760112	-78.405123	-156.250806			
13579	11.150557	-6.153534	0.763183	-1.583762	5.280823	1.693280	-20.012235	-78.678866	-157.162788			
13580	10.873418	-3.759796	2.305279	0.069183	3.058965	1.515098	-18.033318	-78.914416	-158.133386			
13581	10.623387	-1.650723	3.826994	1.736344	1.170306	1.405223	-16.016761	-79.125379	-159.152373			
13582	11.103301	0.628072	4.800786	2.814912	-0.933494	1.931624	-14.018572	-79.302787	-160.316605			
13583	11.352806	2.568991	4.964826	3.153597	-2.748821	2.130229	-12.148020	-79.421202	-161.650222			
13584	11.456975	3.631364	4.792471	3.098652	-3.737600	2.180854	-10.450311	-79.470908	-163.124575			
13585	11.696026	3.708637	4.422780	2.688125	-3.804958	2.369592	-8.959811	-79.407303	-164.681818			
13586	11.398319	2.865514	3.860004	2.040351	-2.977949	2.019503	-7.729447	-79.179889	-166.217112			
13587	10.963187	1.546267	3.214720	1.259316	-1.700227	1.520420	-6.864720	-78.768987	-167.542698			
13588	9.994269	0.395808	2.123965	0.164268	-0.617266	0.392434	-6.385950	-78.264733	-168.609289			
13589	9.381131	-0.588871	1.507436	-0.496674	0.334700	-0.311878	-6.012430	-77.714320	-169.528071			
13590	8.790313	-0.914349	1.472046	-0.520239	0.680092	-0.894235	-5.639314	-77.140362	-170.369424			
13591	8.218876	-0.988605	1.706234	-0.254979	0.791719	-1.401616	-5.249167	-76.561682	-171.135210			
13592	7.657216	-1.048113	1.574642	-0.334045	0.865447	-1.980065	-4.873616	-75.999220	-171.871031			
13593	7.168706	-1.127963	1.502662	-0.358981	0.962008	-2.473342	-4.482541	-75.476895	-172.576799			
13594	7.074206	-1.062386	1.524715	-0.368707	0.907876	-2.564421	-4.038875	-75.025175	-173.297033			
13595	6.841639	-1.070017	1.499149	-0.383456	0.931467	-2.799446	-3.570664	-74.639602	-173.982857			
13596	6.760970	-0.869418	1.980582	0.068987	0.764958	-2.755829	-3.009630	-74.316487	-174.714145			
13597	6.984591	-0.591482	2.270301	0.262673	0.507654	-2.466818	-2.427735	-74.054212	-175.418748			
13598	7.139613	-0.266092	2.565344	0.484475	0.206555	-2.239815	-1.852892	-73.832844	-176.111412			
13599	7.415445	0.035509	2.752200	0.569896	-0.076511	-1.923836	-1.328776	-73.649774	-176.746347			
13600	7.795725	0.274499	2.751322	0.445411	-0.304827	-1.558775	-0.882764	-73.498440	-177.323337			
13601	8.005019	0.414091	2.767897	0.383952	-0.432158	-1.352260	-0.522707	-73.366315	-177.827666			
13602	8.362062	0.531499	2.644618	0.145868	-0.543688	-1.044355	-0.208884	-73.240435	-178.293996			
13603	8.209110	0.620891	2.415203	-0.047101	-0.625940	-1.256161	0.041432	-73.130505	-178.683788			
13604	7.901306	0.732363	2.298677	-0.082375	-0.728738	-1.583893	0.228312	-73.051970	-178.995738			
13605	7.676437	0.872018	2.231984	-0.086804	-0.863033	-1.817846	0.313357	-73.024918	-179.172459			
13606	7.426626	0.955724	2.290529	0.042084	-0.943070	-2.039429	0.293330	-73.049257	-179.234954			
13607	7.304504	1.156302	2.348033	0.142152	-1.145102	-2.139710	0.163703	-73.128158	-179.165740			
13608	7.370878	1.412762	2.288957	0.083978	-1.409099	-2.094370	-0.039510	-73.263258	-179.029525			
13609	7.458353	1.682045	2.220296	0.017292	-1.688787	-2.032349	-0.308265	-73.439039	-178.820610			
13610	7.585707	1.939087	2.290338	0.076750	-1.955798	-1.893246	-0.594582	-73.649778	-178.619983			
13611	7.655476	2.209556	2.437154	0.229872	-2.235981	-1.789245	-0.901116	-73.879725	-178.414902			
13612	7.688168	2.283857	2.849081	0.647429	-2.317394	-1.648643	-1.174681	-74.137237	-178.294925			
13613	7.849031	2.269694	3.351358	1.119138	-2.311267	-1.363080	-1.374850	-74.415986	-178.288174			
13614	8.151913	2.157305	3.666285	1.374022	-2.209194	-0.993350	-1.463511	-74.696661	-178.450901			
13615	8.615910	1.894352	3.986954	1.594122	-1.957204	-0.466763	-1.467596	-74.966456	-178.746589			
13616	9.440959	1.662702	4.001950	1.426109	-1.736254	0.329475	-1.374091	-75.189307	-179.209586			
13617	10.145901	1.340853	3.555596	0.841416	-1.415545	0.895612	-1.291019	-75.355433	-179.743569			
13618	10.989596	0.722484	3.655984	0.752102	-0.804037	1.739251	-1.268250	-75.453529	179.728486			
13619	11.532532	0.375701	3.308394	0.289195	-0.457457	2.178684	-1.488610	-75.422240	179.375683			
13620	11.794169	-0.037486	3.296140	0.209286	-0.064559	2.431507	-1.972946	-75.318564	179.265622			
13621	11.911905	-0.343455	3.079141	-0.040674	0.217744	2.493542	-2.710700	-75.190793	179.425402			
13622	11.700153	-0.565178	2.532496	-0.528159	0.429090	2.152398	-3.579648	-75.044424	179.755363			
13623	11.233141	-0.326659	2.808105	-0.184420	0.131552	1.768509	-4.356676	-74.907820	-179.827204			
13624	10.286550	0.479791	3.514866	0.661287	-0.758684	1.021729	-4.935557	-74.799357	-179.435736			
13625	8.989068	1.310533	4.093569	1.480808	-1.653185	-0.099177	-5.349992	-74.742497	-179.091419			
13626	8.613287	1.361454	5.213148	2.649714	-1.808221	-0.172744	-5.635636	-74.788173	-178.912998			
13627	9.632380	0.920392	4.811009	2.036836	-1.358711	0.712560	-5.848597	-74.874371	-178.923607			
13628	11.713976	0.321359	3.870340	0.651727	-0.708042	2.490724	-6.009195	-74.982097	-179.062588			
13629	14.489015	-0.110840	2.810033	-1.029818	-0.200587	4.909382	-6.045001	-75.071644	-179.201024			
13630	15.773219	-0.213102	3.904573	-0.279816	-0.205664	6.434310	-6.121351	-75.124189	-179.250439			
13631	15.411533	-1.670122	4.457336	0.482317	1.182770	6.266520	-6.340404	-75.099295	-179.286233			
13632	14.344872	-2.958589	3.129083	-0.414518	2.587741	4.933548	-6.438683	-74.933132	-179.494827			
13633	13.546206	-3.131542	1.639090	-1.662994	2.921447	3.777463	-6.226424	-74.679517	-179.808745			
13634	13.132387	-2.845190	1.381711	-1.885190	2.677292	3.292338	-5.994301	-74.454184	-179.908722			
13635	12.075098	-4.159989	2.623542	-0.346188	3.871085	2.632829	-5.669520	-74.242957	-179.848351			
13636	10.897181	-5.612209	3.020344	0.411710	5.295191	1.639770	-5.439378	-74.002003	-179.702498			
13637	10.283924	-4.820111	2.219007	-0.331845	4.584236	0.807614	-5.487735	-73.741685	-179.363924			
13638	8.812740	-2.026568	3.043126	0.584643	1.728277	-0.447697	-5.741226	-73.505678	-178.876916			
13639	6.964377	1.728952	3.845593	1.557511	-2.081864	-2.097743	-6.249742	-73.308503	-178.183164			
13640	5.514910	3.324182	3.597442	1.604244	-3.659642	-3.612740	-7.084681	-73.149245	-177.351643			
13641	4.987802	2.671096	2.799900	1.028359	-2.965739	-4.335541	-8.035554	-73.039034	-176.553683			
13642	5.224401	1.478371	1.718541	0.004514	-1.718771	-4.383224	-8.905690	-73.007137	-175.944882			
13643	6.605705	0.564475	1.856201	-0.195251	-0.873072	-2.986340	-9.628060	-73.099035	-175.481504			
13644	8.378284	-0.591564	2.012236	-0.449062	0.202157	-1.189921	-10.121882	-73.239838	-175.260229			
13645	9.707129	-2.309800	1.656070	-0.995157	1.900233	0.071886	-10.476669	-73.358071	-175.201621			
13646	10.446722	-3.640644	1.341817	-1.352117	3.229481	0.767052	-10.760288	-73.441358	-175.226296			
13647	10.910065	-4.497432	1.460697	-1.256027	4.050639	1.296079	-10.986310	-73.509721	-175.238997			
13648	10.926012	-4.948773	1.708722	-0.950941	4.463784	1.410418	-11.192927	-73.581782	-175.157895			
13649	10.321574	-4.683310	2.000167	-0.513076	4.171384	0.902034	-11.422651	-73.639019	-174.916942			
13650	9.134623	-3.880120	1.869718	-0.380200	3.405573	-0.312687	-11.726002	-73.684386	-174.516361			
13651	8.446272	-2.569679	2.005642	-0.186263	2.091998	-1.006202	-12.106164	-73.751659	-173.959857			
13652	8.003334	-1.253062	2.348077	0.142841	0.743985	-1.412507	-12.515167	-73.813704	-173.359603			
13653	7.905714	-0.353780	2.400651	0.144101	-0.166848	-1.545888	-12.898728	-73.855941	-172.801079			
13654	7.786208	0.214557	2.093338	-0.159766	-0.709042	-1.779952	-13.243684	-73.894852	-172.330911			
13655	7.887384	0.251225	2.170479	-0.105932	-0.769225	-1.665175	-13.555915	-73.965999	-171.921002			
13656	8.313300	-0.087855	1.925332	-0.413441	-0.435664	-1.300061	-13.905226	-74.057047	-171.528146			
13657	8.497073	-0.662701	1.773401	-0.542935	0.130665	-1.125198	-14.268102	-74.163281	-171.124150			
13658	8.682543	-1.265506	1.717777	-0.575166	0.715064	-0.919058	-14.630471	-74.296163	-170.711569			
13659	8.795526	-1.771915	1.696184	-0.562694	1.203505	-0.778701	-14.963370	-74.425178	-170.285387			
13660	8.472604	-2.001049	1.453582	-0.672904	1.458360	-1.133836	-15.281060	-74.545786	-169.846197			
13661	8.435444	-2.317728	1.454106	-0.621361	1.763363	-1.143926	-15.613980	-74.673085	-169.332322			
13662	8.396934	-2.358409	1.443482	-0.603832	1.794492	-1.177330	-15.972534	-74.796391	-168.749781			
13663	8.282579	-2.206925	1.310674	-0.700237	1.647347	-1.328267	-16.371795	-74.925303	-168.062394			
13664	8.344633	-2.049810	1.355612	-0.669324	1.468564	-1.264729	-16.803842	-75.062033	-167.298759			
13665	8.653270	-1.720804	1.436665	-0.673097	1.099941	-0.967278	-17.280891	-75.201125	-166.436744			
13666	9.127943	-1.256908	1.626416	-0.613035	0.578333	-0.494209	-17.738450	-75.340294	-165.577273			
13667	9.493910	-0.699462	1.748972	-0.588086	-0.026018	-0.151637	-18.196931	-75.452138	-164.695770			
13668	9.671079	-0.258985	1.854934	-0.522962	-0.500194	0.011460	-18.610212	-75.540523	-163.872093			
13669	9.929524	0.201424	1.958357	-0.477645	-0.998195	0.249448	-18.953704	-75.600651	-163.121929			
13670	9.932357	0.594291	1.900447	-0.524809	-1.401639	0.206122	-19.256393	-75.634116	-162.454580			
13671	9.815433	0.815876	1.843220	-0.540805	-1.626643	0.059869	-19.568772	-75.636339	-161.818656			
13672	9.635065	0.881261	1.824971	-0.505392	-1.693440	-0.126696	-19.899737	-75.612769	-161.202001			
13673	9.422530	0.812292	1.784588	-0.486121	-1.625886	-0.339104	-20.324250	-75.566581	-160.519687			
13674	9.365748	0.720298	1.839583	-0.413645	-1.553461	-0.376812	-20.818296	-75.507757	-159.791122			
13675	9.418569	0.636843	1.880983	-0.382199	-1.502232	-0.312674	-21.384450	-75.427358	-158.989221			
13676	9.412240	0.574016	1.874573	-0.386312	-1.468535	-0.319118	-21.974806	-75.323977	-158.165727			
13677	9.380027	0.599799	1.907955	-0.347892	-1.523126	-0.349922	-22.541351	-75.194743	-157.340946			
13678	9.340754	0.579818	1.907025	-0.345429	-1.530750	-0.391434	-23.042350	-75.038788	-156.570567			
13679	9.087764	0.527712	1.797407	-0.401887	-1.483454	-0.662038	-23.497431	-74.862308	-155.829845			
13680	8.886978	0.509645	1.623245	-0.535153	-1.474621	-0.901344	-23.930792	-74.670311	-155.129732			
13681	8.843891	0.348192	1.726986	-0.441423	-1.340492	-0.906159	-24.375467	-74.479113	-154.427360			
13682	8.974310	0.216903	1.905316	-0.317963	-1.255904	-0.727699	-24.841043	-74.283707	-153.747199			
13683	9.071879	0.080698	1.934648	-0.333413	-1.165829	-0.616062	-25.317723	-74.079074	-153.083087			
13684	9.156448	0.135048	1.805904	-0.492770	-1.266470	-0.578340	-25.785236	-73.873802	-152.480852			
13685	9.073724	0.340721	1.486746	-0.787738	-1.498325	-0.768720	-26.225294	-73.680136	-151.949037			
13686	8.904768	0.778228	1.154266	-1.061209	-1.944388	-1.076214	-26.577498	-73.508378	-151.544369			
13687	8.748305	1.459924	1.149644	-1.005185	-2.622046	-1.321496	-26.803717	-73.367798	-151.262606			
13688	8.687776	1.847112	1.508107	-0.633393	-3.005808	-1.343474	-26.870336	-73.278055	-151.148132			
13689	9.081833	1.954325	1.904169	-0.347486	-3.165940	-0.880666	-26.879421	-73.261768	-151.086292			
13690	9.717677	1.527386	2.376122	-0.068208	-2.822228	-0.094535	-26.906325	-73.330923	-151.049338			
13691	10.671458	0.804788	2.742155	0.027308	-2.228173	1.007736	-27.068623	-73.466418	-150.911886			
13692	11.658696	0.015221	2.633231	-0.334153	-1.580992	2.029949	-27.329845	-73.624413	-150.693668			
13693	12.129710	-0.830364	2.808835	-0.284740	-0.804180	2.636449	-27.655229	-73.789560	-150.376347			
13694	12.532053	-1.489302	3.189659	-0.000566	-0.200980	3.202830	-28.075135	-73.983329	-149.985263			
13695	12.539566	-1.426282	3.049157	-0.080644	-0.270686	3.167771	-28.643030	-74.191556	-149.484264			
13696	11.978893	-1.344899	2.678230	-0.246217	-0.289052	2.529560	-29.367043	-74.402034	-148.935794			
13697	11.367337	-1.494949	2.481006	-0.242124	-0.069889	1.915175	-30.159521	-74.638710	-148.395740			
13698	11.182319	-0.951054	2.192466	-0.394717	-0.591335	1.600017	-30.911105	-74.923364	-148.014460			
13699	11.378178	-1.684288	2.265634	-0.315489	0.113907	1.905662	-31.610002	-75.304730	-147.789144			
13700	12.203910	-2.813585	1.809640	-0.871517	1.147468	2.759077	-32.081859	-75.721731	-147.914972			
13701	12.024582	-4.791782	1.272189	-1.274376	3.182042	2.733997	-32.385561	-76.152050	-148.254523			
13702	11.846302	-7.161952	0.098046	-2.261527	5.642735	2.624399	-32.441997	-76.561409	-148.812234			
13703	11.474272	-9.005465	-0.649401	-2.788260	7.610624	2.331521	-32.000704	-76.890111	-149.580666			
13704	11.063231	-9.636868	-0.317575	-2.317972	8.338235	2.039129	-31.044228	-77.135685	-150.453213			
13705	10.810542	-9.348758	0.048399	-1.941029	8.122912	1.785563	-29.738062	-77.309580	-151.259195			
13706	10.401468	-7.813268	0.714951	-1.302930	6.674493	1.300413	-28.117960	-77.424803	-152.029980			
13707	9.954036	-5.626623	1.828273	-0.212360	4.590848	0.815673	-26.393156	-77.533573	-152.647519			
13708	9.406934	-3.236770	2.875503	0.904039	2.350254	0.231900	-24.680438	-77.646134	-153.185445			
13709	9.345842	-1.035374	3.842301	1.928946	0.284295	0.156142	-23.083030	-77.765712	-153.666482			
13710	9.621324	1.035600	4.499192	2.657419	-1.671184	0.386797	-21.596213	-77.886141	-154.264430			
13711	10.218565	2.541857	4.714391	2.897826	-3.116670	0.910833	-20.259925	-77.969751	-154.963814			
13712	10.443231	3.165527	4.421351	2.637685	-3.707124	1.046849	-19.060519	-77.989999	-155.859994			
13713	10.678020	2.798120	3.923879	2.063689	-3.355021	1.220502	-18.046371	-77.957323	-156.807679			
13714	10.561394	1.881347	3.403371	1.457818	-2.448515	1.075140	-17.103524	-77.835117	-157.895749			
13715	10.181477	0.740822	2.845987	0.831684	-1.310739	0.670676	-16.167967	-77.613807	-159.062950			
13716	9.830747	-0.093970	2.371905	0.304108	-0.475955	0.284787	-15.274870	-77.312443	-160.261339			
13717	9.389581	-0.673818	2.072871	-0.009068	0.123277	-0.174253	-14.467138	-76.967911	-161.363127			
13718	8.888709	-1.127917	2.066095	-0.006851	0.619123	-0.638461	-13.749462	-76.599226	-162.377504			
13719	8.577326	-1.345018	2.236060	0.149836	0.873351	-0.891137	-13.056701	-76.209668	-163.303594			
13720	8.045582	-1.195093	2.247825	0.232882	0.766385	-1.412064	-12.407416	-75.811590	-164.177838			
13721	7.624567	-1.004296	1.972642	0.021098	0.594435	-1.895623	-11.859779	-75.425052	-164.921348			
13722	7.289900	-0.855179	1.888546	-0.020149	0.468807	-2.248283	-11.315338	-75.081160	-165.651512			
13723	7.188745	-0.743203	1.989134	0.065300	0.375772	-2.326604	-10.752571	-74.790321	-166.360257			
13724	7.234489	-0.634032	2.291731	0.314145	0.287342	-2.209366	-10.175467	-74.549128	-167.045556			
13725	7.369864	-0.524375	2.580459	0.530403	0.193365	-2.006932	-9.644932	-74.347337	-167.658049			
13726	7.486931	-0.468892	2.754357	0.641278	0.148773	-1.848578	-9.213582	-74.172904	-168.204844			
13727	7.611369	-0.445660	2.862753	0.688700	0.129931	-1.698769	-8.915868	-74.021863	-168.641557			
13728	7.812965	-0.368635	2.951972	0.701663	0.048882	-1.482160	-8.715841	-73.881628	-169.002757			
13729	7.778343	-0.314745	2.886781	0.630159	-0.005495	-1.533918	-8.630366	-73.744935	-169.266860			
13730	7.792130	-0.364436	2.832821	0.553994	0.038439	-1.532194	-8.620334	-73.626232	-169.459066			
13731	7.703609	-0.420384	2.706567	0.440747	0.090431	-1.649026	-8.669759	-73.536894	-169.579968			
13732	7.683713	-0.375558	2.520288	0.259349	0.036356	-1.721721	-8.780649	-73.474490	-169.612606			
13733	7.645795	-0.199193	2.420920	0.175219	-0.147277	-1.793565	-8.960994	-73.444417	-169.535949			
13734	7.588885	0.022240	2.389240	0.167289	-0.374794	-1.867143	-9.203864	-73.446341	-169.359957			
13735	7.378922	0.352250	2.303146	0.158570	-0.705362	-2.108509	-9.537255	-73.488722	-169.063372			
13736	7.211963	0.670964	2.220663	0.147355	-1.028177	-2.308352	-9.961111	-73.582240	-168.653424			
13737	7.255798	1.078253	2.422435	0.360086	-1.448021	-2.233048	-10.473458	-73.720412	-168.160303			
13738	7.412167	1.346966	2.653938	0.571866	-1.738811	-2.037899	-11.116531	-73.890764	-167.603449			
13739	7.725493	1.287092	2.907330	0.756988	-1.717193	-1.672019	-11.919941	-74.091925	-166.984463			
13740	8.317444	1.016869	3.158766	0.867966	-1.510079	-1.028737	-12.807939	-74.329885	-166.360642			
13741	9.099917	0.714855	3.318648	0.850517	-1.288003	-0.223612	-13.628137	-74.576778	-165.829612			
13742	9.822617	0.567170	3.589917	0.964550	-1.215948	0.545108	-14.321054	-74.785768	-165.447745			
13743	10.242755	0.213735	3.770138	1.060288	-0.920363	1.013311	-14.938180	-74.918693	-165.197245			
13744	10.376592	-0.265825	3.495749	0.778593	-0.477860	1.101978	-15.525916	-74.974758	-165.022089			
13745	10.416600	-0.717577	2.724668	0.032979	-0.044318	0.978104	-16.071189	-74.975752	-164.908765			
13746	10.451314	-0.955690	2.397712	-0.285995	0.176239	0.947398	-16.510589	-74.949173	-164.852502			
13747	10.184936	-0.902310	2.252605	-0.359674	0.128169	0.650366	-16.848521	-74.920061	-164.826403			
13748	9.959516	-0.398235	2.280780	-0.286302	-0.370508	0.401678	-16.991642	-74.910514	-164.868477			
13749	9.910256	0.515452	2.881883	0.285431	-1.303387	0.434450	-16.887858	-74.913051	-165.019817			
13750	9.870936	1.652051	3.406057	0.774334	-2.445638	0.443293	-16.563169	-74.928924	-165.326383			
13751	9.845913	2.648687	4.095619	1.423543	-3.448865	0.522227	-16.158174	-74.961537	-165.748483			
13752	10.341122	2.836031	4.654609	1.832556	-3.672026	1.132868	-15.743516	-75.012929	-166.295112			
13753	11.298199	2.871739	4.435446	1.367254	-3.739162	2.007575	-15.296945	-75.036015	-167.001022			
13754	12.092325	2.538009	4.181754	0.908353	-3.425257	2.741009	-14.946477	-75.030485	-167.743227			
13755	13.163587	1.551074	4.018997	0.496650	-2.475983	3.805719	-14.619358	-75.071155	-168.500770			
13756	14.301037	0.674297	3.900922	0.126757	-1.633091	4.935479	-14.298594	-75.126660	-169.312242			
13757	15.212412	-0.538270	4.172865	0.222157	-0.469952	5.962286	-14.109939	-75.141983	-170.115283			
13758	15.827246	-2.166579	3.425159	-0.552829	1.196662	6.471964	-13.957824	-75.077067	-170.922188			
13759	15.899824	-3.080679	2.263080	-1.645258	2.235275	6.302923	-13.475560	-74.880127	-171.858927			
13760	15.036463	-3.898114	2.272434	-1.398630	3.122700	5.508751	-12.741503	-74.601315	-172.801744			
13761	14.064487	-5.614253	3.435684	0.056861	4.787446	4.959249	-12.033451	-74.318280	-173.555017			
13762	12.891287	-7.685479	2.763937	-0.171617	6.989617	3.752195	-11.309081	-73.987777	-174.129381			
13763	10.074417	-7.521060	1.797718	-0.430910	7.024583	0.759016	-10.967438	-73.646455	-174.270295			
13764	7.937706	-4.317711	2.501311	0.502872	3.830672	-1.269901	-11.122749	-73.383255	-173.909675			
13765	6.408679	0.249754	3.681218	1.665375	-0.787324	-2.650877	-11.502136	-73.199953	-173.366003			
13766	6.057113	2.666310	4.206416	2.071225	-3.243449	-2.980280	-12.083128	-73.118127	-172.775413			
13767	6.087068	2.518280	3.289192	1.188675	-3.040776	-3.213177	-12.910731	-73.047949	-172.159498			
13768	5.947628	1.609483	2.206329	0.253012	-2.060739	-3.606091	-13.814741	-72.980981	-171.623150			
13769	6.442979	0.813243	2.060063	0.028939	-1.306222	-3.126129	-14.718754	-73.004380	-171.155317			
13770	7.482392	-0.304415	2.004999	-0.211644	-0.266485	-2.067821	-15.569327	-73.141725	-170.753553			
13771	8.849276	-2.054755	1.745411	-0.645267	1.411916	-0.693033	-16.227608	-73.320641	-170.526243			
13772	9.794490	-3.691412	1.463333	-0.963099	3.008743	0.272926	-16.653726	-73.459032	-170.495624			
13773	10.084942	-5.040492	1.170277	-1.125758	4.358970	0.589910	-17.038120	-73.535460	-170.495339			
13774	9.844652	-5.619516	1.051087	-1.062091	4.947008	0.385344	-17.475742	-73.589190	-170.352289			
13775	9.411078	-5.805212	1.313158	-0.637072	5.096605	0.067187	-17.943275	-73.651294	-170.037339			
13776	8.861236	-5.325199	1.651422	-0.202705	4.581718	-0.401356	-18.368743	-73.721560	-169.626565			
13777	8.246782	-4.487602	1.920234	0.127466	3.731033	-0.986680	-18.718036	-73.797131	-169.176756			
13778	7.709112	-3.316714	2.045892	0.255153	2.573327	-1.570748	-19.033983	-73.882461	-168.694564			
13779	7.624651	-2.179830	2.337919	0.427153	1.405640	-1.676685	-19.277811	-73.985694	-168.255585			
13780	7.688933	-1.345499	2.272654	0.261108	0.583435	-1.707971	-19.398526	-74.092667	-167.947622			
13781	7.868447	-0.621839	2.138625	0.016157	-0.122535	-1.636040	-19.365613	-74.206324	-167.801648			
13782	8.074932	-0.104176	2.186636	-0.034062	-0.645750	-1.471311	-19.211799	-74.329343	-167.798491			
13783	8.539229	-0.011507	2.125150	-0.207550	-0.745196	-1.047051	-18.999892	-74.456597	-167.897559			
13784	8.924153	-0.231905	1.943524	-0.440184	-0.512600	-0.701430	-18.766670	-74.583282	-168.041708			
13785	9.337855	-0.662245	1.949525	-0.478028	-0.097687	-0.262993	-18.584786	-74.699666	-168.150571			
13786	9.523726	-1.016429	1.859175	-0.560408	0.264279	-0.075794	-18.446209	-74.781291	-168.222337			
13787	9.410450	-1.374847	1.617511	-0.716051	0.661344	-0.215135	-18.372609	-74.835606	-168.222260			
13788	9.143498	-1.581057	1.644400	-0.594304	0.879103	-0.448857	-18.368539	-74.874632	-168.126654			
13789	8.841884	-1.798995	1.600341	-0.533452	1.115265	-0.732599	-18.437858	-74.908240	-167.921987			
13790	8.660849	-1.826533	1.495118	-0.582186	1.160317	-0.930310	-18.587220	-74.948154	-167.617970			
13791	8.515220	-1.766401	1.491534	-0.549370	1.101039	-1.075428	-18.841472	-75.001340	-167.175155			
13792	8.677275	-1.471266	1.443982	-0.655584	0.793153	-0.953460	-19.156014	-75.071235	-166.635620			
13793	8.887417	-1.042600	1.590013	-0.594056	0.325998	-0.749458	-19.521951	-75.149446	-166.023465			
13794	8.975549	-0.694449	1.725629	-0.499352	-0.052681	-0.660181	-19.877888	-75.235683	-165.412176			
13795	9.170855	-0.472772	1.905705	-0.373416	-0.315809	-0.446760	-20.220670	-75.325497	-164.813805			
13796	9.309029	-0.316166	1.972154	-0.335287	-0.497718	-0.310730	-20.533182	-75.415134	-164.252958			
13797	9.458064	-0.136172	2.013591	-0.324884	-0.700410	-0.172568	-20.818574	-75.492846	-163.726100			
13798	9.461079	-0.074409	1.937269	-0.386433	-0.764663	-0.193098	-21.080535	-75.549546	-163.222791			
13799	9.428904	-0.029164	1.957248	-0.348387	-0.819292	-0.223982	-21.353649	-75.581951	-162.697078			
13800	9.385151	-0.003695	1.839095	-0.443158	-0.844302	-0.296696	-21.666901	-75.592021	-162.123175			
13801	9.316920	-0.043756	1.852286	-0.404383	-0.815985	-0.357081	-22.030101	-75.571822	-161.470207			
13802	9.322451	0.021750	1.872842	-0.383716	-0.901498	-0.354562	-22.431229	-75.534652	-160.750346			
13803	9.326922	0.055586	1.941252	-0.316469	-0.961657	-0.339671	-22.884536	-75.468355	-159.950790			
13804	9.264288	0.256476	1.818294	-0.426899	-1.172709	-0.450986	-23.329614	-75.384863	-159.134090			
13805	9.045231	0.410393	1.497385	-0.689880	-1.314867	-0.756092	-23.784201	-75.293422	-158.299038			
13806	9.052895	0.574288	1.442344	-0.745901	-1.503280	-0.782250	-24.253520	-75.203511	-157.456535			
13807	9.179369	0.517395	1.955989	-0.271671	-1.507432	-0.538627	-24.741624	-75.111988	-156.619060			
13808	9.233593	0.462032	2.116388	-0.126264	-1.490625	-0.447120	-25.256401	-74.999288	-155.826988			
13809	9.122711	0.277623	2.227622	0.006572	-1.328318	-0.512221	-25.813274	-74.865633	-155.052306			
13810	8.896260	0.248732	2.162910	-0.008234	-1.303937	-0.747199	-26.401488	-74.719686	-154.321149			
13811	8.791763	0.366632	2.011157	-0.136988	-1.437127	-0.902576	-27.003989	-74.581395	-153.641504			
13812	8.641750	0.797998	1.918296	-0.195261	-1.875727	-1.127070	-27.577922	-74.460628	-153.048749			
13813	8.500358	1.292199	1.894581	-0.186415	-2.374472	-1.336699	-28.055979	-74.369417	-152.586553			
13814	8.612944	1.672071	1.839390	-0.268005	-2.782977	-1.295342	-28.389350	-74.316133	-152.292844			
13815	9.021004	1.603932	1.904203	-0.303295	-2.779399	-0.881839	-28.561376	-74.313938	-152.157903			
13816	9.757936	1.352521	1.797010	-0.579205	-2.622636	-0.165813	-28.645652	-74.370612	-152.109631			
13817	10.529053	0.830958	1.827921	-0.720657	-2.200747	0.652975	-28.761003	-74.473811	-152.026816			
13818	11.368674	-0.001380	1.750514	-0.972691	-1.475524	1.553389	-28.991430	-74.604485	-151.824493			
13819	12.203129	-0.771247	1.988814	-0.905965	-0.825379	2.514698	-29.348546	-74.732275	-151.449020			
13820	12.667807	-1.217982	2.205213	-0.770119	-0.456043	3.072134	-29.773735	-74.831308	-150.929160			
13821	12.459223	-1.393865	2.490003	-0.416274	-0.277038	2.959357	-30.205656	-74.899277	-150.346858			
13822	11.854232	-1.174120	2.957343	0.204982	-0.442537	2.451460	-30.668222	-74.981709	-149.730942			
13823	11.166182	-0.926598	2.831436	0.271207	-0.608194	1.724888	-31.236622	-75.099172	-149.085339			
13824	10.503497	-0.976739	2.598081	0.229242	-0.478116	1.038404	-31.894163	-75.263975	-148.427590			
13825	10.251258	-0.947229	2.677339	0.409048	-0.483733	0.805794	-32.579029	-75.487451	-147.823196			
13826	10.785416	-1.365430	2.539576	0.216901	-0.137795	1.348524	-33.210480	-75.793561	-147.381012			
13827	11.812366	-1.655043	1.758062	-0.690515	0.046729	2.224024	-33.669620	-76.144630	-147.224048			
13828	12.146040	-3.139471	1.437559	-0.987196	1.514581	2.684507	-33.981981	-76.523938	-147.289617			
13829	12.096068	-5.106540	1.059814	-1.238453	3.526956	2.818255	-34.080089	-76.899947	-147.549446			
13830	11.562659	-7.048352	0.771780	-1.296871	5.578702	2.482245	-33.986680	-77.261620	-147.890689			
13831	10.998464	-8.109398	0.082122	-1.773369	6.778681	1.919296	-33.613076	-77.573481	-148.352392			
13832	10.372574	-8.438930	-0.223789	-1.926513	7.238468	1.266518	-32.770099	-77.805590	-148.977727			
13833	9.455659	-8.192847	0.234888	-1.346090	7.121276	0.388403	-31.490525	-77.979191	-149.723511			
13834	9.166440	-7.357974	0.644131	-0.979090	6.356131	0.047242	-29.915131	-78.144850	-150.449145			
13835	8.972914	-5.641113	1.208022	-0.475034	4.712196	-0.254279	-28.176233	-78.316120	-151.122339			
13836	8.548599	-3.759466	2.147566	0.488366	2.950454	-0.708861	-26.377358	-78.510866	-151.705421			
13837	8.643168	-1.771772	3.075651	1.427512	1.072048	-0.641251	-24.553139	-78.729869	-152.319573			
13838	9.267550	0.052147	3.997876	2.337070	-0.650435	-0.015385	-22.688316	-78.939599	-153.090471			
13839	9.742740	1.602684	4.311781	2.708195	-2.103767	0.401024	-20.899843	-79.083603	-154.047593			
13840	10.052837	2.533754	4.119642	2.574446	-2.978274	0.625341	-19.300348	-79.148746	-155.091791			
13841	10.179983	2.722409	3.864700	2.327603	-3.132384	0.711077	-17.925520	-79.159198	-156.169960			
13842	10.381183	2.232050	3.672311	2.039051	-2.630802	0.918474	-16.639405	-79.097171	-157.314878			
13843	10.469236	1.331792	3.109239	1.340377	-1.764800	0.963888	-15.444002	-78.954221	-158.543803			
13844	10.468413	0.050008	2.685954	0.738420	-0.508031	0.957683	-14.302286	-78.737246	-159.765746			
13845	10.325491	-1.020820	2.625136	0.531525	0.581417	0.861030	-13.134645	-78.456563	-161.009267			
13846	9.979275	-1.824651	2.438783	0.264516	1.406429	0.522423	-11.977163	-78.131374	-162.211870			
13847	9.453834	-2.411788	2.264135	0.069220	2.026842	-0.004287	-10.880880	-77.791221	-163.342387			
13848	8.828586	-2.542351	2.204082	0.059639	2.208272	-0.626552	-9.854218	-77.449285	-164.343155			
13849	8.230271	-2.342797	2.096287	0.040126	2.053206	-1.245139	-8.855409	-77.104026	-165.281330			
13850	7.575701	-1.839191	2.105255	0.186052	1.609108	-1.901818	-7.888169	-76.774787	-166.113419			
13851	7.203376	-1.236642	2.046995	0.226942	1.043331	-2.298178	-6.979875	-76.479225	-166.861248			
13852	7.009628	-0.764751	2.041810	0.275892	0.603597	-2.501866	-6.094928	-76.239251	-167.526074			
13853	7.008374	-0.269170	2.186179	0.439251	0.148177	-2.480967	-5.218472	-76.064566	-168.155599			
13854	7.430893	0.165286	2.612377	0.777424	-0.231304	-1.976106	-4.339154	-75.941830	-168.746495			
13855	7.916983	0.452683	2.986120	1.036431	-0.468086	-1.415839	-3.539370	-75.830477	-169.301118			
13856	8.279789	0.533704	2.906628	0.863300	-0.547500	-1.080957	-2.864372	-75.718184	-169.777285			
13857	8.676365	0.618077	2.949405	0.797524	-0.621259	-0.683710	-2.299977	-75.586812	-170.204878			
13858	8.767187	0.568945	2.921884	0.717241	-0.561040	-0.598818	-1.789238	-75.430889	-170.603690			
13859	8.620577	0.673084	2.719211	0.545487	-0.669391	-0.789618	-1.385267	-75.265078	-170.939406			
13860	8.366385	0.708255	2.420323	0.301638	-0.721399	-1.109554	-1.050390	-75.110467	-171.192829			
13861	8.101780	0.897662	2.243631	0.203511	-0.912965	-1.410095	-0.771083	-74.982178	-171.385914			
13862	7.851550	1.060427	2.237746	0.268848	-1.057827	-1.652568	-0.547331	-74.887709	-171.473156			
13863	7.707877	1.303621	2.349097	0.437865	-1.272326	-1.761693	-0.409980	-74.834258	-171.438529			
13864	7.540700	1.637708	2.391749	0.569713	-1.586870	-1.911930	-0.399897	-74.831554	-171.246142			
13865	7.403877	2.103151	2.426188	0.716125	-2.036515	-2.036648	-0.538323	-74.885584	-170.896971			
13866	7.349860	2.636825	2.373683	0.780307	-2.573012	-2.106954	-0.869903	-74.990997	-170.357243			
13867	7.486363	3.267902	2.616243	1.103851	-3.174344	-1.921270	-1.328192	-75.145607	-169.715491			
13868	7.791802	3.722329	2.957032	1.460465	-3.595764	-1.551373	-1.872338	-75.332252	-169.042417			
13869	8.135146	3.884973	3.602359	2.056204	-3.687713	-1.070649	-2.465903	-75.535070	-168.417837			
13870	8.826173	3.636030	4.316169	2.564338	-3.386468	-0.236298	-3.068246	-75.728217	-167.937574			
13871	9.493100	3.134287	4.391695	2.419702	-2.942351	0.420453	-3.684609	-75.876763	-167.650979			
13872	10.194552	2.371800	4.246331	2.009873	-2.281625	1.065737	-4.233480	-76.009115	-167.608403			
13873	10.935221	1.653529	4.136558	1.632839	-1.660512	1.763182	-4.685095	-76.095473	-167.803831			
13874	11.312658	1.011958	4.052267	1.374384	-1.091327	2.117992	-5.096603	-76.094679	-168.147700			
13875	11.544579	0.540658	3.623624	0.834988	-0.718535	2.249097	-5.477237	-76.030353	-168.573077			
13876	11.771310	-0.000051	3.477076	0.561763	-0.233698	2.446331	-5.681388	-75.931411	-169.121038			
13877	11.701848	-0.526538	3.689359	0.712070	0.294350	2.444071	-5.673637	-75.808916	-169.785120			
13878	11.236498	-1.179540	3.472682	0.544506	0.943733	1.956875	-5.475586	-75.718998	-170.518715			
13879	11.483499	-1.746634	3.814171	0.767294	1.525947	2.293184	-5.170237	-75.667425	-171.273012			
13880	12.352643	-2.080320	3.744870	0.463043	1.827269	3.125096	-5.005113	-75.579115	-171.939929			
13881	13.702046	-2.173617	2.533756	-1.056856	1.819055	4.132371	-4.950583	-75.454325	-172.474952			
13882	14.950482	-1.658174	2.780435	-1.130482	1.289111	5.387882	-4.594123	-75.304781	-173.061218			
13883	14.656524	-1.904723	3.286503	-0.618094	1.597002	5.230916	-3.863778	-75.157678	-173.794816			
13884	14.567573	-4.157136	4.190738	0.133479	3.936391	5.403905	-2.895262	-75.001212	-174.672494			
13885	15.385697	-6.567535	3.069103	-1.331250	6.331863	5.916463	-2.233383	-74.725326	-175.331541			
13886	14.508318	-6.389577	1.806983	-2.401966	6.148559	4.713425	-1.901896	-74.355996	-175.535839			
13887	10.334657	-3.529068	2.421510	-0.649193	3.408874	0.821258	-1.772108	-74.031081	-175.394942			
13888	7.193871	0.579102	3.807136	1.701477	-0.555460	-1.851669	-1.697282	-73.847727	-175.134693			
13889	5.946370	2.292881	4.074342	2.391207	-2.216184	-2.987181	-1.829102	-73.817258	-174.814257			
13890	6.128460	2.606585	3.233293	1.561622	-2.582289	-3.052540	-2.131063	-73.903372	-174.483718			
13891	6.865891	3.008768	2.883508	1.059600	-3.034847	-2.452343	-2.580415	-74.038086	-174.168703			
13892	7.888690	3.194222	3.028646	0.939385	-3.262835	-1.441393	-3.200904	-74.189481	-173.897025			
13893	9.019919	2.426995	2.570004	0.155591	-2.581002	-0.476291	-3.957408	-74.324636	-173.689974			
13894	9.910421	0.437061	1.480179	-1.213531	-0.688525	0.119664	-4.823605	-74.396934	-173.522041			
13895	9.978610	-1.563040	0.534354	-2.192298	1.265391	-0.020147	-5.714944	-74.393989	-173.375762			
13896	9.657142	-3.228417	0.198106	-2.437388	2.922865	-0.366089	-6.652497	-74.335188	-173.173870			
13897	9.289017	-4.630076	0.145215	-2.363263	4.320770	-0.675386	-7.632447	-74.267845	-172.866143			
13898	9.094394	-5.462399	0.377340	-2.040695	5.136024	-0.749313	-8.581556	-74.226400	-172.464473			
13899	8.890021	-5.585976	0.706189	-1.627100	5.235105	-0.830464	-9.411675	-74.211516	-172.033554			
13900	8.629791	-5.102081	1.280887	-0.983012	4.719360	-0.929760	-10.101399	-74.215019	-171.599718			
13901	8.308503	-4.101963	1.844102	-0.358205	3.689041	-1.122427	-10.723590	-74.220790	-171.157220			
13902	8.024883	-2.940073	2.098850	-0.055518	2.507083	-1.377088	-11.324785	-74.209108	-170.705451			
13903	7.690731	-1.863629	2.035815	-0.050791	1.426734	-1.767391	-11.905178	-74.191123	-170.269019			
13904	7.522868	-1.090266	1.909698	-0.145635	0.647922	-2.003198	-12.427572	-74.196476	-169.891517			
13905	7.703882	-0.714108	1.996297	-0.116361	0.242516	-1.826915	-12.880860	-74.227141	-169.587864			
13906	8.336380	-0.602998	1.880891	-0.390424	0.092050	-1.254904	-13.274727	-74.288383	-169.374664			
13907	9.137984	-0.745349	1.784000	-0.678410	0.186632	-0.498941	-13.645772	-74.356734	-169.195386			
13908	9.930815	-1.014378	1.785568	-0.860477	0.403611	0.283597	-13.983828	-74.425192	-169.059715			
13909	10.291060	-1.206974	1.599875	-1.111632	0.577375	0.596597	-14.323510	-74.465331	-168.926361			
13910	10.235677	-1.290331	1.479090	-1.198274	0.659687	0.519334	-14.672215	-74.491977	-168.774311			
13911	9.910515	-1.287778	1.632597	-0.956929	0.651104	0.247253	-15.027186	-74.500275	-168.591893			
13912	9.518135	-1.244197	1.582753	-0.899254	0.618372	-0.145373	-15.391309	-74.494898	-168.386764			
13913	9.354767	-1.052696	1.543427	-0.901438	0.424979	-0.325391	-15.767027	-74.490025	-168.152079			
13914	9.324859	-0.799631	1.664344	-0.790004	0.151185	-0.340862	-16.122529	-74.470046	-167.923721			
13915	9.180726	-0.649504	1.554715	-0.867618	0.003237	-0.519037	-16.501698	-74.437929	-167.670886			
13916	8.944191	-0.542537	1.634996	-0.736785	-0.112045	-0.734654	-16.909187	-74.402263	-167.396605			
13917	8.815829	-0.505697	1.676846	-0.666928	-0.162198	-0.850810	-17.362383	-74.367651	-167.091579			
13918	8.892114	-0.698381	1.725442	-0.628458	0.002221	-0.749598	-17.824423	-74.332840	-166.789337			
13919	8.936481	-0.873554	1.653463	-0.697587	0.161051	-0.710757	-18.292095	-74.301562	-166.495638			
13920	8.995837	-1.076959	1.536612	-0.810549	0.352021	-0.665821	-18.738788	-74.269568	-166.224696			
13921	8.982446	-1.349197	1.616529	-0.708440	0.598124	-0.633462	-19.166739	-74.245306	-165.952638			
13922	9.106963	-1.584091	1.569209	-0.766518	0.810882	-0.503368	-19.569684	-74.220838	-165.669803			
13923	9.262885	-1.768900	1.582247	-0.779465	0.965335	-0.331438	-19.953360	-74.187978	-165.356042			
13924	9.412333	-1.863368	1.603917	-0.791978	1.029498	-0.171651	-20.295383	-74.145763	-165.018956			
13925	9.501364	-1.867980	1.684577	-0.742384	1.001821	-0.063418	-20.622284	-74.088438	-164.636129			
13926	9.593709	-1.679917	1.724452	-0.751427	0.786763	0.018458	-20.899526	-74.020030	-164.229494			
13927	9.539657	-1.410108	1.798194	-0.697346	0.498415	-0.040675	-21.137081	-73.942024	-163.799218			
13928	9.305925	-1.026674	1.816761	-0.656334	0.118467	-0.299008	-21.320222	-73.862818	-163.361952			
13929	9.155514	-0.554661	1.774096	-0.698038	-0.348361	-0.503022	-21.473028	-73.795683	-162.919260			
13930	9.100884	-0.067439	1.802886	-0.690408	-0.842381	-0.598852	-21.598291	-73.745539	-162.496835			
13931	9.210069	0.245299	2.252283	-0.305525	-1.208734	-0.410351	-21.684954	-73.705021	-162.129826			
13932	9.280354	0.341584	2.204244	-0.375788	-1.313655	-0.366343	-21.750099	-73.656303	-161.832279			
13933	9.300537	0.361293	2.070466	-0.513647	-1.331662	-0.385058	-21.778725	-73.597866	-161.611442			
13934	9.193523	0.265105	1.950163	-0.601471	-1.223029	-0.510176	-21.769607	-73.539251	-161.464340			
13935	9.171297	0.071755	1.930824	-0.612217	-1.031438	-0.517137	-21.747833	-73.484078	-161.363802			
13936	9.071757	0.089190	1.790665	-0.727658	-1.033451	-0.652245	-21.728319	-73.429927	-161.287461			
13937	9.107807	0.255128	1.645947	-0.889681	-1.195782	-0.674583	-21.728655	-73.376585	-161.224079			
13938	9.228749	0.441193	1.557194	-1.021382	-1.390080	-0.603249	-21.754890	-73.324988	-161.167124			
13939	9.444244	0.453025	1.487539	-1.154751	-1.422077	-0.418222	-21.786749	-73.266705	-161.121605			
13940	9.679411	0.319810	1.475795	-1.234752	-1.315476	-0.183765	-21.793158	-73.196149	-161.093971			
13941	9.867759	0.017400	1.376161	-1.382504	-1.031326	0.000152	-21.787057	-73.119110	-161.051904			
13942	10.100273	-0.332373	1.355594	-1.466443	-0.709870	0.252562	-21.762176	-73.036801	-160.981247			
13943	10.236936	-0.779972	1.640066	-1.228680	-0.302348	0.506807	-21.763558	-72.961970	-160.833987			
13944	10.415734	-1.173111	1.871192	-1.055793	0.049672	0.782023	-21.776374	-72.900117	-160.611231			
13945	10.357232	-1.297291	1.975054	-0.947131	0.163716	0.767113	-21.812418	-72.840903	-160.297120			
13946	10.062281	-1.142314	2.167129	-0.692045	0.019793	0.520342	-21.869302	-72.802902	-159.917251			
13947	9.862676	-0.789691	2.804939	-0.028185	-0.346623	0.465578	-21.998016	-72.823863	-159.454769			
13948	9.874273	-0.449830	3.158730	0.319279	-0.704111	0.535426	-22.203658	-72.898322	-158.962943			
13949	10.009278	0.077716	3.024918	0.176028	-1.242424	0.568408	-22.471973	-73.014674	-158.477404			
13950	10.483412	0.640094	3.385025	0.427521	-1.866824	1.054792	-22.757089	-73.176391	-158.060504			
13951	11.172217	0.915707	3.816328	0.701954	-2.229385	1.795853	-23.084545	-73.398665	-157.768313			
13952	12.012082	0.389821	3.736855	0.455384	-1.796439	2.636061	-23.475643	-73.673549	-157.639189			
13953	12.734923	-1.277861	3.025794	-0.344022	-0.193447	3.333048	-23.985103	-73.991163	-157.600627			
13954	13.238641	-2.836047	1.791893	-1.556924	1.356353	3.687355	-24.608976	-74.310925	-157.561546			
13955	13.304627	-4.085130	0.734659	-2.467336	2.650490	3.645669	-25.326988	-74.584187	-157.415856			
13956	12.864305	-5.267495	0.276724	-2.668876	3.899893	3.263271	-26.012623	-74.785209	-157.174555			
13957	12.013419	-6.404212	0.431241	-2.193814	5.099021	2.625520	-26.562534	-74.911907	-156.871551			
13958	10.913732	-7.094558	0.677058	-1.622719	5.868006	1.712674	-26.913609	-74.964999	-156.543481			
13959	9.622158	-6.971756	0.735011	-1.267707	5.864297	0.470038	-26.987599	-74.940330	-156.261896			
13960	7.981714	-6.155977	1.035357	-0.658511	5.199597	-1.140542	-26.804634	-74.857167	-156.031636			
13961	6.567582	-5.198569	1.569243	0.110178	4.368986	-2.496928	-26.426865	-74.779169	-155.855513			
13962	5.828412	-4.015988	1.963628	0.586316	3.267432	-3.260264	-25.828093	-74.698825	-155.807616			
13963	5.162451	-2.998304	2.227329	0.941041	2.341485	-3.961757	-25.015394	-74.640043	-155.909027			
13964	4.824448	-2.135282	2.613838	1.359322	1.544124	-4.295933	-23.966551	-74.633455	-156.209717			
13965	4.985503	-1.513274	2.949786	1.628268	0.948973	-4.129869	-22.771054	-74.698415	-156.672188			
13966	6.108645	-1.353278	3.297614	1.682680	0.728627	-2.981984	-21.434436	-74.825481	-157.317852			
13967	7.087122	-1.139042	3.380138	1.526317	0.483058	-2.041801	-20.053971	-74.979051	-158.085792			
13968	8.700407	-1.135710	3.331437	1.091764	0.393511	-0.499356	-18.705025	-75.170971	-158.899260			
13969	9.986324	-1.116783	3.651661	1.102412	0.341067	0.816346	-17.410545	-75.352536	-159.720558			
13970	10.755468	-0.880842	3.497000	0.793370	0.103500	1.502987	-16.366373	-75.513011	-160.421804			
13971	11.698343	-0.813476	3.581211	0.670501	0.017609	2.430185	-15.634070	-75.652269	-160.901470			
13972	12.364758	-0.640930	4.071862	1.012912	-0.142609	3.180837	-15.186546	-75.719372	-161.163498			
13973	12.487863	-0.453683	4.051006	0.978424	-0.321562	3.283208	-15.080130	-75.706411	-161.222765			
13974	12.264957	-0.690345	3.893429	0.850505	-0.078993	3.045575	-15.149213	-75.626740	-161.200355			
13975	11.819036	-0.757916	3.737117	0.777608	0.002680	2.581881	-15.234021	-75.487755	-161.200951			
13976	11.186461	-0.805005	3.642699	0.801037	0.080903	1.951914	-15.247487	-75.297294	-161.306513			
13977	10.559936	-0.817999	3.555424	0.827891	0.124951	1.328284	-15.243362	-75.077791	-161.467243			
13978	9.974086	-0.976280	3.582336	0.946664	0.316845	0.783158	-15.202724	-74.850109	-161.691150			
13979	9.646974	-1.065153	3.728571	1.125026	0.424973	0.514678	-15.119582	-74.629352	-161.958214			
13980	9.417896	-1.258400	3.972218	1.368459	0.634625	0.374721	-14.985531	-74.401509	-162.275414			
13981	9.264233	-1.435595	4.216959	1.591795	0.820605	0.309679	-14.842939	-74.126747	-162.588180			
