// General information: 
//  MT Manager version: 2022.0.0 
//  XDA version: 2022.0.0 build 7085 rev 119802 built on 2022-11-08
// Device information: 
//  DeviceId: 00B4938A
//  ProductCode: MTW2-3A7G6
//  Firmware Version: 4.6.0
//  Hardware Version: 2.0.0
// Device settings: 
//  Filter Profile: human(46.1)
//  Option Flags: Orientation Smoother Disabled, Position/Velocity Smoother Disabled, Continuous Zero Rotation Update Disabled, AHS Disabled, ICC Disabled
// Coordinate system: ENU
PacketCounter	Acc_X	Acc_Y	Acc_Z	FreeAcc_E	FreeAcc_N	FreeAcc_U	Roll	Pitch	Yaw	Vel_E	Vel_N	Vel_U
12890	9.018629	-0.325723	3.862703	-0.178876	0.062607	0.001910	-2.349891	-67.255689	-82.174271			
12891	9.017293	-0.328372	3.865595	-0.178370	0.062781	0.001918	-2.399627	-67.235478	-82.198913			
12892	9.034254	-0.302648	3.911165	-0.151759	0.097307	0.034853	-2.448768	-67.212276	-82.234674			
12893	8.990905	-0.340291	3.871520	-0.184353	0.071189	-0.019742	-2.500364	-67.191467	-82.278100			
12894	9.021448	-0.369851	3.863874	-0.207369	0.047008	0.006051	-2.558560	-67.175151	-82.324234			
12895	8.973627	-0.385477	3.864794	-0.221124	0.064515	-0.037302	-2.625710	-67.173736	-82.361436			
12896	9.050088	-0.393290	3.875246	-0.220439	0.044811	0.037475	-2.715220	-67.175415	-82.383652			
12897	9.066507	-0.463807	3.853618	-0.281510	0.014834	0.045688	-2.831661	-67.183127	-82.388702			
12898	9.127616	-0.514073	3.798641	-0.316244	-0.061614	0.081933	-2.963506	-67.182048	-82.379083			
12899	9.156346	-0.538363	3.809282	-0.329965	-0.063370	0.113351	-3.128157	-67.175129	-82.343189			
12900	9.142460	-0.598463	3.778149	-0.376665	-0.091974	0.090181	-3.310156	-67.155104	-82.295759			
12901	9.094088	-0.724598	3.694558	-0.487460	-0.161327	0.016533	-3.481991	-67.132608	-82.251376			
12902	9.048361	-0.860364	3.589140	-0.607529	-0.253039	-0.062720	-3.634762	-67.109371	-82.219209			
12903	8.984196	-0.918172	3.579473	-0.659246	-0.241890	-0.123605	-3.751989	-67.098828	-82.207730			
12904	9.017927	-0.859030	3.632169	-0.594623	-0.200919	-0.073096	-3.855888	-67.100614	-82.210445			
12905	9.039471	-0.847488	3.651184	-0.577552	-0.187598	-0.045771	-3.938417	-67.112809	-82.230434			
12906	9.024117	-0.787765	3.669842	-0.515260	-0.157846	-0.053969	-4.006065	-67.113028	-82.264258			
12907	8.969212	-0.670036	3.601676	-0.393803	-0.189448	-0.134009	-4.049133	-67.114570	-82.312228			
12908	8.950859	-0.597460	3.643395	-0.322057	-0.137887	-0.136612	-4.090038	-67.118478	-82.355995			
12909	8.959028	-0.529078	3.717390	-0.255279	-0.065938	-0.102199	-4.123049	-67.131260	-82.398773			
12910	8.981018	-0.514318	3.682348	-0.235526	-0.103522	-0.095861	-4.162789	-67.139912	-82.432843			
12911	9.060887	-0.529687	3.669579	-0.244399	-0.144440	-0.026704	-4.191349	-67.151841	-82.477054			
12912	9.074956	-0.583348	3.667852	-0.295819	-0.153093	-0.012825	-4.210452	-67.157951	-82.519119			
12913	9.033470	-0.616175	3.677372	-0.330956	-0.128813	-0.046409	-4.207628	-67.163222	-82.576612			
12914	8.894531	-0.560247	3.631738	-0.280590	-0.112750	-0.193715	-4.197477	-67.172292	-82.627232			
12915	8.816168	-0.444452	3.672185	-0.171188	-0.035050	-0.253568	-4.211896	-67.196734	-82.665635			
12916	8.696338	-0.363421	3.667847	-0.094777	0.015934	-0.367994	-4.250933	-67.220138	-82.681666			
12917	8.518575	-0.253398	3.532751	0.014619	-0.029459	-0.587202	-4.309994	-67.241635	-82.670396			
12918	8.359062	-0.218456	3.572801	0.043480	0.074190	-0.719880	-4.377737	-67.260876	-82.629286			
12919	8.323315	-0.175075	3.623996	0.086540	0.141633	-0.734471	-4.449184	-67.283059	-82.557136			
12920	8.356557	-0.204820	3.609312	0.063568	0.117597	-0.708664	-4.536555	-67.305827	-82.447104			
12921	8.474774	-0.371469	3.560816	-0.089863	0.023281	-0.613200	-4.630341	-67.339399	-82.310191			
12922	8.703842	-0.477080	3.576158	-0.178913	-0.049525	-0.392554	-4.727224	-67.385001	-82.146307			
12923	8.906894	-0.578432	3.557288	-0.263446	-0.141727	-0.208931	-4.824435	-67.436443	-81.959981			
12924	9.239355	-0.693133	3.503323	-0.352263	-0.314638	0.081568	-4.919483	-67.507328	-81.752743			
12925	9.493611	-0.692617	3.435139	-0.329987	-0.459938	0.291178	-4.999856	-67.593482	-81.540022			
12926	9.611101	-0.546854	3.222074	-0.163073	-0.675439	0.315058	-5.078609	-67.689715	-81.320889			
12927	9.722800	-0.267815	3.157441	0.129235	-0.738406	0.385941	-5.162045	-67.802177	-81.084975			
12928	9.706290	0.036634	3.308642	0.428664	-0.548781	0.418420	-5.268848	-67.918120	-80.823596			
12929	9.751458	0.284659	3.217661	0.690025	-0.607536	0.418638	-5.408616	-68.035480	-80.538372			
12930	9.701089	0.593815	2.866048	1.024846	-0.869150	0.230828	-5.576157	-68.120923	-80.226202			
12931	9.698181	0.825447	2.778092	1.271846	-0.910595	0.187665	-5.763354	-68.211328	-79.899188			
12932	9.833213	1.024105	2.884179	1.483795	-0.824557	0.344959	-5.960002	-68.294183	-79.570594			
12933	10.121110	0.987355	2.849443	1.480070	-0.943331	0.601271	-6.141221	-68.387190	-79.293177			
12934	10.421578	0.986641	2.659982	1.521486	-1.207200	0.812093	-6.264271	-68.476356	-79.085602			
12935	10.641037	0.918458	2.640507	1.474961	-1.293107	1.013201	-6.315792	-68.539325	-78.978304			
12936	10.820104	0.463844	2.493390	1.044250	-1.522692	1.146224	-6.267976	-68.596658	-78.992735			
12937	10.664839	0.404152	2.589845	0.959081	-1.376019	1.040706	-6.092895	-68.619472	-79.118733			
12938	10.806551	-0.086482	2.529020	0.469030	-1.524163	1.171021	-5.813124	-68.663777	-79.348618			
12939	10.758773	-0.147924	2.761500	0.365259	-1.297957	1.213681	-5.421652	-68.646800	-79.671858			
12940	10.512263	-0.370546	2.685731	0.106684	-1.312235	0.963430	-4.981327	-68.592999	-80.067182			
12941	10.274287	-0.407830	2.685901	0.025970	-1.246885	0.741263	-4.496075	-68.519462	-80.503026			
12942	9.977673	-0.413661	2.667095	-0.026416	-1.177919	0.456205	-3.975240	-68.430354	-80.958962			
12943	9.745140	-0.352925	2.842828	-0.023933	-0.947030	0.300493	-3.436892	-68.328554	-81.420286			
12944	9.218629	-0.263148	2.695738	0.017805	-0.906351	-0.247257	-2.896858	-68.210959	-81.870990			
12945	8.927430	-0.104375	2.616768	0.138353	-0.880374	-0.551852	-2.372475	-68.100169	-82.295094			
12946	8.604755	-0.025870	2.516362	0.182926	-0.867112	-0.891413	-1.903564	-67.995904	-82.656042			
12947	8.544541	0.016760	2.487308	0.202087	-0.884955	-0.959885	-1.474188	-67.911604	-82.976715			
12948	8.603412	0.087973	2.452288	0.257118	-0.946383	-0.920087	-1.059828	-67.846783	-83.271606			
12949	8.517183	0.232394	2.412365	0.380534	-0.947884	-1.016519	-0.692579	-67.790130	-83.526587			
12950	8.758877	0.278278	2.349822	0.424091	-1.100139	-0.816753	-0.356606	-67.758797	-83.750637			
12951	9.051794	0.329942	2.371851	0.467920	-1.190791	-0.537314	-0.035376	-67.732264	-83.967133			
12952	9.121111	0.366696	2.373438	0.489840	-1.216812	-0.472359	0.277947	-67.711339	-84.169435			
12953	9.311306	0.422447	2.350159	0.538092	-1.308054	-0.304714	0.581773	-67.697076	-84.352960			
12954	9.385605	0.349976	2.412272	0.446314	-1.291312	-0.212457	0.875479	-67.669293	-84.523343			
12955	9.530959	0.383602	2.426139	0.468457	-1.336572	-0.072740	1.148598	-67.627860	-84.666700			
12956	9.528517	0.401892	2.488593	0.466607	-1.286072	-0.051769	1.390278	-67.561149	-84.786907			
12957	9.517144	0.537937	2.513961	0.587991	-1.256580	-0.052531	1.581748	-67.473192	-84.870962			
12958	9.540477	0.728351	2.571211	0.764066	-1.207715	-0.008611	1.725199	-67.365333	-84.923769			
12959	9.590001	0.997803	2.559849	1.030196	-1.225355	0.033820	1.815280	-67.240511	-84.949566			
12960	9.637373	1.089629	2.650708	1.111538	-1.171009	0.111308	1.850529	-67.110475	-84.941584			
12961	9.755022	1.098807	2.628759	1.128779	-1.257956	0.208369	1.848002	-66.977073	-84.917853			
12962	9.769075	1.022516	2.613774	1.057918	-1.309413	0.211203	1.842631	-66.838592	-84.901365			
12963	9.718950	0.899335	2.504427	0.948735	-1.428784	0.116934	1.844759	-66.692365	-84.907190			
12964	9.630909	0.732370	2.386735	0.794228	-1.545534	-0.016374	1.866891	-66.555289	-84.945503			
12965	9.476973	0.722049	2.452752	0.770654	-1.449704	-0.135148	1.904138	-66.414596	-85.006861			
12966	9.326376	0.791644	2.358488	0.843711	-1.490406	-0.313359	1.937278	-66.285588	-85.087730			
12967	9.179302	0.944057	2.299550	0.995276	-1.488368	-0.472831	1.955829	-66.170939	-85.162831			
12968	9.183244	1.192076	2.517889	1.216821	-1.280282	-0.380139	1.949611	-66.088894	-85.228129			
12969	9.233268	1.367644	2.551209	1.390610	-1.262094	-0.320287	1.889031	-66.047903	-85.263400			
12970	9.434286	1.459466	2.479021	1.500241	-1.404084	-0.165970	1.776088	-66.044494	-85.261927			
12971	9.524919	1.495276	2.414169	1.552852	-1.496016	-0.110176	1.598888	-66.069819	-85.215990			
12972	9.585462	1.458990	2.294774	1.540923	-1.628720	-0.104519	1.373402	-66.118812	-85.147878			
12973	9.631090	1.387303	2.075936	1.505071	-1.846912	-0.152684	1.099742	-66.181929	-85.061562			
12974	9.740727	1.358286	1.897956	1.509599	-2.047331	-0.124629	0.810799	-66.253044	-84.976736			
12975	9.790697	1.361158	1.750170	1.540397	-2.194006	-0.138645	0.500408	-66.314945	-84.901510			
12976	9.836978	1.286240	1.422680	1.508496	-2.512548	-0.228529	0.170993	-66.365330	-84.829179			
12977	9.757613	1.292584	1.537184	1.513824	-2.370754	-0.255879	-0.149483	-66.423879	-84.742583			
12978	9.674877	1.497629	1.846922	1.702278	-2.027072	-0.207977	-0.470028	-66.520368	-84.630708			
12979	9.840983	1.076389	1.597098	1.320285	-2.339050	-0.151429	-0.784141	-66.682742	-84.536671			
12980	10.254467	0.959668	2.097599	1.188485	-2.019212	0.433537	-0.937450	-66.935544	-84.528699			
12981	10.773657	0.291417	2.665051	0.498043	-1.705819	1.146371	-0.961788	-67.233075	-84.673388			
12982	11.468098	-0.526938	2.741718	-0.315256	-1.905814	1.831197	-0.785310	-67.555408	-85.003067			
12983	11.923935	-1.242558	3.452633	-1.092808	-1.414317	2.534373	-0.414107	-67.842373	-85.466977			
12984	12.062816	-1.446035	5.033248	-1.440945	0.034083	3.258588	0.139470	-68.068613	-85.989559			
12985	11.979295	-1.847833	6.106206	-1.971685	1.064450	3.573230	0.796982	-68.197772	-86.523381			
12986	11.881726	-2.510280	6.455269	-2.724344	1.391158	3.595878	1.554586	-68.272170	-87.099662			
12987	11.632137	-2.833329	6.458785	-3.122857	1.466816	3.345807	2.370509	-68.331541	-87.707318			
12988	11.382331	-2.072903	5.921318	-2.397499	1.122537	2.911616	3.168303	-68.369834	-88.310980			
12989	10.555351	-0.875041	5.408681	-1.232317	1.042143	1.969927	3.878762	-68.320198	-88.853420			
12990	9.424157	0.898950	5.372373	0.481974	1.562138	0.948935	4.434982	-68.274753	-89.327051			
12991	8.534015	2.482128	5.952938	1.972568	2.556326	0.385449	4.816614	-68.283700	-89.726501			
12992	8.060925	3.503842	6.577447	2.918897	3.389387	0.212795	5.032499	-68.264239	-90.040068			
12993	7.282199	3.901179	6.443014	3.329268	3.565311	-0.540876	5.032644	-68.145608	-90.238786			
12994	6.629794	3.205033	6.354430	2.659324	3.644549	-1.195823	4.939816	-68.044061	-90.382043			
12995	6.606065	1.740688	6.357259	1.219893	3.528170	-1.259989	4.870491	-67.984959	-90.574864			
12996	6.976966	0.064925	5.793171	-0.397900	2.740067	-1.176902	4.937038	-67.907870	-90.830983			
12997	7.313120	-1.291484	5.474374	-1.728500	2.219607	-1.026104	5.133108	-67.797726	-91.184850			
12998	7.502508	-2.482595	4.997304	-2.895171	1.620974	-1.071157	5.454845	-67.675395	-91.605123			
12999	7.993096	-3.053957	4.553705	-3.457229	0.980820	-0.810578	5.819486	-67.570912	-92.053401			
13000	8.283963	-3.067844	4.072241	-3.463125	0.414966	-0.732304	6.168173	-67.480801	-92.436954			
13001	7.805189	-2.765867	3.780320	-3.152596	0.336246	-1.279818	6.442949	-67.380550	-92.744794			
13002	7.600595	-1.971276	3.633281	-2.361504	0.316526	-1.495308	6.696070	-67.363334	-92.962968			
13003	7.960955	-0.699777	3.732306	-1.118585	0.346941	-1.070549	6.850121	-67.457133	-93.072269			
13004	8.267668	0.102330	3.605762	-0.320566	0.173630	-0.799731	6.868746	-67.563423	-93.040491			
13005	8.696041	0.787180	3.878866	0.337532	0.324847	-0.269792	6.786049	-67.738705	-92.910108			
13006	8.907453	0.874341	3.802769	0.435687	0.211388	-0.100137	6.598460	-67.941777	-92.689528			
13007	9.021476	0.619409	3.547674	0.212714	-0.045992	-0.101396	6.368965	-68.175546	-92.427680			
13008	8.838176	0.424360	3.577691	0.034585	0.075034	-0.268770	6.144702	-68.388587	-92.147671			
13009	8.538640	-0.207857	3.628157	-0.580334	0.226239	-0.553798	5.909278	-68.592280	-91.881364			
13010	8.586207	-0.500181	3.552968	-0.852837	0.152586	-0.547376	5.693288	-68.801526	-91.613134			
13011	8.712542	-0.720363	3.506662	-1.055914	0.081235	-0.453075	5.448942	-68.994214	-91.346934			
13012	8.610686	-0.796948	3.441667	-1.110765	0.080771	-0.572357	5.165803	-69.171006	-91.032660			
13013	8.686077	-0.730827	3.215104	-1.011081	-0.125389	-0.577925	4.853602	-69.345202	-90.713011			
13014	8.910287	-0.494565	2.943398	-0.737666	-0.413682	-0.453947	4.525137	-69.535167	-90.357415			
13015	9.159097	-0.226264	2.874733	-0.444465	-0.515551	-0.234542	4.133591	-69.724960	-89.989746			
13016	9.077549	-0.038516	2.865431	-0.233214	-0.452641	-0.307179	3.722725	-69.904436	-89.569855			
13017	9.058993	0.084946	2.703828	-0.074432	-0.559344	-0.375277	3.283181	-70.083651	-89.148670			
13018	8.949466	-0.001805	2.531484	-0.124730	-0.660290	-0.536390	2.834524	-70.259860	-88.706225			
13019	8.852074	-0.128352	2.382541	-0.217734	-0.747507	-0.677814	2.400169	-70.431180	-88.287951			
13020	8.811415	-0.269487	2.276182	-0.329107	-0.816753	-0.750725	1.979102	-70.592216	-87.856637			
13021	8.899730	-0.416105	2.186167	-0.447064	-0.915577	-0.695701	1.587241	-70.744153	-87.451912			
13022	8.996112	-0.489559	2.171884	-0.498088	-0.942931	-0.606738	1.221463	-70.875570	-87.050155			
13023	9.171984	-0.583869	2.123087	-0.568003	-1.032850	-0.454042	0.904631	-70.988880	-86.709925			
13024	9.303357	-0.553283	1.955648	-0.507688	-1.214206	-0.381300	0.650317	-71.080675	-86.394065			
13025	9.281820	-0.414605	1.864323	-0.351137	-1.270389	-0.428521	0.466688	-71.141486	-86.153962			
13026	9.167384	-0.400353	1.753706	-0.322814	-1.328282	-0.571034	0.380185	-71.186327	-85.970012			
13027	9.030661	-0.399441	1.625756	-0.311695	-1.399214	-0.740724	0.381727	-71.218181	-85.873681			
13028	8.745807	-0.353287	1.716139	-0.279204	-1.215323	-0.980693	0.489355	-71.241519	-85.837438			
13029	8.499689	-0.257339	1.814443	-0.201844	-1.033739	-1.181710	0.671481	-71.259912	-85.890425			
13030	8.213181	-0.282272	1.919630	-0.250119	-0.842554	-1.419325	0.924526	-71.287456	-86.007883			
13031	7.915862	-0.248825	2.077586	-0.248882	-0.592808	-1.650226	1.253090	-71.316661	-86.231346			
13032	7.615549	-0.189062	2.279148	-0.228482	-0.299493	-1.870086	1.655149	-71.336034	-86.518187			
13033	7.551443	-0.161472	2.432045	-0.235353	-0.129050	-1.882170	2.152330	-71.385927	-86.924726			
13034	7.970135	0.025753	2.781169	-0.096532	0.091702	-1.372260	2.685958	-71.467751	-87.371844			
13035	8.478540	-0.045440	2.968250	-0.204033	0.111589	-0.832484	3.249910	-71.549709	-87.897047			
13036	8.963834	0.024901	3.050549	-0.164788	0.053542	-0.345550	3.803005	-71.622206	-88.417389			
13037	9.527032	-0.094452	2.797288	-0.284391	-0.363803	0.106223	4.324760	-71.679325	-88.956808			
13038	10.034400	-0.061509	2.431051	-0.242975	-0.857221	0.473665	4.809979	-71.730672	-89.440910			
13039	10.503436	-0.208455	2.186701	-0.391544	-1.239975	0.838903	5.215332	-71.772132	-89.877427			
13040	10.859076	-0.495942	1.926900	-0.675559	-1.615924	1.087349	5.552273	-71.798178	-90.199984			
13041	11.215167	-0.825173	1.552332	-0.986257	-2.107644	1.298377	5.800696	-71.803243	-90.419227			
13042	11.530825	-1.301000	1.117607	-1.429214	-2.662339	1.446570	5.954623	-71.783817	-90.479270			
13043	11.663417	-1.680321	0.731462	-1.772257	-3.111639	1.437673	6.019421	-71.743750	-90.426661			
13044	11.495604	-2.160738	0.685342	-2.239251	-3.159869	1.245719	6.017776	-71.704682	-90.260839			
13045	11.513359	-2.642434	0.732806	-2.713097	-3.175680	1.261203	5.952325	-71.715754	-90.045827			
13046	11.794045	-2.555667	1.091254	-2.647580	-2.918240	1.645756	5.806451	-71.772697	-89.717449			
13047	12.114334	-2.296373	1.625400	-2.423919	-2.481571	2.130457	5.500650	-71.845852	-89.279707			
13048	12.524228	-1.773761	2.061735	-1.916258	-2.129846	2.679103	4.999387	-71.948862	-88.635236			
13049	12.936214	-1.203361	2.395281	-1.336301	-1.856887	3.198731	4.272844	-72.095149	-87.801849			
13050	13.250695	-0.361342	3.280935	-0.530758	-0.990692	3.796587	3.308559	-72.237474	-86.715659			
13051	13.200055	0.238924	4.360674	0.022091	0.143562	4.090271	2.118647	-72.316881	-85.503725			
13052	12.843124	0.735721	5.120207	0.513199	1.051158	3.983491	0.776341	-72.373508	-84.172851			
13053	12.349122	1.238139	5.730631	1.026722	1.858418	3.691579	-0.630089	-72.428086	-82.835573			
13054	11.636084	1.790357	6.510535	1.561295	2.890329	3.233326	-2.033006	-72.405448	-81.509178			
13055	10.595517	1.717191	6.531607	1.537034	3.206641	2.238445	-3.399410	-72.257592	-80.301830			
13056	9.559142	1.102790	5.562129	1.059443	2.506742	0.963391	-4.611737	-72.041569	-79.221846			
13057	8.768861	0.031770	4.669088	0.106068	1.751638	-0.034422	-5.530000	-71.804256	-78.383860			
13058	7.962344	-0.879229	4.525932	-0.791581	1.735901	-0.811802	-6.171368	-71.631684	-77.641418			
13059	7.761234	-1.145382	5.500463	-1.134544	2.671376	-0.681410	-6.764398	-71.529972	-76.928986			
13060	7.482913	-1.979779	5.897454	-1.995145	3.013562	-0.777692	-7.346931	-71.317272	-76.226581			
13061	6.494990	-2.150067	5.197627	-2.146763	2.600148	-1.909942	-7.717300	-70.973456	-75.639000			
13062	5.480325	-1.483564	4.848146	-1.520310	2.627992	-2.992013	-8.009477	-70.663761	-75.091540			
13063	5.631494	-0.748114	5.334531	-0.819740	3.100744	-2.710294	-8.412169	-70.486531	-74.535134			
13064	6.656697	0.213064	5.635916	0.207723	3.162537	-1.683991	-8.919166	-70.333410	-73.935640			
13065	7.450637	1.233807	5.271661	1.360300	2.683325	-1.107866	-9.483367	-70.133049	-73.363890			
13066	8.184197	2.058814	4.820603	2.331811	2.113274	-0.617330	-10.027736	-69.941455	-72.827405			
13067	9.067537	2.617280	4.552477	3.037366	1.632771	0.081947	-10.505408	-69.832610	-72.394861			
13068	9.748764	2.819703	4.188918	3.376094	1.090117	0.577198	-10.877839	-69.783703	-72.073079			
13069	9.598348	2.653514	4.105803	3.226116	1.032745	0.412410	-11.103441	-69.727294	-71.940360			
13070	9.072376	1.950083	3.915624	2.506368	0.927992	-0.101875	-11.208077	-69.707295	-71.930138			
13071	8.794453	0.919785	3.830646	1.469257	0.803947	-0.322840	-11.180697	-69.754644	-72.095409			
13072	8.602467	-0.102101	3.852015	0.427809	0.761805	-0.427194	-10.975091	-69.838007	-72.418432			
13073	8.347447	-0.786095	3.822256	-0.289543	0.741375	-0.632603	-10.650868	-69.942727	-72.883465			
13074	8.501849	-1.384551	3.707472	-0.879810	0.524077	-0.490941	-10.227454	-70.088769	-73.427758			
13075	8.649697	-1.491190	3.796919	-1.010847	0.565426	-0.319751	-9.693801	-70.244773	-74.060444			
13076	8.378272	-1.307997	3.770088	-0.885379	0.663159	-0.598780	-9.130031	-70.335454	-74.710428			
13077	8.360605	-1.000542	3.496785	-0.588548	0.458296	-0.725785	-8.593012	-70.456328	-75.337947			
13078	8.506579	-0.447156	3.543621	-0.060970	0.527349	-0.601976	-8.106781	-70.536122	-75.901854			
13079	8.452831	-0.003817	3.337703	0.368130	0.404921	-0.741243	-7.676075	-70.587963	-76.436633			
13080	8.510409	0.397161	3.216452	0.760261	0.318707	-0.743467	-7.321146	-70.641237	-76.866821			
13081	8.848611	0.582100	3.195115	0.953760	0.213581	-0.437709	-7.064736	-70.709540	-77.234575			
13082	9.046124	0.471441	3.074547	0.854717	0.027414	-0.285036	-6.846801	-70.735097	-77.573603			
13083	9.165183	0.113332	2.805694	0.518169	-0.300813	-0.245747	-6.664842	-70.762009	-77.880611			
13084	9.217897	-0.098586	2.785487	0.301260	-0.356299	-0.193926	-6.483609	-70.796503	-78.172821			
13085	9.150826	-0.477040	2.623555	-0.077818	-0.521624	-0.295857	-6.318183	-70.827105	-78.470312			
13086	8.987701	-0.641385	2.537953	-0.256621	-0.563666	-0.472036	-6.124825	-70.840196	-78.782119			
13087	8.915468	-0.659373	2.466899	-0.285292	-0.609959	-0.563229	-5.926397	-70.833501	-79.102453			
13088	8.811674	-0.413033	2.536377	-0.063295	-0.493268	-0.647424	-5.707593	-70.798096	-79.438219			
13089	8.898496	-0.177948	2.435232	0.172815	-0.605019	-0.606748	-5.513171	-70.739447	-79.762679			
13090	9.005823	-0.016606	2.405774	0.333280	-0.668063	-0.521000	-5.353901	-70.643078	-80.057836			
13091	9.158899	-0.025434	2.471083	0.323436	-0.677503	-0.356014	-5.267600	-70.514842	-80.304943			
13092	9.352135	-0.051265	2.332420	0.316760	-0.898939	-0.221194	-5.246435	-70.351670	-80.502101			
13093	9.291002	-0.167084	2.224470	0.207739	-1.019224	-0.314433	-5.306485	-70.159533	-80.641977			
13094	9.220081	-0.255678	2.074125	0.131867	-1.174682	-0.432927	-5.456069	-69.961979	-80.709795			
13095	9.101353	-0.348981	1.945691	0.050624	-1.291200	-0.589224	-5.697180	-69.775685	-80.714377			
13096	8.871785	-0.181291	1.948223	0.219290	-1.225739	-0.813442	-6.004963	-69.596600	-80.667169			
13097	8.376184	-0.050232	2.027576	0.335206	-1.000387	-1.259278	-6.344769	-69.384897	-80.606920			
13098	8.165256	0.363349	2.239796	0.745639	-0.732257	-1.402703	-6.709295	-69.195403	-80.515540			
13099	7.947247	0.642667	2.810637	1.011219	-0.132922	-1.420363	-7.080375	-69.030256	-80.418799			
13100	8.153223	0.693774	2.980313	1.092088	-0.065552	-1.173150	-7.481282	-68.923212	-80.307223			
13101	8.419203	0.365830	2.623422	0.813569	-0.523939	-1.039849	-7.889218	-68.836820	-80.208862			
13102	8.560746	0.169766	2.593248	0.647301	-0.620184	-0.911200	-8.253891	-68.797037	-80.146221			
13103	8.800303	-0.093359	2.701886	0.413327	-0.614584	-0.636322	-8.543057	-68.821018	-80.146132			
13104	9.112879	-0.230947	2.780725	0.303381	-0.648237	-0.309105	-8.708905	-68.892826	-80.236809			
13105	9.315849	-0.233718	2.655665	0.315493	-0.826031	-0.163317	-8.771188	-68.960035	-80.430071			
13106	9.531991	-0.301647	2.243902	0.256631	-1.279169	-0.102754	-8.760764	-69.024189	-80.716446			
13107	9.980588	-0.376982	1.966986	0.195569	-1.688768	0.223900	-8.700385	-69.088147	-81.066290			
13108	10.540262	-0.297541	1.587005	0.287372	-2.233775	0.609974	-8.616539	-69.122758	-81.452491			
13109	10.933294	-0.047804	1.501724	0.538562	-2.450549	0.934364	-8.556004	-69.116525	-81.836229			
13110	11.331705	0.574372	1.773924	1.169149	-2.340460	1.369421	-8.559850	-69.113286	-82.150429			
13111	11.734996	0.963554	1.771336	1.567501	-2.492273	1.724545	-8.669914	-69.131128	-82.379792			
13112	12.147339	1.314440	1.673984	1.927947	-2.731098	2.057946	-8.806287	-69.202207	-82.554761			
13113	12.359176	1.508165	2.560947	2.151637	-1.970213	2.559497	-8.826546	-69.294749	-82.782064			
13114	12.258508	0.882602	2.914821	1.522981	-1.577171	2.626734	-8.772845	-69.419416	-83.115861			
13115	12.490126	-0.185789	3.326802	0.459692	-1.220668	3.048256	-8.501136	-69.595234	-83.625788			
13116	12.642654	-1.163645	4.455428	-0.499860	-0.157332	3.632265	-7.973786	-69.718491	-84.345293			
13117	12.212742	-2.582264	4.953673	-1.961624	0.519754	3.462838	-7.196471	-69.753105	-85.200920			
13118	11.520458	-3.218228	5.415128	-2.663224	1.216879	2.986825	-6.222663	-69.773633	-86.151074			
13119	11.124090	-3.673047	6.022380	-3.181158	1.948014	2.820223	-5.077288	-69.888277	-87.185178			
13120	11.306616	-3.203936	6.821028	-2.774879	2.626990	3.226834	-3.742495	-69.916025	-88.346962			
13121	10.962184	-3.113627	6.688328	-2.797226	2.597848	2.837357	-2.422634	-69.754912	-89.591582			
13122	9.978712	-2.060911	5.756113	-1.871997	1.994660	1.565851	-1.199345	-69.577365	-90.781779			
13123	9.165602	0.415807	5.610408	0.528773	2.032682	0.734637	-0.154121	-69.465636	-91.868829			
13124	8.304328	2.317976	5.686333	2.391183	2.316689	-0.035967	0.632410	-69.368535	-92.847176			
13125	7.381865	3.479198	5.692113	3.538996	2.573230	-0.876762	1.215908	-69.276239	-93.687880			
13126	6.463188	4.507249	5.565265	4.570426	2.699080	-1.757483	1.557452	-69.172490	-94.316650			
13127	5.804673	4.168662	5.193986	4.238106	2.563309	-2.497142	1.634682	-69.064035	-94.756885			
13128	5.721699	2.721543	5.029213	2.799993	2.487704	-2.642686	1.660213	-68.992849	-95.117478			
13129	6.380017	1.031632	5.448028	1.124753	2.729484	-1.892162	1.764916	-68.940025	-95.473041			
13130	7.119213	-0.779018	5.467527	-0.704569	2.591906	-1.212134	1.964263	-68.834303	-95.852898			
13131	7.652709	-2.199416	5.167898	-2.166723	2.207090	-0.838136	2.228215	-68.689077	-96.248559			
13132	8.247834	-3.525253	4.479521	-3.569900	1.436957	-0.554652	2.540761	-68.575255	-96.673458			
13133	8.816529	-4.178437	4.097703	-4.289586	0.921062	-0.182904	2.918967	-68.518411	-97.114343			
13134	8.902301	-4.074442	3.956289	-4.222078	0.750792	-0.163098	3.300378	-68.474802	-97.532442			
13135	8.755183	-3.057517	3.672127	-3.241827	0.463131	-0.391319	3.647576	-68.467179	-97.879537			
13136	8.743300	-1.653222	3.472094	-1.870673	0.180812	-0.447767	3.875486	-68.544424	-98.100661			
13137	8.817001	-0.429041	3.513505	-0.659282	0.117095	-0.335352	3.989640	-68.697696	-98.197757			
13138	8.650735	0.517625	3.790468	0.310345	0.385495	-0.366745	3.992073	-68.843324	-98.161345			
13139	8.532954	1.066773	3.739002	0.866811	0.363223	-0.482839	3.887034	-69.017468	-98.010504			
13140	8.572893	1.191864	3.748379	1.003008	0.375723	-0.441556	3.670639	-69.189261	-97.759306			
13141	8.407213	0.812071	3.673590	0.645413	0.415787	-0.634101	3.365022	-69.317792	-97.416266			
13142	8.203291	0.310960	3.616437	0.171216	0.486987	-0.857087	3.027194	-69.415621	-97.035750			
13143	8.174522	-0.394365	3.580060	-0.514358	0.526350	-0.910243	2.714810	-69.500364	-96.658826			
13144	8.335608	-0.917419	3.613934	-1.024223	0.546713	-0.755282	2.444759	-69.549492	-96.302161			
13145	8.374690	-1.255109	3.523023	-1.355620	0.472806	-0.753925	2.245576	-69.562351	-95.992320			
13146	8.663243	-1.493870	3.379204	-1.603490	0.253912	-0.535469	2.096777	-69.599998	-95.717649			
13147	8.939865	-1.549773	3.350955	-1.663815	0.136644	-0.285625	2.014268	-69.638845	-95.484195			
13148	9.206232	-1.573908	3.337070	-1.693283	0.034353	-0.040301	1.966358	-69.678768	-95.270360			
13149	9.208610	-1.366774	3.235451	-1.489097	-0.074272	-0.070419	1.935531	-69.695071	-95.059743			
13150	9.182977	-1.154926	3.102972	-1.280507	-0.202993	-0.137542	1.897775	-69.716297	-94.835100			
13151	9.267937	-0.891485	2.936732	-1.023400	-0.403294	-0.111976	1.834397	-69.730168	-94.575740			
13152	9.180628	-0.653364	2.863516	-0.779802	-0.456231	-0.216110	1.730951	-69.727654	-94.274612			
13153	9.185494	-0.462074	2.740787	-0.585231	-0.586777	-0.251730	1.598107	-69.705580	-93.939497			
13154	9.182728	-0.251189	2.610994	-0.369310	-0.724190	-0.297331	1.462964	-69.662540	-93.589631			
13155	9.118122	-0.086317	2.493525	-0.196971	-0.828987	-0.397847	1.331914	-69.594226	-93.233138			
13156	9.112343	-0.021948	2.292838	-0.128478	-1.031054	-0.473909	1.225705	-69.506078	-92.890832			
13157	9.139600	-0.049258	2.241052	-0.149308	-1.105000	-0.468508	1.174197	-69.398645	-92.584683			
13158	9.061200	-0.226649	2.056147	-0.323641	-1.266383	-0.610734	1.188301	-69.266658	-92.326401			
13159	9.065001	-0.414587	1.971842	-0.510971	-1.367676	-0.641941	1.290786	-69.109103	-92.137532			
13160	8.949830	-0.554235	1.833201	-0.652449	-1.483586	-0.804888	1.475242	-68.925814	-92.003863			
13161	8.786024	-0.540038	1.815278	-0.642400	-1.474112	-0.969877	1.755494	-68.730688	-91.949141			
13162	8.599465	-0.529049	1.796839	-0.639611	-1.455995	-1.156465	2.114227	-68.541196	-91.964308			
13163	8.317811	-0.609800	1.937263	-0.732301	-1.251783	-1.374233	2.538205	-68.377384	-92.040082			
13164	7.941945	-0.705974	2.445497	-0.847933	-0.666872	-1.542890	2.973110	-68.235635	-92.171290			
13165	7.714281	-0.778671	2.881217	-0.947916	-0.199044	-1.598089	3.457387	-68.135956	-92.380953			
13166	7.684396	-0.589996	3.061389	-0.790274	-0.031661	-1.557718	4.005161	-68.076591	-92.674207			
13167	7.706991	-0.241735	3.278337	-0.480077	0.161140	-1.449249	4.610697	-68.058737	-93.056070			
13168	7.843824	0.238729	3.713490	-0.050805	0.527228	-1.147129	5.233062	-68.105320	-93.504415			
13169	8.166434	0.704253	3.928521	0.365342	0.629914	-0.752361	5.788881	-68.189016	-93.972240			
13170	8.513855	1.063697	3.319595	0.708886	-0.040218	-0.640301	6.239137	-68.269808	-94.406504			
13171	8.879375	1.414998	2.360071	1.062419	-1.043489	-0.636751	6.582927	-68.355282	-94.764865			
13172	9.277448	1.448431	1.604667	1.094862	-1.874817	-0.537439	6.830673	-68.466366	-95.037891			
13173	9.888214	0.980962	1.517688	0.599537	-2.169090	-0.015851	6.989727	-68.599650	-95.221759			
13174	10.742916	0.039107	1.358709	-0.369853	-2.627538	0.685745	7.067018	-68.703886	-95.293722			
13175	11.387619	-1.391395	1.594708	-1.828760	-2.660708	1.310856	7.026629	-68.735059	-95.243698			
13176	12.042929	-2.720174	1.875663	-3.180225	-2.665814	1.965649	6.904053	-68.727256	-95.073806			
13177	12.731342	-3.248631	2.739934	-3.747293	-2.127475	2.898706	6.681608	-68.724157	-94.807705			
13178	12.990477	-3.285503	2.865843	-3.770760	-2.106450	3.191321	6.336671	-68.766944	-94.410272			
13179	13.402095	-2.287841	2.818960	-2.747009	-2.249400	3.610827	5.963749	-69.002496	-93.888438			
13180	13.909412	-0.023532	4.747568	-0.520954	-0.502311	4.866792	5.289566	-69.329730	-93.117430			
13181	13.357289	1.163629	5.810328	0.717444	0.784468	4.761260	4.142847	-69.513783	-92.049184			
13182	11.689484	1.886422	5.754416	1.571645	1.373447	3.185712	2.741656	-69.652609	-90.788396			
13183	10.991274	2.853388	6.552176	2.630418	2.425358	2.799928	1.194809	-69.833926	-89.418828			
13184	11.053524	3.161302	7.455538	3.040632	3.283067	3.138515	-0.466855	-69.894896	-88.010147			
13185	10.724742	2.749549	6.677727	2.775755	2.646605	2.534840	-2.065779	-69.785316	-86.642411			
13186	9.979722	1.976989	5.717725	2.120309	1.962026	1.494371	-3.487232	-69.669477	-85.387673			
13187	9.892964	0.548613	5.998980	0.784298	2.213663	1.529416	-4.850663	-69.637516	-84.145256			
13188	9.311625	-1.330254	6.534948	-1.030196	2.869014	1.227618	-6.093823	-69.522338	-82.946109			
13189	7.675653	-3.083302	5.950319	-2.782933	2.818720	-0.424481	-6.915442	-69.262796	-81.994111			
13190	6.490283	-3.465304	5.900066	-3.193840	3.131742	-1.510024	-7.406859	-69.034513	-81.232497			
13191	6.832484	-3.466257	5.855288	-3.162638	2.929557	-1.187291	-7.854806	-68.895746	-80.527468			
13192	7.204427	-2.867363	5.828792	-2.528744	2.762708	-0.864328	-8.298577	-68.744154	-79.819109			
13193	7.698497	-1.616117	5.882163	-1.234109	2.662033	-0.438840	-8.739586	-68.609409	-79.135007			
13194	8.514374	-0.101402	5.692097	0.357196	2.247586	0.173580	-9.191307	-68.505282	-78.476063			
13195	9.215153	1.205759	5.384417	1.744251	1.768185	0.636997	-9.630885	-68.400860	-77.863731			
13196	9.885980	2.249175	5.084272	2.872843	1.297624	1.082453	-10.041437	-68.281910	-77.323441			
13197	9.635840	2.955141	4.667769	3.594317	1.032481	0.646049	-10.337586	-68.154740	-76.914440			
13198	8.855036	3.154189	4.365998	3.755104	1.035484	-0.208030	-10.524247	-68.026396	-76.659405			
13199	8.003463	2.889072	3.929858	3.442106	0.911806	-1.142829	-10.580754	-67.931308	-76.571708			
13200	7.433276	2.289950	3.843498	2.801636	0.994306	-1.662097	-10.556193	-67.901421	-76.602992			
13201	7.440838	1.367131	3.774041	1.882361	0.869267	-1.616372	-10.455865	-67.950270	-76.716347			
13202	7.475321	0.678715	3.698580	1.193320	0.750519	-1.564459	-10.283778	-68.029454	-76.881405			
13203	7.582278	-0.092051	3.585215	0.426664	0.570050	-1.455286	-10.119783	-68.146948	-77.064967			
13204	7.649807	-0.893874	3.424505	-0.374043	0.363199	-1.399963	-9.941253	-68.289704	-77.248542			
13205	7.774229	-1.258330	3.546128	-0.745280	0.428219	-1.218609	-9.763421	-68.436904	-77.414556			
13206	7.873034	-1.414666	3.483048	-0.905011	0.343459	-1.142018	-9.596324	-68.578340	-77.554561			
13207	8.084283	-1.288777	3.593259	-0.779854	0.396895	-0.915365	-9.457957	-68.709800	-77.659770			
13208	8.386867	-1.030103	3.647728	-0.511554	0.372692	-0.630860	-9.353366	-68.816687	-77.722297			
13209	8.375823	-0.520984	3.692184	-0.015562	0.460928	-0.655977	-9.257648	-68.872214	-77.764486			
13210	8.515056	-0.135104	3.704202	0.373378	0.453228	-0.544424	-9.213877	-68.903350	-77.765209			
13211	8.729958	0.131643	3.729452	0.652008	0.419317	-0.350268	-9.191223	-68.887241	-77.736788			
13212	8.780364	0.436564	3.699488	0.961132	0.387508	-0.331250	-9.187805	-68.829910	-77.707638			
13213	8.870521	0.458487	3.650691	0.993263	0.302715	-0.265663	-9.177682	-68.772058	-77.691050			
13214	8.795284	0.543334	3.583565	1.075117	0.263600	-0.364471	-9.140268	-68.722690	-77.702835			
13215	8.642092	0.533018	3.473534	1.055857	0.207548	-0.545682	-9.073854	-68.687486	-77.759624			
13216	8.572298	0.477146	3.230494	1.001087	-0.005177	-0.694253	-8.965138	-68.647786	-77.886648			
13217	8.415632	0.481453	3.088557	0.993277	-0.089910	-0.890852	-8.816339	-68.604757	-78.074286			
13218	8.349882	0.408797	2.803475	0.919110	-0.346178	-1.050125	-8.624485	-68.564368	-78.327193			
13219	8.419757	0.416137	2.657315	0.926257	-0.516390	-1.037599	-8.389240	-68.525730	-78.627114			
13220	8.654517	0.386149	2.737796	0.897568	-0.537657	-0.787690	-8.157600	-68.486140	-78.944624			
13221	8.872876	0.004297	2.744977	0.519531	-0.644306	-0.561861	-7.945888	-68.425482	-79.284033			
13222	9.007039	-0.241456	2.735480	0.272855	-0.731729	-0.428765	-7.761089	-68.329286	-79.626847			
13223	9.286634	-0.373607	2.607456	0.155059	-0.979137	-0.210751	-7.641476	-68.214364	-79.941394			
13224	9.533628	-0.381026	2.418876	0.164167	-1.268133	-0.053023	-7.613151	-68.070075	-80.210741			
13225	9.589130	-0.328871	2.346900	0.221381	-1.379887	-0.034429	-7.677779	-67.900548	-80.417352			
13226	9.336247	-0.158488	2.402590	0.379723	-1.257404	-0.260843	-7.827881	-67.710302	-80.570646			
13227	8.916605	0.061815	2.658229	0.580343	-0.887207	-0.568672	-8.044729	-67.511325	-80.675232			
13228	8.595183	0.276847	2.978944	0.787820	-0.494213	-0.759351	-8.316443	-67.318842	-80.742393			
13229	8.387317	0.443889	3.034596	0.961062	-0.388937	-0.942632	-8.635838	-67.150528	-80.773228			
13230	8.423806	0.445484	3.082484	0.986057	-0.384401	-0.894139	-8.970085	-67.014273	-80.790271			
13231	8.711801	0.347519	3.253212	0.928315	-0.358409	-0.560155	-9.288009	-66.933580	-80.802025			
13232	8.819323	0.084119	3.329564	0.691746	-0.343013	-0.417085	-9.569042	-66.898915	-80.838122			
13233	8.781388	-0.376707	3.274869	0.243330	-0.383261	-0.443945	-9.802463	-66.908542	-80.892684			
13234	8.766572	-0.715391	3.217179	-0.086311	-0.424925	-0.457113	-9.984980	-66.955580	-80.962520			
13235	8.897426	-1.003125	2.992526	-0.365865	-0.669565	-0.402934	-10.109233	-67.030108	-81.074943			
13236	9.272634	-1.235212	2.615365	-0.586750	-1.144852	-0.184986	-10.173350	-67.112880	-81.252233			
13237	9.644342	-1.238048	2.120375	-0.591048	-1.728356	-0.029768	-10.202982	-67.187865	-81.489571			
13238	10.061762	-0.930770	1.670474	-0.288699	-2.293709	0.164857	-10.238680	-67.260556	-81.755979			
13239	10.349023	-0.272921	1.732584	0.375085	-2.347922	0.411068	-10.301920	-67.325667	-82.027046			
13240	10.387040	0.634093	1.965304	1.283439	-2.164900	0.474250	-10.357274	-67.383959	-82.286718			
13241	10.564961	1.413350	1.877675	2.055215	-2.335989	0.553645	-10.426201	-67.453245	-82.533400			
13242	10.618547	1.791782	1.873003	2.423464	-2.369026	0.578977	-10.439332	-67.572470	-82.794351			
13243	10.746730	2.015384	2.629011	2.687962	-1.706879	0.972811	-10.394234	-67.804423	-83.059051			
13244	11.221109	1.202912	3.103797	1.912430	-1.363960	1.653600	-10.219279	-68.116100	-83.422806			
13245	11.618476	0.333001	3.991003	1.093347	-0.582812	2.414020	-9.832573	-68.470757	-83.942400			
13246	12.382676	-0.935569	4.660453	-0.142090	-0.094298	3.449885	-9.238289	-68.857662	-84.641270			
13247	12.965647	-2.628306	5.362963	-1.829883	0.523459	4.334888	-8.335903	-69.157949	-85.527727			
13248	13.024641	-4.345554	6.365399	-3.565359	1.592298	4.809042	-7.173865	-69.359219	-86.569502			
13249	12.678387	-5.035666	7.155191	-4.328933	2.522204	4.754168	-5.771418	-69.520594	-87.690285			
13250	11.690707	-4.293500	7.021867	-3.745824	2.709225	3.716564	-4.268270	-69.567247	-88.876907			
13251	10.296560	-3.508929	6.209399	-3.140979	2.376353	2.077408	-2.836250	-69.468516	-90.018756			
13252	8.962574	-1.489387	6.128031	-1.229913	2.644066	0.751129	-1.559789	-69.339541	-91.014391			
13253	8.024795	0.554779	6.148488	0.741081	2.886763	-0.136631	-0.560160	-69.260892	-91.876130			
13254	7.426406	2.129912	6.070488	2.263639	2.953031	-0.719052	0.263300	-69.233635	-92.648597			
13255	7.003201	3.444994	6.050871	3.543100	3.024623	-1.105000	0.959975	-69.195291	-93.354457			
13256	6.297307	3.964623	5.800663	4.037763	3.009777	-1.833988	1.534374	-69.145566	-93.975932			
13257	6.059771	3.515235	5.929518	3.578810	3.228501	-2.002069	1.988403	-69.165251	-94.481273			
13258	6.585553	2.102190	5.998954	2.136870	3.173495	-1.497711	2.431818	-69.197831	-94.942922			
13259	7.491373	0.377471	5.871122	0.359110	2.818554	-0.720935	2.896509	-69.211714	-95.389743			
13260	8.509170	-1.333380	5.732333	-1.419687	2.414393	0.147161	3.470843	-69.232362	-95.886927			
13261	9.338090	-2.702226	5.364505	-2.869864	1.845872	0.753122	4.111837	-69.239090	-96.430919			
13262	9.433870	-3.544787	4.701095	-3.780146	1.228494	0.573113	4.747839	-69.204553	-96.962573			
13263	9.281576	-3.570360	4.131586	-3.855727	0.747939	0.214225	5.308184	-69.210518	-97.398138			
13264	8.730404	-2.949658	3.902149	-3.247480	0.702366	-0.373001	5.731303	-69.253668	-97.670912			
13265	8.183032	-1.735651	3.553093	-2.037916	0.527697	-0.971457	6.014012	-69.370844	-97.754583			
13266	8.089077	-0.401792	3.593071	-0.709446	0.570774	-0.999312	6.121574	-69.586044	-97.650962			
13267	8.101283	0.586514	3.604939	0.278714	0.582689	-0.949675	6.070996	-69.871985	-97.384994			
13268	8.285572	1.271273	3.691717	0.966887	0.631154	-0.726318	5.861804	-70.211520	-96.983440			
13269	8.249213	1.504395	3.799836	1.219945	0.791149	-0.722194	5.554123	-70.502573	-96.494639			
13270	8.107166	1.344473	3.588655	1.082823	0.685953	-0.937498	5.203711	-70.745232	-95.983880			
13271	7.981425	1.006758	3.597208	0.768340	0.776803	-1.068390	4.866786	-70.947637	-95.488098			
13272	7.874408	0.373024	3.503341	0.153863	0.760482	-1.221018	4.558957	-71.117970	-95.007404			
13273	7.901730	-0.367900	3.372281	-0.575248	0.657900	-1.258087	4.323858	-71.258603	-94.576807			
13274	8.323296	-0.910292	3.283293	-1.119543	0.458060	-0.900746	4.173825	-71.372223	-94.187937			
13275	8.925091	-1.148642	3.271465	-1.365735	0.266885	-0.339428	4.068933	-71.468638	-93.819853			
13276	9.417182	-1.255232	3.085812	-1.475901	-0.057105	0.066564	3.994054	-71.556337	-93.467369			
13277	9.940039	-1.156630	2.890703	-1.379281	-0.399037	0.504129	3.940707	-71.640414	-93.113731			
13278	10.296449	-0.935945	2.785403	-1.155976	-0.602598	0.815197	3.869353	-71.700038	-92.745667			
13279	10.364309	-0.540257	2.734083	-0.751606	-0.660675	0.873031	3.773012	-71.754832	-92.348668			
13280	10.365240	-0.200949	2.566484	-0.397263	-0.808865	0.829367	3.648703	-71.779378	-91.926385			
13281	10.166170	0.137303	2.492767	-0.042699	-0.807777	0.624238	3.503934	-71.766026	-91.480199			
13282	9.954478	0.286018	2.457055	0.122323	-0.775591	0.414435	3.321347	-71.726081	-91.001529			
13283	9.684132	0.347768	2.297304	0.206264	-0.847679	0.107990	3.141864	-71.669972	-90.522957			
13284	9.569800	0.424492	2.226395	0.301103	-0.885629	-0.022740	2.953379	-71.596526	-90.030833			
13285	9.452097	0.247137	2.064158	0.147680	-1.022330	-0.189956	2.760637	-71.517862	-89.531741			
13286	9.241812	0.235766	2.058579	0.151578	-0.974330	-0.392916	2.582960	-71.433042	-89.038935			
13287	9.076671	0.123189	1.888565	0.063652	-1.101633	-0.606704	2.421062	-71.355582	-88.550598			
13288	8.906279	0.044290	1.782537	0.005053	-1.163903	-0.804553	2.290465	-71.286596	-88.081811			
13289	8.657235	-0.023703	1.691227	-0.045210	-1.185340	-1.071897	2.173873	-71.221664	-87.612156			
13290	8.423953	-0.117698	1.697550	-0.129387	-1.120704	-1.292958	2.068470	-71.171751	-87.137776			
13291	8.272932	-0.244739	1.644993	-0.241600	-1.140013	-1.455099	1.979127	-71.128929	-86.668977			
13292	8.186732	-0.540017	1.468610	-0.508841	-1.313882	-1.597714	1.900721	-71.083669	-86.202154			
13293	8.063559	-0.758931	1.446126	-0.715210	-1.326834	-1.724658	1.881422	-71.042533	-85.765652			
13294	7.977963	-0.964311	1.618979	-0.929922	-1.168343	-1.752347	1.909035	-71.025081	-85.367660			
13295	8.094606	-1.226017	1.872647	-1.209007	-1.006391	-1.562958	1.980983	-71.024375	-85.025548			
13296	8.364456	-1.391499	2.144575	-1.394955	-0.868545	-1.222035	2.087485	-71.015444	-84.736084			
13297	8.483158	-1.272231	2.467635	-1.314311	-0.600999	-1.004559	2.248073	-70.994270	-84.508576			
13298	8.815401	-0.948893	2.657152	-1.013434	-0.499484	-0.625979	2.450365	-70.980816	-84.340242			
13299	9.097190	-0.628374	2.811352	-0.716289	-0.409368	-0.306018	2.670460	-70.982743	-84.209758			
13300	9.407712	-0.174855	2.821478	-0.268575	-0.437914	-0.002874	2.893850	-70.994937	-84.103784			
13301	9.650945	0.270294	2.621325	0.200901	-0.636330	0.169289	3.054242	-71.003990	-83.970470			
13302	9.821407	0.649532	2.274323	0.631423	-0.953358	0.224588	3.115855	-71.018415	-83.773279			
13303	10.132179	0.817209	2.008035	0.853921	-1.269461	0.435257	3.049580	-71.037026	-83.489497			
13304	10.493005	0.673582	1.682338	0.791206	-1.709263	0.667748	2.841035	-71.017263	-83.093704			
13305	10.634657	0.261299	1.810113	0.391864	-1.706878	0.835020	2.508694	-70.969771	-82.605913			
13306	10.904822	-0.714535	2.322945	-0.612275	-1.490285	1.242892	2.028180	-70.899485	-82.025239			
13307	11.121812	-1.176502	2.729549	-1.086712	-1.274976	1.576897	1.468866	-70.804408	-81.370133			
13308	11.662633	-1.009379	2.973842	-0.890327	-1.206484	2.171932	0.803897	-70.741815	-80.607877			
13309	12.577617	-0.651533	3.430919	-0.508453	-1.023297	3.190625	-0.002471	-70.674883	-79.726050			
13310	12.806113	-0.132066	3.751995	0.033329	-0.714878	3.513181	-0.950614	-70.570129	-78.713670			
13311	12.611646	0.834560	4.438379	0.937290	0.158352	3.549391	-2.040162	-70.518274	-77.583678			
13312	12.292910	1.471515	5.555932	1.444897	1.425477	3.604795	-3.307413	-70.479672	-76.381655			
13313	11.531453	1.627119	6.671604	1.457895	2.743031	3.244170	-4.672306	-70.369485	-75.174669			
13314	11.036334	1.904234	7.207638	1.715307	3.442905	2.937991	-6.027520	-70.184994	-74.033286			
13315	10.429125	1.929683	6.692625	1.874876	3.143839	2.182382	-7.214191	-69.940072	-73.071527			
13316	10.060956	1.746425	6.049086	1.848761	2.607635	1.617360	-8.194325	-69.726592	-72.278333			
13317	10.422693	1.228641	5.806595	1.490284	2.154282	1.891855	-9.068684	-69.566577	-71.513880			
13318	10.511829	0.336932	5.260620	0.773391	1.450577	1.831343	-9.964441	-69.387452	-70.657005			
13319	9.266564	-1.396304	4.893974	-0.954785	1.203892	0.647163	-10.807714	-69.133926	-69.802489			
13320	7.439552	-2.796234	4.420752	-2.435710	1.097132	-1.119459	-11.332016	-68.826298	-69.095103			
13321	6.452384	-3.579238	4.516214	-3.313863	1.336779	-1.934139	-11.703297	-68.579117	-68.478471			
13322	6.294849	-3.611395	4.874516	-3.397581	1.677201	-1.934141	-12.067197	-68.383276	-67.861857			
13323	6.417158	-2.896542	4.875284	-2.661927	1.738774	-1.861023	-12.422176	-68.192238	-67.269118			
13324	6.663283	-1.300212	5.086224	-1.080481	2.130433	-1.673074	-12.722510	-68.008442	-66.729044			
13325	7.279618	0.333199	5.105258	0.617539	2.240871	-1.224054	-12.981776	-67.848041	-66.249963			
13326	8.347439	1.655045	5.022137	2.095982	2.051438	-0.376628	-13.174547	-67.696900	-65.848121			
13327	9.220216	2.668958	4.892747	3.252287	1.831355	0.293917	-13.290388	-67.562964	-65.543332			
13328	9.487622	3.091171	4.624821	3.757879	1.575828	0.402713	-13.337753	-67.453488	-65.326322			
13329	9.271319	2.945203	4.299340	3.637391	1.321486	0.093824	-13.313547	-67.406577	-65.195234			
13330	8.976573	2.270340	4.299538	2.928385	1.282452	-0.117369	-13.222677	-67.413344	-65.150637			
13331	8.696274	1.086101	4.030168	1.766109	0.882971	-0.370853	-13.058386	-67.463958	-65.193796			
13332	8.578340	0.056121	3.932087	0.744871	0.618201	-0.425712	-12.833631	-67.578652	-65.287273			
13333	8.386641	-0.596279	3.868362	0.067074	0.494651	-0.571136	-12.527151	-67.711961	-65.438366			
13334	7.979593	-1.001555	3.655600	-0.379875	0.361196	-0.994207	-12.192339	-67.843746	-65.623481			
13335	7.850309	-1.426524	3.473195	-0.807473	0.154124	-1.149573	-11.829742	-68.000244	-65.832851			
13336	7.729867	-1.359599	3.422813	-0.781452	0.176180	-1.287830	-11.436091	-68.169951	-66.052196			
13337	7.892634	-1.124908	3.566854	-0.587911	0.318799	-1.104406	-11.022233	-68.341549	-66.290740			
13338	8.135857	-0.846917	3.533953	-0.308392	0.282625	-0.911947	-10.590474	-68.489135	-66.547383			
13339	8.498661	-0.381196	3.553918	0.159443	0.296654	-0.599145	-10.126762	-68.605499	-66.830532			
13340	8.837846	-0.095555	3.584974	0.446659	0.283365	-0.289620	-9.671691	-68.685538	-67.128399			
13341	9.086114	0.059094	3.466523	0.624986	0.131296	-0.108574	-9.227281	-68.753686	-67.418392			
13342	9.240915	0.177980	3.370181	0.752257	0.020621	-0.003614	-8.789056	-68.804959	-67.709229			
13343	9.136509	0.346699	3.253514	0.898459	-0.009936	-0.149667	-8.384858	-68.852770	-67.977555			
13344	9.032504	0.314912	3.040397	0.874076	-0.177382	-0.318805	-8.008295	-68.893885	-68.233956			
13345	8.915485	0.287609	3.005125	0.817231	-0.177338	-0.437187	-7.653642	-68.934049	-68.467386			
13346	8.770125	0.361870	2.829004	0.887833	-0.270608	-0.637297	-7.339189	-68.970098	-68.674432			
13347	8.746538	0.295124	2.641347	0.843824	-0.449562	-0.721397	-7.064175	-69.003617	-68.857549			
13348	8.703402	0.242258	2.563765	0.789673	-0.519119	-0.785633	-6.830030	-69.025908	-69.011570			
13349	8.780368	0.079186	2.514861	0.640683	-0.630938	-0.723293	-6.629480	-69.043630	-69.145482			
13350	8.896391	-0.039301	2.434174	0.548712	-0.774478	-0.638178	-6.455038	-69.051331	-69.266894			
13351	9.089635	-0.180539	2.345213	0.448396	-0.958319	-0.483451	-6.313192	-69.046188	-69.380858			
13352	9.189140	-0.215715	2.264152	0.439227	-1.079735	-0.418303	-6.192688	-69.013335	-69.483741			
13353	9.221708	-0.105030	2.316411	0.536174	-1.024261	-0.374463	-6.123756	-68.951147	-69.550611			
13354	9.233849	0.093362	2.333708	0.727051	-0.975741	-0.366091	-6.090591	-68.855331	-69.600689			
13355	9.124720	0.267507	2.365149	0.880443	-0.883765	-0.465509	-6.119765	-68.726611	-69.615514			
13356	8.933647	0.463173	2.376725	1.053285	-0.780266	-0.649985	-6.207091	-68.568822	-69.601504			
13357	8.706844	0.589613	2.439487	1.148109	-0.637959	-0.847051	-6.378751	-68.387732	-69.545670			
13358	8.425772	0.762459	2.585736	1.267391	-0.391771	-1.066195	-6.620266	-68.184590	-69.464281			
13359	8.362520	0.964198	2.755167	1.443239	-0.194514	-1.075900	-6.941651	-67.969847	-69.346419			
13360	8.230963	1.104854	2.872436	1.566813	-0.036558	-1.166072	-7.314835	-67.754864	-69.207083			
13361	8.208097	1.177188	2.955658	1.648825	0.036092	-1.165465	-7.718953	-67.544522	-69.061078			
13362	8.147905	1.340704	3.087424	1.804841	0.189743	-1.185727	-8.113879	-67.369251	-68.919150			
13363	8.114139	1.164879	3.042824	1.667808	0.098383	-1.229936	-8.463555	-67.217990	-68.828134			
13364	8.269379	0.916365	3.000668	1.479367	-0.068605	-1.092992	-8.739376	-67.143761	-68.790641			
13365	8.525177	0.565082	3.063236	1.176391	-0.189810	-0.814830	-8.915143	-67.140796	-68.828256			
13366	8.793305	0.136907	2.996215	0.813861	-0.441263	-0.568166	-8.960561	-67.184434	-68.967765			
13367	9.141762	-0.333894	2.785319	0.435609	-0.855708	-0.298525	-8.868263	-67.256686	-69.214083			
13368	9.524494	-0.676851	2.638561	0.163731	-1.193395	0.020169	-8.668990	-67.344725	-69.546740			
13369	10.202402	-0.881505	2.330883	0.086043	-1.751227	0.542253	-8.415586	-67.446277	-69.933326			
13370	10.753330	-0.922637	2.021968	0.143769	-2.230609	0.938004	-8.132165	-67.522605	-70.357026			
13371	11.206542	-0.687345	1.785761	0.443885	-2.554405	1.256454	-7.895146	-67.579733	-70.749396			
13372	11.519578	-0.175577	1.856201	0.945237	-2.496497	1.547373	-7.690632	-67.612068	-71.097845			
13373	11.594683	0.720449	2.207539	1.750619	-2.023007	1.705633	-7.554951	-67.639116	-71.367559			
13374	11.759033	1.049485	2.210039	2.076914	-2.013294	1.844654	-7.503730	-67.695308	-71.584287			
13375	11.942205	1.280073	2.746514	2.218510	-1.533718	2.209128	-7.379118	-67.823824	-71.817778			
13376	12.135034	0.879545	3.441312	1.707965	-1.027573	2.673389	-7.131100	-67.978599	-72.173200			
13377	12.121156	-0.029474	3.283670	0.802362	-1.321905	2.649830	-6.708243	-68.137172	-72.706404			
13378	12.173098	-0.899454	3.874181	-0.195178	-0.939675	2.957634	-6.136790	-68.359883	-73.376822			
13379	12.243041	-2.086231	4.686015	-1.550921	-0.416973	3.363937	-5.382210	-68.530423	-74.168972			
13380	11.482134	-2.975041	5.879833	-2.771004	0.781003	3.109142	-4.384097	-68.561227	-75.039887			
13381	10.185907	-2.156149	6.848497	-2.332120	2.253082	2.220089	-3.307404	-68.505178	-75.905965			
13382	9.347300	-1.409578	6.985518	-1.777734	2.786874	1.466888	-2.304068	-68.482252	-76.670103			
13383	9.581982	-1.184340	7.756667	-1.746322	3.423592	1.960664	-1.406589	-68.432500	-77.379707			
13384	10.498175	-2.412366	7.514081	-2.898749	2.611653	2.727998	-0.592985	-68.416858	-78.222304			
13385	10.784504	-2.645257	6.527238	-2.999039	1.558049	2.616528	0.459371	-68.482829	-79.305301			
13386	9.705057	-0.436710	6.587254	-0.998437	2.420392	1.629122	1.661820	-68.460561	-80.518357			
13387	7.517307	1.948580	6.181355	1.227385	3.268072	-0.521348	2.561535	-68.282801	-81.650940			
13388	5.861151	2.938056	4.996649	2.302183	2.942881	-2.464825	3.214124	-68.225066	-82.662882			
13389	6.173188	3.863386	5.350234	3.154154	3.295446	-2.012027	3.889453	-68.297359	-83.654450			
13390	6.758530	4.250849	5.784005	3.472521	3.523574	-1.284611	4.523391	-68.294888	-84.603076			
13391	7.428931	3.441508	5.385636	2.754355	2.750633	-0.819049	4.979333	-68.249523	-85.413601			
13392	8.206862	1.826422	5.327559	1.186551	2.128555	-0.162163	5.304600	-68.196860	-86.079097			
13393	8.849521	0.213020	5.324437	-0.396389	1.623905	0.381174	5.551646	-68.115085	-86.602991			
13394	9.212317	-1.314371	5.129151	-1.874719	1.069102	0.591397	5.722454	-67.996335	-87.012367			
13395	9.345267	-2.889132	4.393972	-3.326826	0.109428	0.380857	5.842879	-67.894793	-87.355522			
13396	9.017801	-3.897179	3.796071	-4.250760	-0.456380	-0.187635	5.941182	-67.837117	-87.652530			
13397	8.767979	-3.924736	3.504434	-4.247210	-0.621755	-0.531703	6.004003	-67.875754	-87.860640			
13398	8.371886	-3.177290	3.562048	-3.523915	-0.299554	-0.848086	5.995175	-67.974730	-87.979847			
13399	8.233309	-2.022770	3.599415	-2.387147	-0.034399	-0.916900	5.962257	-68.142622	-88.038896			
13400	8.120366	-0.812799	3.979063	-1.239342	0.546459	-0.834980	5.904340	-68.352434	-88.062943			
13401	7.898078	0.034081	3.927904	-0.391667	0.727189	-1.030496	5.794138	-68.595994	-88.029517			
13402	7.653208	0.459747	3.905315	0.037402	0.886722	-1.254261	5.630213	-68.830155	-87.950146			
13403	7.477378	0.468085	3.779543	0.070185	0.868257	-1.466650	5.405348	-69.040658	-87.812242			
13404	7.166400	0.087029	3.737439	-0.294899	0.921239	-1.787876	5.175727	-69.226753	-87.653854			
13405	7.257227	-0.167125	3.815951	-0.545140	0.957059	-1.685969	4.963278	-69.413708	-87.468146			
13406	7.830450	-0.428941	3.814329	-0.786151	0.748447	-1.159898	4.757480	-69.592003	-87.255014			
13407	8.384868	-0.737164	3.753298	-1.064542	0.483791	-0.671062	4.534135	-69.719273	-87.009794			
13408	8.802959	-0.975754	3.548161	-1.256142	0.138277	-0.355597	4.311322	-69.844114	-86.744852			
13409	9.209790	-0.995037	3.405324	-1.237024	-0.115769	-0.021728	4.077741	-69.978084	-86.456868			
13410	9.469289	-1.057017	3.182512	-1.251066	-0.397453	0.146726	3.823867	-70.111529	-86.161300			
13411	9.452828	-0.923477	3.125371	-1.097301	-0.405717	0.117468	3.554280	-70.233939	-85.844143			
13412	9.222977	-0.724611	2.863181	-0.857385	-0.526634	-0.180778	3.295123	-70.349673	-85.518483			
13413	9.116511	-0.491426	2.682343	-0.591873	-0.611291	-0.335176	3.054880	-70.444258	-85.184630			
13414	8.992729	-0.172904	2.595587	-0.255505	-0.595143	-0.473703	2.835564	-70.509501	-84.842489			
13415	8.931945	-0.034701	2.341839	-0.074363	-0.782444	-0.612291	2.637905	-70.565196	-84.503411			
13416	8.804161	0.070337	2.393582	0.029700	-0.668360	-0.713246	2.461772	-70.611389	-84.164445			
13417	8.744727	0.066249	2.291656	0.047962	-0.737445	-0.802683	2.311183	-70.639698	-83.828370			
13418	8.637602	-0.002349	2.026112	0.023166	-0.955410	-0.992259	2.204615	-70.658970	-83.505696			
13419	8.694361	-0.117089	1.745194	-0.039372	-1.246880	-1.032309	2.146075	-70.714744	-83.201169			
13420	8.782631	-0.262508	1.715254	-0.168760	-1.314874	-0.958975	2.125667	-70.809636	-82.914974			
13421	8.764882	-0.427403	1.568535	-0.305375	-1.456186	-1.023354	2.153841	-70.934525	-82.654793			
13422	8.627954	-0.678602	1.261809	-0.507715	-1.720286	-1.252485	2.243403	-71.088676	-82.431483			
13423	8.419912	-0.716767	1.070107	-0.522880	-1.816680	-1.507266	2.432478	-71.284866	-82.275018			
13424	8.300907	-0.827856	0.814050	-0.597385	-2.011436	-1.697869	2.713260	-71.515140	-82.194061			
13425	8.254492	-0.914848	0.815457	-0.692632	-1.985243	-1.736948	3.132180	-71.742613	-82.225068			
13426	8.516450	-1.050124	0.729137	-0.810331	-2.149869	-1.512946	3.662422	-71.942506	-82.346723			
13427	8.765880	-1.145039	0.833002	-0.928436	-2.132472	-1.243195	4.324228	-72.088185	-82.565535			
13428	9.016321	-1.218107	1.176680	-1.078753	-1.897201	-0.902060	5.081125	-72.180258	-82.867088			
13429	9.160476	-1.268143	1.512525	-1.217276	-1.641527	-0.667536	5.890905	-72.222842	-83.224133			
13430	9.239345	-1.066928	2.033385	-1.159305	-1.146346	-0.432906	6.687322	-72.250118	-83.573472			
13431	9.328428	-0.796505	2.380858	-1.000548	-0.798347	-0.237514	7.365347	-72.277461	-83.854219			
13432	9.528094	-0.656723	2.553489	-0.922576	-0.672751	0.007312	7.823739	-72.288678	-83.993093			
13433	9.744507	-0.316430	2.535100	-0.594036	-0.682902	0.220410	7.997778	-72.259361	-83.938804			
13434	9.915433	0.145201	2.100617	-0.036231	-1.035382	0.270771	7.933501	-72.206854	-83.704624			
13435	10.259875	0.829404	2.235784	0.618563	-0.855379	0.667645	7.664815	-72.198773	-83.342031			
13436	10.824157	1.560130	2.739132	1.247044	-0.382581	1.385423	7.217047	-72.210653	-82.860277			
13437	11.641528	2.297366	3.959065	1.732353	0.680609	2.557148	6.550343	-72.230086	-82.237802			
13438	12.569784	2.270870	5.155518	1.513148	1.503217	3.795620	5.623823	-72.216815	-81.453714			
13439	13.144877	2.146996	5.188018	1.492108	1.327064	4.340924	4.475236	-72.138062	-80.502211			
13440	13.098533	2.445140	4.640063	2.005823	0.893564	4.124950	3.156696	-72.030394	-79.455930			
13441	12.932852	2.623398	4.451852	2.318960	0.803928	3.896251	1.745306	-71.986686	-78.351781			
13442	12.510026	2.393777	5.947715	1.851954	2.278405	3.934459	0.194714	-72.063963	-77.208841			
13443	12.297010	1.160727	7.100812	0.518039	3.168033	4.068192	-1.382908	-72.116496	-76.158596			
13444	11.541379	0.014620	5.897397	-0.288395	2.040588	2.983203	-2.667832	-71.977676	-75.341941			
13445	10.820851	-0.421041	4.850142	-0.475570	1.183907	1.984081	-3.641473	-71.852995	-74.729519			
13446	11.528599	-1.457697	5.924388	-1.560525	1.769980	3.015534	-4.609081	-71.852124	-74.128714			
13447	11.738648	-2.914406	5.920973	-2.897809	1.422984	3.261140	-5.405569	-71.706982	-73.525410			
13448	10.727628	-3.832866	5.006022	-3.663153	0.662542	2.060600	-6.016450	-71.395310	-72.912734			
13449	9.630799	-4.883004	5.182577	-4.772383	0.904762	1.135392	-6.679613	-71.142757	-72.126846			
13450	8.803414	-5.444173	5.355989	-5.385784	1.160446	0.457268	-7.409407	-70.928508	-71.165195			
13451	7.931477	-5.053298	5.015359	-4.988572	1.143190	-0.463635	-8.166549	-70.694216	-70.102495			
13452	7.514952	-3.830972	4.968142	-3.791489	1.437363	-0.902494	-8.912114	-70.460509	-69.021955			
13453	7.777582	-1.948974	5.241120	-1.939463	1.975542	-0.642404	-9.602738	-70.206103	-67.983867			
13454	8.311677	-0.055067	5.018181	0.051889	1.990402	-0.309818	-10.213830	-69.889635	-67.045395			
13455	8.954048	1.895070	4.471029	2.178721	1.701772	-0.008946	-10.700665	-69.549101	-66.219326			
13456	9.223666	3.569768	4.249147	3.919596	1.787395	0.052220	-11.068075	-69.243178	-65.524849			
13457	8.913799	4.380327	4.185247	4.697077	2.012377	-0.323371	-11.279534	-68.955444	-65.017155			
13458	8.151637	4.359357	3.663606	4.684543	1.765339	-1.221192	-11.258380	-68.695157	-64.785008			
13459	6.992702	3.719754	3.233744	3.981588	1.577922	-2.406700	-11.030911	-68.481555	-64.795537			
13460	6.645607	2.701647	2.972253	2.994376	1.181619	-2.746236	-10.678295	-68.393354	-64.983465			
13461	6.548647	1.599286	2.848633	1.927719	0.808927	-2.799365	-10.218334	-68.399886	-65.317998			
13462	6.545649	0.534341	2.982138	0.848722	0.648395	-2.679429	-9.669311	-68.448804	-65.744984			
13463	6.884067	-0.196256	2.968155	0.171760	0.326915	-2.322534	-9.091474	-68.509002	-66.216055			
13464	7.372030	-0.786043	2.852339	-0.326820	-0.099114	-1.876453	-8.565011	-68.592581	-66.682649			
13465	7.639664	-0.930762	2.994119	-0.488621	-0.096997	-1.569672	-8.090850	-68.695688	-67.089473			
13466	7.995751	-0.866838	3.094744	-0.425904	-0.102941	-1.206362	-7.742550	-68.801789	-67.400390			
13467	8.615658	-0.763385	3.172873	-0.280098	-0.204158	-0.606208	-7.470704	-68.896080	-67.618116			
13468	9.068567	-0.238855	3.312882	0.238447	-0.084422	-0.158302	-7.294076	-68.932156	-67.739906			
13469	9.461002	0.039478	3.177357	0.583225	-0.262782	0.147157	-7.221722	-68.937026	-67.769243			
13470	9.622281	0.118421	3.188172	0.677620	-0.287670	0.297942	-7.230416	-68.912808	-67.725190			
13471	9.841460	-0.093922	3.026910	0.543957	-0.565640	0.454226	-7.261611	-68.893966	-67.632836			
13472	9.704828	-0.073078	2.942178	0.570111	-0.594653	0.295072	-7.303605	-68.852699	-67.522373			
13473	9.237139	-0.199579	2.772800	0.429976	-0.631534	-0.196593	-7.338301	-68.801283	-67.414458			
13474	8.918118	-0.134954	2.676709	0.476005	-0.599982	-0.532102	-7.364703	-68.762073	-67.309830			
13475	8.662114	-0.290302	2.605157	0.311848	-0.626660	-0.789751	-7.353967	-68.716955	-67.243917			
13476	8.512397	-0.210206	2.476993	0.400621	-0.677526	-0.979735	-7.300622	-68.664486	-67.215418			
13477	8.518536	-0.145585	2.402623	0.482075	-0.736796	-1.004510	-7.225978	-68.614749	-67.218370			
13478	8.554165	0.076259	2.391968	0.701894	-0.705839	-0.986013	-7.120712	-68.560952	-67.253305			
13479	8.778692	0.190449	2.354512	0.850629	-0.792782	-0.796405	-7.012541	-68.507574	-67.310041			
13480	9.051185	0.456214	2.292095	1.156834	-0.877650	-0.578120	-6.879188	-68.447683	-67.405276			
13481	9.187325	0.662088	2.272635	1.375911	-0.895613	-0.468442	-6.771735	-68.381832	-67.496793			
13482	9.202712	0.632983	2.122720	1.385925	-1.055950	-0.508888	-6.701168	-68.313527	-67.581311			
13483	9.153629	0.712018	2.004922	1.483938	-1.134153	-0.602517	-6.664358	-68.256367	-67.656209			
13484	9.131532	0.762606	1.846563	1.569240	-1.264481	-0.684993	-6.676493	-68.206601	-67.720015			
13485	8.964733	0.902476	1.951606	1.657643	-1.082829	-0.808834	-6.738548	-68.161397	-67.770192			
13486	8.835048	0.945112	2.010226	1.671336	-0.981895	-0.911292	-6.853981	-68.119578	-67.805473			
13487	8.555363	0.895180	2.193875	1.547898	-0.740210	-1.102649	-7.030320	-68.089817	-67.805817			
13488	8.335503	0.952111	2.414775	1.529305	-0.452905	-1.229311	-7.251876	-68.088936	-67.775988			
13489	8.130913	0.865184	2.495144	1.409044	-0.331036	-1.387070	-7.526181	-68.111815	-67.711705			
13490	8.101695	0.653904	2.648252	1.177676	-0.231845	-1.348787	-7.815027	-68.166350	-67.625194			
13491	8.100953	0.230839	2.683594	0.771820	-0.297717	-1.315862	-8.100117	-68.244887	-67.532020			
13492	8.354209	-0.208289	2.740077	0.378785	-0.428607	-1.036754	-8.355850	-68.363036	-67.417195			
13493	8.770286	-0.636603	2.635738	0.050893	-0.750114	-0.663645	-8.578264	-68.507267	-67.297798			
13494	9.302067	-1.064572	2.411320	-0.238001	-1.216226	-0.224136	-8.741150	-68.642971	-67.216392			
13495	9.789483	-1.427803	2.074349	-0.450146	-1.753276	0.132104	-8.839669	-68.767507	-67.195468			
13496	10.165110	-1.434430	2.016035	-0.398513	-1.912016	0.465289	-8.850332	-68.883352	-67.249556			
13497	10.388313	-0.528531	2.237406	0.450069	-1.538941	0.705460	-8.822784	-69.004102	-67.343994			
13498	10.554839	0.386956	2.080349	1.378434	-1.489951	0.759073	-8.784292	-69.141998	-67.486389			
13499	10.682960	1.313105	2.101072	2.269006	-1.264631	0.841730	-8.633897	-69.302267	-67.715562			
13500	10.886272	2.371570	2.977310	3.105002	-0.246491	1.291259	-8.305223	-69.535697	-68.069314			
13501	11.631419	2.477865	3.557011	3.133138	0.103325	2.197906	-7.745495	-69.825559	-68.613062			
13502	12.633366	1.807359	4.221481	2.392644	0.270997	3.411923	-6.914833	-70.167376	-69.421111			
13503	14.110001	0.047085	4.891587	0.609044	0.040494	5.108698	-5.743078	-70.536310	-70.558072			
13504	15.231865	-2.475221	6.120211	-2.128387	0.239567	6.649499	-4.144964	-70.782512	-71.978455			
13505	14.306173	-4.293002	6.926545	-4.334708	0.811756	6.049909	-2.265753	-70.867757	-73.535288			
13506	12.993667	-4.816596	6.062029	-4.932368	0.252914	4.483756	-0.275425	-70.911434	-75.173222			
13507	12.077890	-4.170957	5.468813	-4.391817	0.099683	3.373672	1.641077	-70.837538	-76.732114			
13508	10.055201	-2.962054	5.674243	-3.537710	1.165262	1.510006	3.133023	-70.573081	-77.958244			
13509	8.784161	-0.829222	5.203777	-1.513462	1.635513	0.185440	4.023812	-70.337605	-78.791374			
13510	8.980279	1.487259	5.369741	0.660842	2.281775	0.485281	4.575134	-70.227240	-79.424626			
13511	9.638519	4.509657	6.661610	3.281378	3.978344	1.633722	4.952088	-70.104303	-79.954948			
13512	8.859971	6.297675	6.593888	4.984001	4.584116	0.947632	5.134301	-69.939942	-80.394245			
13513	7.847832	6.573233	6.160546	5.323930	4.543624	-0.129764	5.120013	-69.785166	-80.759429			
13514	7.258136	4.541532	5.916987	3.413446	3.978168	-0.821630	5.139634	-69.680019	-81.237033			
13515	7.218072	2.754697	6.070455	1.664303	3.676887	-0.854459	5.355612	-69.592932	-81.827734			
13516	7.290863	0.743794	5.555892	-0.161920	2.698894	-1.022491	5.614156	-69.437018	-82.443192			
13517	7.711506	-1.406923	4.901058	-2.093087	1.459486	-0.926969	5.913629	-69.270900	-83.068925			
13518	8.199793	-3.204928	4.346315	-3.718728	0.384277	-0.734032	6.314934	-69.128153	-83.745459			
13519	8.454708	-4.441300	3.762758	-4.814998	-0.500560	-0.761127	6.754829	-68.996338	-84.434209			
13520	8.445626	-4.613519	3.075594	-4.867033	-1.155619	-1.034938	7.159871	-68.914460	-85.063053			
13521	8.064207	-3.954672	2.901254	-4.220979	-1.032615	-1.433837	7.437375	-68.937657	-85.539393			
13522	7.632545	-2.462248	3.280284	-2.861911	-0.215681	-1.637019	7.581036	-69.059022	-85.841034			
13523	8.002020	-0.932283	3.363080	-1.374896	0.055255	-1.191881	7.561046	-69.249278	-85.986761			
13524	7.914703	0.540754	3.302025	0.081306	0.344354	-1.227057	7.429185	-69.446716	-85.999350			
13525	7.967648	1.448683	3.579944	0.928571	0.785024	-1.042312	7.176438	-69.676482	-85.913597			
13526	8.332615	1.596462	3.444964	1.123433	0.594676	-0.744441	6.848761	-69.886948	-85.759164			
13527	8.393162	1.495408	3.425804	1.048540	0.564990	-0.702319	6.451294	-70.040570	-85.544341			
13528	8.384407	1.008527	3.438374	0.588876	0.511700	-0.728132	6.056366	-70.161695	-85.337218			
13529	8.252715	0.151236	3.222527	-0.198452	0.219754	-0.956778	5.691111	-70.242704	-85.163072			
13530	8.281157	-0.357504	3.348607	-0.703499	0.252181	-0.904265	5.386486	-70.329587	-85.007409			
13531	8.419012	-0.995172	3.154616	-1.278998	-0.066841	-0.858282	5.114721	-70.430786	-84.874529			
13532	8.575260	-1.254428	3.202864	-1.526053	-0.098122	-0.700690	4.870706	-70.548373	-84.737688			
13533	8.567264	-1.413142	3.165391	-1.664939	-0.137294	-0.722925	4.623714	-70.639280	-84.577832			
13534	8.378501	-1.203650	2.858070	-1.401878	-0.306901	-0.994687	4.394263	-70.742247	-84.416490			
13535	8.320900	-1.030370	2.736973	-1.203611	-0.351519	-1.082408	4.184933	-70.868014	-84.260379			
13536	8.475235	-0.887995	2.595945	-1.027698	-0.487002	-0.977321	4.019026	-71.010031	-84.144740			
13537	8.686505	-0.650497	2.511811	-0.767460	-0.569440	-0.797456	3.871241	-71.163632	-84.042973			
13538	9.095513	-0.370870	2.473565	-0.467926	-0.663808	-0.414561	3.750513	-71.321064	-83.971893			
13539	9.210098	-0.348327	2.349753	-0.418539	-0.786645	-0.343023	3.640675	-71.461436	-83.905370			
13540	9.137957	-0.263194	2.320658	-0.329509	-0.755679	-0.417086	3.543646	-71.571872	-83.840570			
13541	9.090903	-0.325485	2.161275	-0.363767	-0.882357	-0.511577	3.448408	-71.671584	-83.768345			
13542	9.167179	-0.430544	2.102169	-0.451570	-0.963930	-0.458086	3.333846	-71.749178	-83.667566			
13543	9.289259	-0.523739	2.040536	-0.524242	-1.062684	-0.361535	3.199111	-71.812088	-83.541678			
13544	9.488542	-0.722845	1.970602	-0.695731	-1.214184	-0.196040	3.050997	-71.845937	-83.389108			
13545	9.537882	-0.836312	1.925655	-0.791150	-1.286794	-0.164009	2.916026	-71.845311	-83.238638			
13546	9.478707	-0.935453	1.870903	-0.875171	-1.339558	-0.238718	2.823486	-71.802986	-83.114720			
13547	9.375683	-0.938451	1.667675	-0.843958	-1.508656	-0.401155	2.816262	-71.723410	-83.049368			
13548	9.162649	-0.896702	1.493127	-0.780961	-1.614761	-0.660078	2.916672	-71.618694	-83.066370			
13549	8.983685	-0.799141	1.288737	-0.661199	-1.752934	-0.896631	3.147020	-71.498961	-83.178591			
13550	8.767457	-0.706605	1.177662	-0.567637	-1.794324	-1.140167	3.494068	-71.374747	-83.376041			
13551	8.611751	-0.909132	1.100211	-0.772236	-1.874855	-1.322237	3.961247	-71.244851	-83.663036			
13552	8.303001	-1.089509	1.298273	-1.011079	-1.649174	-1.562220	4.495190	-71.089790	-84.000306			
13553	8.203358	-1.340002	1.597066	-1.332529	-1.410862	-1.574056	5.055668	-70.948642	-84.380474			
13554	8.308014	-1.503141	2.124294	-1.605437	-1.011057	-1.315900	5.591683	-70.813877	-84.755996			
13555	8.477616	-1.356497	2.648583	-1.573772	-0.579080	-0.985861	6.069261	-70.683366	-85.110561			
13556	8.662817	-0.764910	2.821053	-1.040732	-0.392827	-0.737979	6.509261	-70.591485	-85.445661			
13557	8.990455	0.148777	2.797044	-0.150839	-0.368462	-0.404430	6.886733	-70.534854	-85.742792			
13558	9.383006	0.823321	2.762550	0.511176	-0.414377	-0.018949	7.130957	-70.496023	-85.969480			
13559	9.737562	1.112557	2.542184	0.835976	-0.688319	0.254484	7.210031	-70.474718	-86.091119			
13560	10.118018	1.006178	1.970733	0.847551	-1.368209	0.418644	7.127110	-70.448938	-86.085169			
13561	10.327656	0.543316	1.485889	0.495248	-1.978396	0.434468	6.936990	-70.402855	-85.978306			
13562	10.334260	-0.432585	1.856200	-0.520194	-1.821534	0.523702	6.658407	-70.386927	-85.802380			
13563	10.683042	-1.660289	2.402812	-1.803280	-1.654311	0.988648	6.358127	-70.386400	-85.604931			
13564	11.021382	-2.261161	3.154693	-2.503092	-1.176187	1.540148	6.006729	-70.380082	-85.362158			
13565	12.007188	-2.278033	2.859081	-2.415528	-1.774831	2.375482	5.601354	-70.412083	-85.025974			
13566	12.899278	-0.874256	3.119902	-1.022047	-1.562913	3.355533	5.054314	-70.510715	-84.501716			
13567	13.542544	0.419160	4.865718	0.015443	0.113641	4.583061	4.146366	-70.715892	-83.715979			
13568	13.405770	0.990167	6.107183	0.444546	1.472896	4.871468	2.827845	-70.919775	-82.643943			
13569	12.779413	1.840568	7.483594	1.148489	3.163871	4.726023	1.169942	-71.089526	-81.353265			
13570	12.379441	2.656013	8.492151	1.931005	4.413662	4.651392	-0.752414	-71.158328	-79.887100			
13571	11.650739	2.375712	7.292062	1.970353	3.496723	3.545687	-2.690696	-71.114361	-78.413318			
13572	10.946286	2.040995	7.037318	1.794715	3.431089	2.777593	-4.607247	-71.029248	-76.985095			
13573	10.638948	1.280683	6.741842	1.212255	3.136280	2.392732	-6.413154	-70.909915	-75.559172			
13574	9.769357	-0.113556	6.215332	-0.040280	2.713164	1.444291	-8.072287	-70.746410	-74.114814			
13575	8.594223	-2.471394	6.002062	-2.345997	2.540579	0.387027	-9.536166	-70.536692	-72.734406			
13576	7.023702	-4.645622	5.505666	-4.513025	2.239089	-1.103780	-10.638577	-70.233209	-71.570347			
13577	5.968821	-5.823372	5.130174	-5.693600	2.016531	-2.107280	-11.444872	-69.979965	-70.622455			
13578	6.365830	-5.525674	5.259670	-5.334441	2.021018	-1.677577	-12.139148	-69.833064	-69.775571			
13579	7.476474	-3.954398	5.304457	-3.628879	1.921314	-0.712585	-12.689848	-69.721722	-69.061891			
13580	8.726817	-1.617175	5.207734	-1.133668	1.775405	0.259837	-13.107056	-69.604975	-68.492870			
13581	9.745398	0.548966	5.346434	1.134327	1.908797	1.092736	-13.409786	-69.498774	-68.064940			
13582	10.678013	2.470656	5.225933	3.179317	1.798380	1.767133	-13.592488	-69.413289	-67.761691			
13583	10.809909	4.079090	4.900408	4.832320	1.704053	1.643837	-13.631730	-69.255085	-67.644174			
13584	9.556535	4.579602	4.398383	5.230440	1.704686	0.256192	-13.590611	-69.072127	-67.678551			
13585	8.707164	4.264882	3.684959	4.903862	1.243250	-0.757894	-13.518946	-68.968769	-67.829733			
13586	8.160216	3.296627	3.488305	3.904740	1.062521	-1.254114	-13.412252	-68.941532	-68.082844			
13587	8.282649	1.574225	3.391780	2.234744	0.643698	-1.027689	-13.270938	-69.009859	-68.428736			
13588	8.090836	0.228645	3.549703	0.853366	0.641442	-1.039171	-12.970055	-69.091291	-68.914027			
13589	7.840311	-0.617745	3.297118	-0.002917	0.363439	-1.292656	-12.572596	-69.192156	-69.529760			
13590	7.618434	-1.311073	3.032499	-0.709181	0.095189	-1.539633	-12.096645	-69.311472	-70.244779			
13591	7.446195	-1.484677	3.047105	-0.932832	0.154028	-1.686131	-11.552415	-69.461356	-71.012783			
13592	7.503401	-1.667437	3.049327	-1.139899	0.127617	-1.623427	-10.978429	-69.620277	-71.815881			
13593	7.658629	-1.376444	3.342276	-0.900916	0.404128	-1.401688	-10.341955	-69.744934	-72.644849			
13594	7.650025	-1.053218	3.240271	-0.604833	0.361671	-1.467941	-9.709847	-69.816841	-73.478363			
13595	7.961304	-0.836231	3.171383	-0.383712	0.224018	-1.213744	-9.121072	-69.865870	-74.257380			
13596	8.195358	-0.271321	3.178171	0.169110	0.219314	-1.022834	-8.601437	-69.866904	-74.954406			
13597	8.546367	-0.206433	2.954114	0.263637	-0.106073	-0.772278	-8.229897	-69.864664	-75.523742			
13598	8.956799	-0.158334	2.826768	0.341936	-0.362096	-0.432289	-8.003307	-69.862360	-75.936792			
13599	9.159849	-0.214761	2.629252	0.310534	-0.625571	-0.306156	-7.903337	-69.849785	-76.216680			
13600	9.264365	-0.344779	2.605484	0.188693	-0.700585	-0.210112	-7.934582	-69.837311	-76.360086			
13601	9.290847	-0.510646	2.421657	0.044532	-0.900864	-0.240254	-8.064641	-69.820794	-76.397345			
13602	9.058079	-0.638899	2.279697	-0.082407	-0.971999	-0.501274	-8.261103	-69.775401	-76.367252			
13603	8.843442	-0.727703	2.201046	-0.170922	-0.986984	-0.725484	-8.500848	-69.722195	-76.295095			
13604	8.741529	-0.769008	2.103992	-0.200580	-1.053271	-0.852618	-8.743302	-69.656218	-76.216116			
13605	8.697878	-0.839637	2.029369	-0.256663	-1.121804	-0.915942	-8.978071	-69.585763	-76.142315			
13606	8.719458	-0.729763	2.083242	-0.137454	-1.075587	-0.883768	-9.204407	-69.514480	-76.080378			
13607	8.777264	-0.582628	2.036084	0.028339	-1.133712	-0.855046	-9.420463	-69.440014	-76.034538			
13608	8.598834	-0.275976	2.022922	0.330322	-1.067042	-1.045669	-9.644028	-69.361283	-75.994968			
13609	8.358418	-0.045552	1.906899	0.557839	-1.081739	-1.326220	-9.916753	-69.301762	-75.936520			
13610	8.171973	0.174349	1.799014	0.779822	-1.106594	-1.553432	-10.254700	-69.257465	-75.844606			
13611	7.979168	0.367050	1.954241	0.962310	-0.883794	-1.693959	-10.675231	-69.229979	-75.716028			
13612	8.002724	0.607207	2.155525	1.213227	-0.689121	-1.620513	-11.163998	-69.202505	-75.558003			
13613	8.044431	1.006659	2.496663	1.624249	-0.362006	-1.494619	-11.706690	-69.165034	-75.382823			
13614	8.178018	1.293499	2.661147	1.944525	-0.247562	-1.339656	-12.279752	-69.086942	-75.216174			
13615	8.604547	1.361253	2.665254	2.081972	-0.404572	-0.952867	-12.860960	-68.995617	-75.052829			
13616	9.106103	1.287762	2.476969	2.089882	-0.779508	-0.553127	-13.406739	-68.886227	-74.928577			
13617	9.417059	0.525361	2.396569	1.389286	-1.016708	-0.234762	-13.914436	-68.788982	-74.857835			
13618	9.737242	-0.039155	2.400809	0.880064	-1.158250	0.110175	-14.291205	-68.736556	-74.842362			
13619	9.764996	-0.647429	2.205035	0.290239	-1.375593	0.120086	-14.531867	-68.704907	-74.929728			
13620	9.875930	-1.492922	1.961011	-0.540911	-1.663310	0.214734	-14.588201	-68.722401	-75.128491			
13621	10.269894	-1.994316	1.848026	-1.016736	-1.910238	0.588294	-14.426628	-68.769817	-75.485656			
13622	10.581646	-2.321916	1.762640	-1.341863	-2.098748	0.876746	-14.057147	-68.802002	-76.017068			
13623	10.767830	-2.205427	1.608662	-1.249150	-2.305990	0.981744	-13.543454	-68.809285	-76.671726			
13624	10.859892	-1.792083	1.536987	-0.873720	-2.407582	1.001707	-12.980963	-68.782705	-77.380893			
13625	10.909415	-1.001437	1.702193	-0.120340	-2.278865	1.036635	-12.450498	-68.716241	-78.050308			
13626	10.645478	0.246142	2.600380	1.089765	-1.358242	1.009339	-12.033239	-68.651338	-78.548143			
13627	10.554981	1.669781	3.555520	2.503310	-0.438706	1.159025	-11.824796	-68.672361	-78.798505			
13628	11.248125	1.432822	3.457923	2.300255	-0.766895	1.791242	-11.738576	-68.798582	-78.890480			
13629	11.703766	1.136264	3.057399	2.010991	-1.282061	2.100713	-11.507238	-68.904879	-79.059461			
13630	11.827803	-0.584682	2.972979	0.273527	-1.383229	2.315340	-11.140013	-69.096120	-79.399237			
13631	12.415758	-1.773549	3.973309	-0.903187	-0.605430	3.298402	-10.474969	-69.444629	-79.920391			
13632	12.641018	-2.372356	5.412125	-1.544272	0.720659	4.036838	-9.435316	-69.718475	-80.717799			
13633	12.211679	-3.395065	6.047133	-2.693078	1.474746	3.890981	-8.041555	-69.803067	-81.773776			
13634	11.311463	-4.450144	5.841248	-3.915935	1.554903	2.998221	-6.501440	-69.789962	-82.991333			
13635	10.781227	-4.115037	5.397220	-3.727855	1.297180	2.300005	-4.884167	-69.854877	-84.182103			
13636	10.508751	-1.954731	6.537321	-1.721721	2.481520	2.347388	-3.225173	-69.813520	-85.335905			
13637	9.745071	-0.603518	6.425930	-0.507550	2.635692	1.563503	-1.922952	-69.588776	-86.338713			
13638	9.240189	0.656126	5.144290	0.694477	1.609897	0.637232	-0.951143	-69.436994	-87.167749			
13639	9.428550	2.435851	5.678858	2.402160	2.086389	1.001964	-0.121188	-69.422583	-87.967835			
13640	8.958133	4.218939	6.143850	4.116485	2.734451	0.740588	0.596425	-69.376561	-88.751934			
13641	7.439770	5.562674	5.656102	5.433012	2.828467	-0.825643	1.091146	-69.250039	-89.379474			
13642	6.164525	4.766815	5.157810	4.638661	2.755033	-2.182525	1.332875	-69.138396	-89.881333			
13643	6.356625	2.778060	5.085039	2.652939	2.542525	-2.035839	1.592288	-69.077348	-90.382929			
13644	7.343211	1.024019	5.236654	0.888091	2.280679	-1.071767	1.932744	-69.005480	-90.910297			
13645	8.122300	-0.863264	5.152731	-1.015630	1.876741	-0.393882	2.309775	-68.861656	-91.429849			
13646	8.857595	-2.532021	4.742873	-2.704537	1.186242	0.119139	2.725259	-68.686791	-91.942959			
13647	9.285012	-3.863573	4.182062	-4.060409	0.472966	0.282734	3.221995	-68.535746	-92.482692			
13648	9.565449	-4.422685	3.630227	-4.649437	-0.164449	0.316085	3.771863	-68.440988	-93.026845			
13649	9.063479	-4.340042	3.376339	-4.586635	-0.225372	-0.257889	4.273031	-68.391647	-93.484634			
13650	8.655239	-3.433955	3.128229	-3.693777	-0.299280	-0.715577	4.655902	-68.425514	-93.817376			
13651	8.699623	-1.836655	3.196459	-2.117595	-0.226847	-0.607342	4.918855	-68.536112	-93.995055			
13652	8.609339	-0.221220	3.546772	-0.516900	0.169643	-0.514664	5.008608	-68.696625	-94.002831			
13653	8.790856	0.631510	3.834034	0.326585	0.412511	-0.215769	4.902778	-68.913122	-93.824748			
13654	8.829990	1.152746	4.006437	0.855202	0.601979	-0.104175	4.646175	-69.121699	-93.499678			
13655	8.610938	1.212491	4.015172	0.939942	0.720090	-0.308064	4.247336	-69.283184	-93.057045			
13656	8.391318	0.872178	3.846472	0.633753	0.656395	-0.585680	3.774139	-69.397779	-92.565519			
13657	8.080651	0.110454	3.719327	-0.093888	0.648832	-0.940672	3.320271	-69.484716	-92.086421			
13658	7.942545	-0.479584	3.673871	-0.659353	0.654807	-1.097884	2.962426	-69.556648	-91.662278			
13659	7.866688	-0.947899	3.692755	-1.111268	0.696883	-1.169820	2.682969	-69.603759	-91.288961			
13660	7.763522	-1.284352	3.539064	-1.431386	0.583455	-1.324018	2.475622	-69.624774	-90.951442			
13661	7.917929	-1.460145	3.452209	-1.597630	0.443689	-1.210706	2.322727	-69.655934	-90.632595			
13662	7.990836	-1.628248	3.324681	-1.755688	0.293343	-1.187743	2.189188	-69.686764	-90.313190			
13663	7.982499	-1.530930	3.355751	-1.654199	0.326526	-1.182385	2.077418	-69.715769	-89.974534			
13664	7.928595	-1.395795	3.223343	-1.508774	0.222860	-1.276018	1.934667	-69.735018	-89.608318			
13665	7.985040	-1.217973	2.996492	-1.315124	-0.004040	-1.298363	1.796532	-69.774570	-89.215124			
13666	8.321552	-0.666568	3.043088	-0.757252	-0.048884	-0.959604	1.650695	-69.851013	-88.804831			
13667	8.606725	-0.304824	2.841560	-0.375811	-0.308909	-0.756947	1.507357	-69.931321	-88.397580			
13668	8.777666	0.050856	2.849296	-0.011176	-0.330725	-0.589945	1.395910	-69.997318	-88.015006			
13669	8.897091	0.224352	2.726526	0.177255	-0.466517	-0.517880	1.316107	-70.049399	-87.664482			
13670	9.008901	0.260222	2.625846	0.226090	-0.590022	-0.446587	1.287179	-70.069374	-87.373955			
13671	9.186718	0.252499	2.562591	0.227958	-0.708041	-0.300950	1.322377	-70.064826	-87.149507			
13672	9.302650	0.178405	2.424597	0.165274	-0.885944	-0.239936	1.434569	-70.017449	-87.002747			
13673	9.393673	0.100101	2.295082	0.094833	-1.054889	-0.200367	1.614804	-69.935298	-86.921696			
13674	9.379264	0.023362	2.131583	0.024793	-1.225665	-0.272672	1.851008	-69.824921	-86.898305			
13675	9.242601	-0.101084	1.816587	-0.084021	-1.504216	-0.513973	2.161721	-69.695041	-86.934679			
13676	9.011723	-0.162010	1.512164	-0.132726	-1.736505	-0.841014	2.540238	-69.560779	-87.024286			
13677	8.748762	-0.179883	1.291546	-0.147446	-1.873948	-1.169319	2.993607	-69.434584	-87.167913			
13678	8.486745	-0.330946	1.236160	-0.311681	-1.868690	-1.441711	3.496903	-69.320246	-87.360292			
13679	8.146271	-0.498691	1.468371	-0.526307	-1.567781	-1.686708	4.064096	-69.231081	-87.610045			
13680	7.944153	-0.731411	1.934162	-0.833855	-1.104578	-1.721332	4.649053	-69.155264	-87.912823			
13681	7.833329	-0.917013	2.412991	-1.100410	-0.654772	-1.665003	5.237182	-69.113932	-88.250547			
13682	7.897900	-0.674552	2.876283	-0.943099	-0.229657	-1.436376	5.833754	-69.086764	-88.620931			
13683	8.270616	-0.386274	3.146524	-0.718238	-0.083883	-0.984895	6.408980	-69.077231	-89.010021			
13684	8.544160	-0.134043	3.274930	-0.513974	-0.033456	-0.675925	6.955987	-69.093817	-89.405502			
13685	8.862916	0.202083	3.318015	-0.214537	-0.061173	-0.349521	7.422935	-69.145029	-89.765837			
13686	9.399958	0.637634	2.906175	0.250321	-0.569890	0.027240	7.712120	-69.209732	-90.010237			
13687	9.989842	1.058137	2.151494	0.757253	-1.415896	0.334594	7.783106	-69.256595	-90.069381			
13688	10.473695	1.239877	1.797656	0.986880	-1.884365	0.672654	7.649437	-69.299136	-89.946922			
13689	11.102855	0.602659	1.994836	0.342908	-1.995153	1.301165	7.370330	-69.348967	-89.688211			
13690	11.838178	-0.154033	2.516459	-0.450106	-1.860137	2.138713	6.957626	-69.355976	-89.280922			
13691	12.377410	-0.920022	3.283372	-1.272171	-1.438668	2.881363	6.419358	-69.316790	-88.772650			
13692	12.883016	-1.194204	3.371774	-1.504104	-1.580323	3.378488	5.777991	-69.255606	-88.163035			
13693	13.123302	-0.950319	3.104747	-1.169463	-1.887782	3.522678	5.092534	-69.256666	-87.478717			
13694	13.067121	-0.085815	4.176743	-0.391244	-0.740584	3.880381	4.309572	-69.441198	-86.722076			
13695	13.200172	0.580616	5.775519	0.142942	0.833605	4.582521	3.274839	-69.649363	-85.831447			
13696	12.881754	1.868715	7.457620	1.309562	2.721069	4.881771	1.916430	-69.803074	-84.750897			
13697	13.021042	3.629982	8.420175	3.099611	3.824427	5.332837	0.146067	-69.934073	-83.422320			
13698	12.560468	3.180397	7.232072	2.948868	2.827506	4.452289	-1.798514	-69.852561	-81.984206			
13699	10.514959	2.040985	5.982756	2.009337	2.202021	2.088366	-3.567120	-69.602126	-80.650589			
13700	9.285711	0.873084	5.959113	0.914702	2.450039	0.941713	-5.179495	-69.434437	-79.422413			
13701	9.043210	-0.721657	5.839055	-0.565755	2.253074	0.722859	-6.611189	-69.315712	-78.225676			
13702	8.717274	-3.097724	6.051357	-2.875268	2.326630	0.604829	-7.845680	-69.154024	-77.104757			
13703	7.675917	-5.453860	5.785718	-5.210467	2.184117	-0.314323	-8.687126	-68.864104	-76.200859			
13704	6.252620	-6.478525	4.830010	-6.240123	1.640731	-1.890313	-9.160329	-68.587731	-75.548845			
13705	6.248172	-6.571436	4.720591	-6.305424	1.482268	-1.903723	-9.441560	-68.447244	-75.031040			
13706	7.172402	-4.943517	5.156387	-4.628195	1.694483	-0.970829	-9.602470	-68.349770	-74.594028			
13707	7.973828	-2.808830	4.981421	-2.415210	1.454763	-0.413945	-9.665601	-68.230768	-74.251714			
13708	8.892752	-0.275090	5.244827	0.165601	1.645391	0.381927	-9.686603	-68.127045	-73.939686			
13709	10.208544	1.891499	4.999450	2.469529	1.202217	1.378503	-9.725022	-68.033248	-73.635353			
13710	10.387757	3.616265	5.047719	4.195280	1.395960	1.452890	-9.784626	-67.893077	-73.334639			
13711	9.837983	4.387851	4.806572	4.929992	1.466295	0.802746	-9.864103	-67.749024	-73.062404			
13712	8.636366	4.544271	4.308545	5.010581	1.455400	-0.508029	-9.933725	-67.608696	-72.866962			
13713	7.898337	3.809201	3.865349	4.252311	1.208697	-1.310243	-9.967123	-67.550928	-72.771535			
13714	7.784761	2.678198	3.903045	3.118796	1.128765	-1.326934	-9.970140	-67.582294	-72.754989			
13715	8.054897	1.264494	3.862484	1.752417	0.804958	-0.999052	-9.913509	-67.674000	-72.827451			
13716	7.948048	0.384051	3.940013	0.852385	0.804344	-1.011034	-9.754674	-67.769048	-72.994828			
13717	7.946101	-0.189585	3.808791	0.284625	0.613890	-1.024886	-9.520437	-67.846567	-73.270884			
13718	7.905852	-0.717887	3.531496	-0.229526	0.307895	-1.132722	-9.260537	-67.931312	-73.618551			
13719	7.452318	-0.757794	3.602289	-0.343169	0.539036	-1.525383	-8.916865	-68.012642	-74.039916			
13720	7.409529	-0.734979	3.614766	-0.347468	0.578022	-1.563266	-8.549483	-68.128603	-74.511639			
13721	7.618769	-0.617959	3.534309	-0.226587	0.454829	-1.406702	-8.123315	-68.239551	-75.043149			
13722	7.774634	-0.316768	3.800054	0.034401	0.691116	-1.180955	-7.677794	-68.319424	-75.607263			
13723	8.081880	0.031749	3.853713	0.378634	0.677650	-0.892695	-7.267870	-68.367168	-76.166455			
13724	8.323810	0.251366	3.554806	0.624694	0.337724	-0.785988	-6.862765	-68.366739	-76.710389			
13725	8.604199	0.452766	3.535967	0.828505	0.236046	-0.539170	-6.485177	-68.358455	-77.207202			
13726	8.732257	0.448757	3.541979	0.815567	0.185991	-0.415904	-6.181400	-68.337611	-77.637352			
13727	8.811728	0.423775	3.497305	0.786813	0.103136	-0.356074	-5.954962	-68.301083	-77.989031			
13728	8.740581	0.259051	3.261291	0.630285	-0.119295	-0.501975	-5.828476	-68.249110	-78.244462			
13729	8.650826	0.081788	3.113007	0.456290	-0.252983	-0.633249	-5.770642	-68.209742	-78.420774			
13730	8.697347	-0.229017	3.028101	0.157957	-0.389611	-0.610028	-5.790028	-68.166326	-78.520261			
13731	8.669992	-0.449482	2.935561	-0.052141	-0.496283	-0.661770	-5.851638	-68.106690	-78.568141			
13732	8.611399	-0.568865	2.692932	-0.149324	-0.721315	-0.802189	-5.948431	-68.030246	-78.581949			
13733	8.524601	-0.665523	2.548419	-0.232754	-0.843869	-0.933505	-6.070251	-67.942587	-78.571649			
13734	8.483093	-0.526987	2.526524	-0.087386	-0.847161	-0.986671	-6.217852	-67.844523	-78.538533			
13735	8.506449	-0.464965	2.358446	-0.000533	-1.017929	-1.031917	-6.398707	-67.742236	-78.491605			
13736	8.543993	-0.245230	2.298137	0.237428	-1.079427	-1.030898	-6.619573	-67.642449	-78.428362			
13737	8.474348	0.010054	2.345787	0.497367	-0.998445	-1.090698	-6.904050	-67.538572	-78.324029			
13738	8.457732	0.360660	2.486522	0.853767	-0.844489	-1.071751	-7.244821	-67.427393	-78.183498			
13739	8.403683	0.555342	2.685975	1.052753	-0.639317	-1.058965	-7.633911	-67.298250	-78.010255			
13740	8.411587	0.703169	3.033713	1.206201	-0.327630	-0.930666	-8.067400	-67.161958	-77.797312			
13741	8.551260	0.703924	3.139942	1.243094	-0.300469	-0.765968	-8.557052	-67.040033	-77.543492			
13742	8.711701	0.508823	3.157567	1.095315	-0.376283	-0.605003	-9.088095	-66.929857	-77.263024			
13743	8.742764	0.222239	3.120716	0.849138	-0.455848	-0.577145	-9.616457	-66.837458	-76.985329			
13744	8.836868	-0.113985	3.310844	0.547839	-0.349096	-0.397655	-10.094874	-66.771106	-76.742550			
13745	8.968649	-0.394777	3.471288	0.303169	-0.275087	-0.196309	-10.486618	-66.726407	-76.555053			
13746	9.028878	-0.687449	3.377555	0.043587	-0.406379	-0.156910	-10.785301	-66.682892	-76.438839			
13747	9.092318	-0.880230	3.094086	-0.116778	-0.707394	-0.194768	-11.007053	-66.633366	-76.381647			
13748	9.219601	-0.905351	2.565426	-0.103578	-1.249412	-0.282192	-11.182966	-66.584655	-76.368433			
13749	9.398075	-0.820056	2.154807	0.016602	-1.696691	-0.285859	-11.353942	-66.531747	-76.392417			
13750	9.750980	-0.509643	1.818937	0.372413	-2.133106	-0.119338	-11.523657	-66.465514	-76.440293			
13751	10.023853	0.030142	1.830572	0.941429	-2.211667	0.089421	-11.716757	-66.392609	-76.508120			
13752	10.247529	0.872324	2.264426	1.802027	-1.872254	0.392594	-11.890863	-66.349143	-76.578789			
13753	10.457998	1.458097	2.442037	2.409127	-1.775653	0.603764	-12.064794	-66.342858	-76.666404			
13754	10.734175	1.685767	2.172159	2.662241	-2.124834	0.731512	-12.155132	-66.417742	-76.806444			
13755	11.149206	1.937047	2.748102	2.938819	-1.730909	1.321773	-12.102172	-66.624140	-77.041172			
13756	11.438312	0.949310	3.335431	1.955498	-1.298114	1.907037	-11.852308	-66.880841	-77.446055			
13757	11.577832	-0.171153	3.795869	0.806126	-0.907962	2.312051	-11.338139	-67.223086	-78.060167			
13758	12.476634	-1.092770	4.706528	-0.110571	-0.356092	3.561602	-10.548661	-67.664388	-78.904412			
13759	13.594199	-2.928708	5.529176	-1.965517	0.026314	5.022595	-9.382128	-68.011710	-80.046167			
13760	13.481046	-4.913857	6.499729	-4.094759	0.970822	5.366879	-7.849730	-68.190122	-81.412064			
13761	13.141372	-5.129448	6.859319	-4.492796	1.442041	5.146919	-6.196580	-68.375603	-82.813132			
13762	12.650055	-4.222679	6.795052	-3.774078	1.579963	4.584719	-4.499613	-68.397555	-84.208804			
13763	11.119461	-2.761831	5.850695	-2.492222	1.263437	2.744860	-3.112018	-68.202982	-85.432627			
13764	9.831793	-0.975204	5.228873	-0.822117	1.169586	1.273880	-2.113456	-68.047044	-86.355253			
13765	9.773695	1.451976	6.120524	1.523073	2.066972	1.523176	-1.411807	-68.019886	-87.065469			
13766	9.604287	3.815587	6.621200	3.833606	2.644912	1.542889	-0.965496	-67.963601	-87.637204			
13767	8.655333	5.538555	6.484544	5.531087	2.883490	0.614780	-0.765752	-67.836403	-88.057510			
13768	7.309128	5.559576	6.197012	5.550406	3.075039	-0.731276	-0.818310	-67.696801	-88.338878			
13769	6.542679	3.855501	5.783428	3.865890	2.910174	-1.584371	-0.898636	-67.603040	-88.634496			
13770	6.574546	2.024784	5.643605	2.055288	2.723435	-1.594821	-0.857538	-67.564381	-89.015614			
13771	6.893821	0.063004	5.429208	0.106119	2.383708	-1.368062	-0.733785	-67.511763	-89.447345			
13772	7.196847	-1.655977	5.220406	-1.609906	2.071626	-1.157859	-0.539096	-67.424823	-89.908061			
13773	7.714302	-3.274267	4.774963	-3.238496	1.470771	-0.847170	-0.225810	-67.349283	-90.414386			
13774	8.380756	-4.289257	4.588130	-4.277199	1.054213	-0.311116	0.229682	-67.297132	-90.982094			
13775	8.510591	-4.590784	4.168378	-4.613031	0.622105	-0.367389	0.726470	-67.231151	-91.559024			
13776	7.923971	-4.377083	3.654525	-4.427733	0.371518	-1.120116	1.171615	-67.178041	-92.061434			
13777	7.572163	-3.231962	3.501071	-3.302359	0.349153	-1.505268	1.516396	-67.203106	-92.380877			
13778	7.524586	-1.802569	3.527061	-1.885910	0.376755	-1.529561	1.672918	-67.312622	-92.492151			
13779	7.376004	-0.394497	3.693212	-0.477772	0.583519	-1.588816	1.671480	-67.481828	-92.420189			
13780	7.703126	0.474448	3.798849	0.392842	0.571805	-1.238709	1.477585	-67.714142	-92.168509			
13781	8.020770	0.784116	3.799058	0.713751	0.483987	-0.944960	1.144411	-67.959561	-91.772958			
13782	8.314521	0.938973	3.916619	0.888730	0.519427	-0.631565	0.730819	-68.199137	-91.306426			
13783	8.372245	0.951420	4.037450	0.927200	0.645876	-0.537792	0.289550	-68.394062	-90.810984			
13784	8.289309	0.525965	3.916713	0.525730	0.596055	-0.664017	-0.111995	-68.538551	-90.359177			
13785	8.193163	-0.024234	3.890818	-0.004090	0.632092	-0.764628	-0.434846	-68.648364	-89.977087			
13786	8.133946	-0.462114	3.825373	-0.428440	0.610541	-0.843197	-0.632188	-68.734371	-89.700975			
13787	8.225526	-0.969028	3.739911	-0.928546	0.512136	-0.787127	-0.721428	-68.812717	-89.519030			
13788	8.106290	-1.228390	3.594020	-1.188245	0.428568	-0.950281	-0.690201	-68.870937	-89.426122			
13789	8.201747	-1.273607	3.488269	-1.238404	0.303078	-0.900155	-0.575778	-68.943726	-89.397711			
13790	8.430270	-1.169139	3.409414	-1.140954	0.156724	-0.716859	-0.435205	-69.027158	-89.386362			
13791	8.554008	-1.132847	3.375880	-1.112597	0.091509	-0.614606	-0.295347	-69.107796	-89.367760			
13792	8.775735	-0.927398	3.325229	-0.913780	-0.022764	-0.426782	-0.174009	-69.196357	-89.324797			
13793	9.075988	-0.652946	3.247239	-0.643036	-0.187565	-0.174442	-0.102376	-69.281126	-89.228982			
13794	9.140771	-0.460637	3.067361	-0.450703	-0.365840	-0.177460	-0.076868	-69.343149	-89.082864			
13795	9.153793	-0.263790	2.988179	-0.251873	-0.432909	-0.192923	-0.095361	-69.396098	-88.879240			
13796	9.172580	-0.171708	2.880380	-0.154359	-0.532316	-0.212942	-0.144897	-69.428782	-88.635361			
13797	9.126306	-0.126571	2.734876	-0.101342	-0.647911	-0.307164	-0.212423	-69.439481	-88.365720			
13798	9.179841	-0.232897	2.628258	-0.198176	-0.769672	-0.294295	-0.274267	-69.429622	-88.085089			
13799	9.189467	-0.299034	2.415708	-0.252463	-0.977730	-0.360086	-0.295487	-69.401814	-87.821519			
13800	9.218937	-0.425953	2.242119	-0.368433	-1.162640	-0.394097	-0.283842	-69.350786	-87.580213			
13801	9.101085	-0.575305	2.067354	-0.510186	-1.302301	-0.567236	-0.193938	-69.277761	-87.387544			
13802	8.917276	-0.593547	1.901983	-0.524815	-1.408069	-0.799944	-0.024100	-69.194544	-87.252451			
13803	8.634339	-0.538588	1.712673	-0.469753	-1.496992	-1.134354	0.228928	-69.120813	-87.186470			
13804	8.380997	-0.478427	1.606879	-0.416119	-1.515122	-1.411301	0.571442	-69.065971	-87.202573			
13805	8.047689	-0.524039	1.801879	-0.490280	-1.226383	-1.655343	0.976206	-69.034911	-87.303040			
13806	7.860918	-0.678833	2.163471	-0.686599	-0.838675	-1.703395	1.418232	-69.029683	-87.482663			
13807	7.924975	-0.443312	2.758972	-0.512172	-0.292069	-1.430206	1.928527	-69.066960	-87.747029			
13808	7.946079	-0.116397	2.981592	-0.228716	-0.066729	-1.328185	2.473597	-69.095636	-88.083924			
13809	8.040475	0.207144	3.102098	0.055741	0.038933	-1.192337	3.062643	-69.126372	-88.486402			
13810	8.268996	0.736023	3.600799	0.514008	0.469864	-0.790565	3.623894	-69.196932	-88.897747			
13811	8.770635	0.997517	3.714922	0.738371	0.433783	-0.274015	4.088987	-69.309190	-89.277262			
13812	9.272766	1.323497	3.325047	1.074779	-0.063807	0.068229	4.383735	-69.403218	-89.556049			
13813	9.552046	1.483781	2.256864	1.310765	-1.131826	-0.038360	4.535086	-69.474304	-89.722776			
13814	9.814905	1.353155	1.559291	1.233368	-1.873615	-0.037048	4.564478	-69.546928	-89.769460			
13815	10.288638	0.659276	1.338060	0.561345	-2.287697	0.313143	4.511679	-69.620302	-89.720836			
13816	10.879523	-0.672998	1.343271	-0.760522	-2.584169	0.834613	4.413725	-69.651444	-89.608708			
13817	11.579618	-1.795877	1.388923	-1.872234	-2.874048	1.477857	4.287408	-69.627935	-89.431380			
13818	12.333470	-2.601111	2.005408	-2.708595	-2.636227	2.378117	4.076117	-69.567577	-89.169425			
13819	13.048030	-3.147618	2.633797	-3.280415	-2.357723	3.255420	3.791141	-69.526332	-88.828009			
13820	13.208483	-2.659145	2.639069	-2.764345	-2.375298	3.424233	3.464044	-69.549687	-88.399928			
13821	13.536539	-1.061433	3.079773	-1.171169	-1.921462	3.927238	3.012603	-69.742491	-87.808208			
13822	13.952788	0.695172	4.621245	0.506996	-0.417470	4.887221	2.116985	-69.978728	-86.898706			
13823	13.307780	1.473376	5.553302	1.285423	0.792391	4.603470	0.733314	-70.077274	-85.635441			
13824	11.619872	2.410602	5.713556	2.283568	1.626684	3.056460	-0.917410	-70.148712	-84.145538			
13825	11.285356	2.781336	6.563046	2.710143	2.598299	2.996317	-2.825872	-70.268197	-82.513992			
13826	11.303988	2.379883	6.794640	2.445193	2.799252	3.063425	-4.779203	-70.253984	-80.827432			
13827	10.314039	1.766930	6.173896	1.967922	2.495500	1.914061	-6.590946	-70.101198	-79.264362			
13828	9.600293	0.413089	5.827973	0.719958	2.289390	1.166421	-8.202830	-69.933778	-77.850775			
13829	9.282232	-1.164652	5.868893	-0.773456	2.304414	0.960004	-9.590878	-69.802240	-76.525400			
13830	8.669874	-2.765887	5.797716	-2.333001	2.307418	0.466556	-10.677857	-69.637706	-75.363922			
13831	7.336484	-4.419521	5.513869	-4.030358	2.323846	-0.750981	-11.308051	-69.390477	-74.483872			
13832	6.296080	-4.862831	5.222634	-4.534131	2.310439	-1.771119	-11.579401	-69.157720	-73.798106			
13833	6.347090	-4.728558	5.059888	-4.384219	2.097277	-1.773588	-11.788364	-69.026909	-73.136531			
13834	6.678317	-4.037179	5.206906	-3.677342	2.143744	-1.452547	-11.950661	-68.909491	-72.505869			
13835	7.179259	-2.507103	5.161482	-2.108014	2.059152	-1.107270	-12.069640	-68.790284	-71.931223			
13836	8.191212	-0.728784	5.118030	-0.232768	1.855822	-0.308844	-12.197254	-68.679214	-71.387412			
13837	9.022233	1.024930	5.105278	1.601969	1.765721	0.327872	-12.370327	-68.548304	-70.830370			
13838	9.518037	2.478714	4.942517	3.123951	1.633803	0.615022	-12.641549	-68.417768	-70.213090			
13839	9.657026	3.368100	4.689255	4.061439	1.479940	0.575085	-12.946484	-68.284143	-69.598928			
13840	9.077471	3.716790	4.320329	4.388528	1.395786	-0.134216	-13.240981	-68.143972	-69.054298			
13841	8.357838	3.471696	3.862082	4.117600	1.191342	-0.955608	-13.479374	-68.044720	-68.606876			
13842	7.961075	2.994575	3.519206	3.643433	0.948954	-1.412933	-13.683690	-68.018709	-68.223732			
13843	8.189547	1.912207	3.528558	2.614337	0.725348	-1.105506	-13.826260	-68.093234	-67.936759			
13844	8.298924	0.712682	3.697473	1.427407	0.673604	-0.837160	-13.848377	-68.212096	-67.762882			
13845	8.088358	-0.225047	3.858502	0.445474	0.761111	-0.891788	-13.719891	-68.320287	-67.731281			
13846	8.099522	-0.979823	3.686365	-0.290928	0.486364	-0.877903	-13.495461	-68.433879	-67.806753			
13847	7.946247	-1.435164	3.691726	-0.782934	0.478859	-0.981548	-13.181142	-68.572795	-67.955154			
13848	7.820893	-1.461537	3.735451	-0.859164	0.568877	-1.083760	-12.814078	-68.729127	-68.140177			
13849	7.859390	-1.283153	3.798716	-0.717283	0.656149	-1.043330	-12.408332	-68.871428	-68.354760			
13850	8.016780	-0.863743	3.732828	-0.305283	0.624249	-0.954592	-12.021040	-68.989177	-68.548633			
13851	8.250712	-0.306607	3.751333	0.243081	0.669738	-0.772053	-11.691788	-69.082046	-68.705280			
13852	8.587990	-0.014942	3.539847	0.582314	0.420776	-0.551578	-11.454248	-69.146410	-68.779613			
13853	8.915481	0.331758	3.373854	0.974223	0.228257	-0.327039	-11.307914	-69.196071	-68.766657			
13854	9.092872	0.576461	3.295351	1.240695	0.149981	-0.204871	-11.281326	-69.237043	-68.637010			
13855	9.111942	0.516369	3.029083	1.223482	-0.103787	-0.275299	-11.354069	-69.275175	-68.412956			
13856	8.994206	0.259863	2.802749	0.996781	-0.312970	-0.446410	-11.508086	-69.297284	-68.100471			
13857	8.792088	0.000748	2.483018	0.776067	-0.583103	-0.728422	-11.700460	-69.310555	-67.742466			
13858	8.654876	-0.277303	2.330888	0.522001	-0.724937	-0.889752	-11.926729	-69.324164	-67.347510			
13859	8.610917	-0.578117	2.079327	0.276345	-0.995101	-0.995710	-12.155388	-69.332083	-66.945552			
13860	8.579641	-0.716660	2.045232	0.156684	-1.039309	-1.026216	-12.365416	-69.321469	-66.562552			
13861	8.718561	-0.701323	1.999075	0.213217	-1.121257	-0.913319	-12.545078	-69.298423	-66.202258			
13862	8.778562	-0.581051	2.119821	0.332588	-1.006083	-0.825386	-12.676369	-69.235848	-65.898691			
13863	8.817889	-0.482238	2.262928	0.423724	-0.874007	-0.748190	-12.768989	-69.134040	-65.650679			
13864	9.046034	-0.108465	2.549037	0.784947	-0.618116	-0.467002	-12.834254	-69.005330	-65.459416			
13865	9.291302	0.248375	2.731298	1.151918	-0.472056	-0.205391	-12.921595	-68.836154	-65.315473			
13866	9.450232	0.682909	2.642438	1.633102	-0.536914	-0.127631	-13.036552	-68.633188	-65.222620			
13867	9.434270	1.110716	2.523529	2.090307	-0.576978	-0.225982	-13.228994	-68.421387	-65.122348			
13868	9.338677	1.591384	2.421281	2.586781	-0.563907	-0.400120	-13.509774	-68.230053	-65.006083			
13869	9.230059	2.106073	2.537637	3.079670	-0.339491	-0.513797	-13.847521	-68.037598	-64.894567			
13870	8.797708	2.493204	2.706155	3.391856	0.010479	-0.900111	-14.218096	-67.833274	-64.805313			
13871	8.620748	2.642231	2.823582	3.523670	0.173469	-1.047716	-14.611173	-67.634414	-64.760514			
13872	8.333365	2.249476	3.026011	3.096359	0.343206	-1.212894	-14.974522	-67.462844	-64.779794			
13873	8.273279	1.727470	2.933075	2.619257	0.148303	-1.259814	-15.311432	-67.363920	-64.863358			
13874	8.332409	1.012494	2.552587	2.001676	-0.373053	-1.278990	-15.579563	-67.357641	-65.038659			
13875	8.570516	0.393222	2.431825	1.454440	-0.681575	-1.041018	-15.695943	-67.446451	-65.320722			
13876	8.874464	-0.096931	2.396993	1.015495	-0.896468	-0.720044	-15.615609	-67.593609	-65.767288			
13877	9.389340	-0.447557	2.428642	0.720774	-1.091670	-0.192556	-15.320371	-67.766010	-66.390846			
13878	10.106371	-0.809645	2.839410	0.384215	-1.005701	0.660958	-14.842681	-67.937605	-67.190944			
13879	10.968728	-1.258021	3.674834	-0.078552	-0.587970	1.808320	-14.210275	-68.102404	-68.109938			
13880	11.988568	-1.603264	4.372323	-0.416992	-0.335691	3.037466	-13.480186	-68.242251	-69.100686			
13881	13.166635	-2.131398	4.455685	-0.866207	-0.738503	4.203731	-12.651983	-68.334251	-70.140295			
13882	13.451275	-3.383242	4.551820	-2.160755	-0.927410	4.594691	-11.735989	-68.387724	-71.225260			
13883	13.119325	-4.552934	5.162742	-3.511957	-0.406553	4.574798	-10.688228	-68.510700	-72.246665			
13884	12.750035	-3.620841	6.900524	-2.923449	1.458028	4.768716	-9.458151	-68.668677	-73.195771			
13885	12.923123	-3.275222	7.276851	-2.725869	1.775430	5.023180	-8.245385	-68.698320	-74.152690			
13886	12.344328	-3.590750	5.421649	-2.984324	0.172895	3.815713	-7.170664	-68.598554	-75.097140			
13887	10.769228	-2.516820	4.075940	-1.986738	-0.399192	1.798387	-6.255664	-68.576560	-75.907266			
13888	10.448719	-0.571598	5.107323	-0.278056	0.944943	1.789753	-5.519093	-68.740321	-76.535061			
13889	10.480602	2.784114	6.082225	2.872893	2.333929	2.056891	-5.019115	-68.826828	-77.019814			
13890	9.720689	4.989125	5.654338	5.023909	2.518682	1.131318	-4.877311	-68.817105	-77.311929			
13891	9.292623	5.663071	6.026858	5.621170	3.092029	0.845079	-5.006659	-68.851601	-77.451069			
13892	9.342881	5.172037	6.719585	5.085746	3.628511	1.149118	-5.209079	-68.880329	-77.607109			
13893	8.480310	3.837780	6.494579	3.757899	3.517280	0.303164	-5.350839	-68.788761	-77.886283			
13894	7.326059	1.630057	5.804297	1.587485	2.974919	-0.944336	-5.407659	-68.656125	-78.323132			
13895	6.676779	-0.743669	5.506679	-0.763304	2.633490	-1.570236	-5.253888	-68.534734	-78.938613			
13896	6.564646	-2.627127	5.400753	-2.624629	2.365259	-1.646821	-4.833699	-68.396249	-79.772174			
13897	6.942352	-3.917080	5.037054	-3.861009	1.760898	-1.392266	-4.220009	-68.239422	-80.758487			
13898	7.221929	-4.751402	4.704162	-4.671543	1.272245	-1.244187	-3.478460	-68.058745	-81.840355			
13899	7.278266	-4.881186	4.581891	-4.818963	1.125790	-1.250974	-2.705578	-67.870490	-82.932093			
13900	7.121100	-3.990158	4.426168	-3.958757	1.107215	-1.486547	-1.985274	-67.700782	-83.927391			
13901	7.251695	-2.470882	4.230732	-2.454120	0.983597	-1.469954	-1.401645	-67.597063	-84.745927			
13902	7.484539	-1.070031	4.321080	-1.075603	1.069629	-1.237493	-0.998367	-67.544306	-85.384502			
13903	7.600070	-0.177492	4.144511	-0.184866	0.918085	-1.204989	-0.755387	-67.547176	-85.866230			
13904	7.805138	0.258413	4.297282	0.242126	1.008932	-0.959608	-0.637539	-67.583626	-86.269985			
13905	8.257724	0.299231	4.512768	0.283594	1.041495	-0.459640	-0.619973	-67.609733	-86.526730			
13906	8.672590	0.018274	4.281214	0.027809	0.656911	-0.163303	-0.668757	-67.607322	-86.733163			
13907	8.955678	-0.580434	4.035159	-0.547660	0.296228	0.007490	-0.765370	-67.618592	-86.826641			
13908	8.950313	-1.055043	4.091844	-1.016994	0.336361	0.026875	-0.855529	-67.641598	-86.937728			
13909	8.957474	-1.402640	4.103743	-1.357975	0.339999	0.040472	-0.949632	-67.684112	-86.998879			
13910	8.870102	-1.700033	3.902528	-1.644269	0.187498	-0.114246	-1.031077	-67.711933	-87.123381			
13911	8.681405	-1.668507	3.759441	-1.608017	0.137814	-0.342768	-1.078138	-67.748934	-87.232731			
13912	8.540528	-1.367313	3.842590	-1.309463	0.289356	-0.443737	-1.089283	-67.800215	-87.412537			
13913	8.473262	-1.056888	3.849687	-1.000154	0.341428	-0.505895	-1.074279	-67.852728	-87.575661			
13914	8.491082	-0.862470	3.712372	-0.803398	0.221892	-0.542879	-1.045366	-67.881849	-87.804708			
13915	8.560757	-0.833611	3.562757	-0.773171	0.064933	-0.535151	-0.995179	-67.915242	-88.004871			
13916	8.690201	-0.661300	3.625177	-0.602591	0.085440	-0.393112	-0.962829	-67.955355	-88.231224			
13917	8.789457	-0.642806	3.541313	-0.583677	-0.021785	-0.332840	-0.943005	-67.985594	-88.402800			
13918	8.691837	-0.655065	3.416706	-0.596706	-0.095180	-0.469995	-0.942785	-68.002780	-88.583719			
13919	8.607273	-0.872151	3.235446	-0.813437	-0.230097	-0.614900	-0.955695	-68.007483	-88.699874			
13920	8.422730	-1.094947	3.153860	-1.037685	-0.235860	-0.815149	-0.954169	-68.002848	-88.838094			
13921	8.507450	-1.356271	3.052043	-1.299273	-0.362225	-0.773228	-0.931684	-67.998136	-88.928881			
13922	8.598387	-1.555235	3.004245	-1.500035	-0.441029	-0.705993	-0.889348	-67.981228	-89.035380			
13923	8.708615	-1.739015	2.816934	-1.686784	-0.659862	-0.673836	-0.808368	-67.952227	-89.097750			
13924	8.818564	-1.919045	2.687645	-1.872387	-0.827099	-0.621207	-0.674393	-67.914894	-89.188621			
13925	8.894009	-1.911601	2.599243	-1.872573	-0.946640	-0.587125	-0.489394	-67.874094	-89.247541			
13926	8.820227	-1.918203	2.469341	-1.889779	-1.049360	-0.707683	-0.255907	-67.833058	-89.340504			
13927	8.678594	-1.714044	2.386886	-1.697724	-1.082546	-0.874065	0.023491	-67.793237	-89.412911			
13928	8.509711	-1.422982	2.364809	-1.421349	-1.046436	-1.042449	0.336577	-67.758779	-89.537217			
13929	8.282492	-1.019211	2.661366	-1.038073	-0.688972	-1.142680	0.677197	-67.739328	-89.652393			
13930	8.219103	-0.717759	2.980166	-0.760691	-0.369393	-1.081416	1.029319	-67.734790	-89.836672			
13931	8.225687	-0.013004	3.031959	-0.077173	-0.310984	-1.051856	1.403686	-67.745531	-90.011101			
13932	8.138870	0.423727	2.927812	0.340116	-0.361738	-1.167096	1.824815	-67.769761	-90.241899			
13933	8.057567	0.633350	3.170174	0.517502	-0.093374	-1.146725	2.318697	-67.832653	-90.535786			
13934	8.251765	0.725592	3.492498	0.570075	0.146507	-0.842230	2.819723	-67.912004	-90.908029			
13935	8.412652	0.524439	3.548263	0.336525	0.146185	-0.674678	3.312599	-67.998116	-91.275087			
13936	8.432807	0.420077	3.356695	0.209240	-0.027682	-0.729105	3.834146	-68.082053	-91.680227			
13937	8.534737	0.375543	3.116348	0.142199	-0.274553	-0.724305	4.379227	-68.177082	-92.115047			
13938	8.786469	0.197000	2.861923	-0.060482	-0.593052	-0.589024	4.933660	-68.282490	-92.583644			
13939	9.045124	-0.226098	2.550058	-0.506396	-0.975569	-0.476741	5.518542	-68.375182	-93.077506			
13940	9.342964	-0.779224	2.012722	-1.074341	-1.591432	-0.417889	6.152943	-68.428426	-93.591883			
13941	9.634530	-1.564639	1.784880	-1.891372	-1.929439	-0.265022	6.869452	-68.496797	-94.134087			
13942	10.208911	-2.290950	1.859892	-2.675458	-2.088307	0.257578	7.613664	-68.574023	-94.673687			
13943	10.912483	-2.661741	2.355536	-3.136894	-1.890316	1.063991	8.339327	-68.638271	-95.176446			
13944	11.393824	-2.561709	2.858731	-3.125275	-1.588990	1.687815	8.966156	-68.665840	-95.568741			
13945	11.929680	-1.921320	3.307284	-2.570759	-1.333503	2.375821	9.444684	-68.701330	-95.810483			
13946	12.371022	-0.797364	3.980033	-1.537831	-0.800843	3.091278	9.706632	-68.771370	-95.852805			
13947	12.525960	0.726396	5.060889	-0.110716	0.249731	3.713779	9.651799	-68.846279	-95.653328			
13948	12.246845	1.730018	5.766804	0.865853	1.076675	3.763954	9.232729	-68.874421	-95.189953			
13949	11.901771	2.429586	6.207764	1.588810	1.655930	3.634418	8.506544	-68.901828	-94.519511			
13950	11.929167	3.436446	6.423929	2.648541	1.911259	3.778220	7.550327	-68.964092	-93.674585			
13951	12.446175	4.485275	6.188307	3.795061	1.578662	4.202462	6.356240	-69.061199	-92.623548			
13952	12.610505	4.446698	5.679572	3.904843	1.057027	4.140412	4.948234	-69.163015	-91.407391			
13953	11.862662	2.733865	5.148187	2.356888	0.741099	3.171737	3.508835	-69.218340	-90.179802			
13954	10.401516	0.007218	4.696688	-0.234953	0.694518	1.576443	2.289929	-69.225166	-89.106675			
13955	9.115868	-2.328333	4.513245	-2.495753	0.855674	0.283271	1.489444	-69.208285	-88.351713			
13956	8.370458	-3.925560	4.502493	-4.061153	1.023387	-0.420845	1.071785	-69.223459	-87.892719			
13957	8.305449	-4.861282	4.696643	-4.992866	1.173878	-0.412459	0.945349	-69.257675	-87.653530			
13958	8.024266	-4.969462	5.107981	-5.130521	1.639600	-0.530160	1.042489	-69.247548	-87.557971			
13959	7.413987	-4.329570	5.108629	-4.517289	1.870800	-1.100365	1.291911	-69.195455	-87.532625			
13960	6.864095	-2.908266	5.054350	-3.127398	2.077375	-1.625867	1.577338	-69.117301	-87.482396			
13961	6.375370	-1.233188	5.244206	-1.502691	2.519355	-1.998440	1.801457	-69.023053	-87.347579			
13962	6.142170	0.315479	5.643609	-0.015419	3.072717	-2.051617	1.854798	-68.912368	-87.038394			
13963	6.168439	1.541931	5.653238	1.190240	3.159855	-2.003404	1.713717	-68.779082	-86.557163			
13964	6.136301	2.449798	5.549134	2.096286	3.145991	-2.056599	1.388367	-68.628914	-85.905862			
13965	6.398498	3.047579	5.759057	2.683266	3.297657	-1.730560	0.859815	-68.498151	-85.093019			
13966	6.812296	3.208181	5.823233	2.867316	3.221046	-1.326631	0.138882	-68.372560	-84.130071			
13967	7.290076	3.122758	5.755915	2.838254	2.974091	-0.917388	-0.737111	-68.242305	-83.050670			
13968	7.953721	2.798477	5.600719	2.605422	2.549091	-0.369442	-1.685991	-68.115733	-81.936736			
13969	8.638797	2.390698	5.557574	2.293198	2.207980	0.241997	-2.616148	-68.003197	-80.876499			
13970	9.504041	2.055229	5.638992	2.057929	1.917280	1.070221	-3.394967	-67.868527	-79.996970			
13971	9.982872	1.654625	5.308312	1.774189	1.374263	1.391649	-3.962554	-67.730611	-79.377573			
13972	9.600580	1.370271	5.035661	1.528384	1.213109	0.939010	-4.282723	-67.593131	-79.039903			
13973	9.426083	1.095350	4.879870	1.276014	1.085539	0.725687	-4.359335	-67.517087	-78.972995			
13974	9.267750	0.995488	4.850411	1.168975	1.092573	0.572323	-4.216938	-67.458861	-79.147454			
13975	9.203927	0.932657	4.815274	1.092664	1.064257	0.504404	-3.900285	-67.420481	-79.513002			
13976	9.220699	1.031106	4.569760	1.193047	0.831968	0.427018	-3.456956	-67.394493	-80.018853			
13977	9.261114	1.157047	4.429110	1.305061	0.692292	0.411864	-2.964008	-67.392830	-80.594524			
13978	9.402763	1.209466	4.440498	1.331677	0.646502	0.550775	-2.439313	-67.397306	-81.211551			
13979	9.450535	1.223665	4.346207	1.323310	0.535789	0.563302	-1.922364	-67.400950	-81.817645			
13980	9.506997	1.211281	4.299656	1.285569	0.462285	0.602241	-1.447828	-67.398924	-82.381503			
13981	9.534810	1.110287	4.188125	1.167370	0.330710	0.589886	-1.025353	-67.390299	-82.890724			
