// General information: 
//  MT Manager version: 2022.0.0 
//  XDA version: 2022.0.0 build 7085 rev 119802 built on 2022-11-08
// Device information: 
//  DeviceId: 00B492A2
//  ProductCode: MTW2-3A7G6
//  Firmware Version: 4.6.0
//  Hardware Version: 2.0.0
// Device settings: 
//  Filter Profile: human(46.1)
//  Option Flags: Orientation Smoother Disabled, Position/Velocity Smoother Disabled, Continuous Zero Rotation Update Disabled, AHS Disabled, ICC Disabled
// Coordinate system: ENU
PacketCounter	Acc_X	Acc_Y	Acc_Z	FreeAcc_E	FreeAcc_N	FreeAcc_U	Roll	Pitch	Yaw	Vel_E	Vel_N	Vel_U
12890	9.078038	0.464203	-3.109814	-0.477195	-0.213093	-0.219770	-179.002124	-70.755889	-72.792179			
12891	9.140612	0.480883	-3.048735	-0.466223	-0.295501	-0.180858	-179.044519	-70.730986	-72.808670			
12892	9.084878	0.492608	-3.074147	-0.486831	-0.261351	-0.225052	-179.101466	-70.706882	-72.819365			
12893	9.148117	0.558871	-3.128406	-0.554969	-0.255737	-0.147600	-179.177907	-70.677669	-72.824300			
12894	9.130429	0.602624	-3.209119	-0.616157	-0.193808	-0.137507	-179.275800	-70.645511	-72.823606			
12895	9.195796	0.596198	-3.248910	-0.607602	-0.179279	-0.062190	-179.407247	-70.611039	-72.808376			
12896	9.224521	0.649075	-3.228094	-0.640433	-0.225073	-0.041666	-179.553993	-70.578234	-72.788375			
12897	9.251394	0.614931	-3.213141	-0.591271	-0.238308	-0.020634	-179.715931	-70.543984	-72.759366			
12898	9.291875	0.617562	-3.136086	-0.557642	-0.322667	-0.007573	-179.893603	-70.510394	-72.712319			
12899	9.316795	0.551496	-3.130054	-0.479526	-0.317140	0.014495	179.921356	-70.482926	-72.659969			
12900	9.308148	0.521195	-3.050270	-0.418998	-0.376874	-0.019843	179.746069	-70.464776	-72.614764			
12901	9.333970	0.454184	-3.042545	-0.340858	-0.371339	0.002213	179.584381	-70.450152	-72.583655			
12902	9.383617	0.440736	-3.041773	-0.314774	-0.382517	0.049031	179.440299	-70.441247	-72.572367			
12903	9.414679	0.383282	-3.012017	-0.241766	-0.400710	0.068421	179.321664	-70.438035	-72.587475			
12904	9.379721	0.331850	-3.057096	-0.203444	-0.331927	0.050555	179.234992	-70.438818	-72.632257			
12905	9.301866	0.290859	-3.070422	-0.172000	-0.281045	-0.018392	179.167728	-70.444364	-72.690743			
12906	9.169333	0.313075	-3.106665	-0.214438	-0.209398	-0.130940	179.130295	-70.457963	-72.772197			
12907	9.050727	0.369242	-3.079424	-0.271933	-0.208934	-0.251450	179.099140	-70.469740	-72.853852			
12908	9.022868	0.413108	-3.094309	-0.320483	-0.196454	-0.272444	179.085821	-70.476585	-72.947670			
12909	9.016440	0.423333	-3.124997	-0.338790	-0.168130	-0.268162	179.079039	-70.476665	-73.047330			
12910	9.159031	0.425406	-3.043635	-0.306205	-0.287990	-0.160961	179.087647	-70.469721	-73.158539			
12911	9.253692	0.426510	-2.952703	-0.275405	-0.401994	-0.102191	179.103394	-70.460583	-73.277192			
12912	9.249255	0.303776	-2.971931	-0.164493	-0.351026	-0.100680	179.139844	-70.451969	-73.408448			
12913	9.132856	0.222627	-3.046742	-0.118738	-0.225978	-0.185845	179.190790	-70.438998	-73.537923			
12914	8.975348	0.130853	-3.079780	-0.056592	-0.123731	-0.323718	179.259114	-70.422986	-73.670092			
12915	8.867432	0.017050	-3.113058	0.031744	-0.032318	-0.414778	179.328435	-70.399591	-73.786754			
12916	8.840009	-0.074542	-3.120310	0.112673	0.002813	-0.438524	179.404414	-70.375641	-73.892324			
12917	8.771836	-0.176154	-3.084731	0.210526	0.015151	-0.514991	179.471329	-70.355684	-73.978808			
12918	8.682361	-0.298876	-3.031946	0.330933	0.025460	-0.617294	179.534002	-70.343697	-74.049777			
12919	8.733606	-0.509830	-3.018890	0.539555	0.050649	-0.573867	179.598284	-70.331726	-74.106096			
12920	8.842431	-0.646603	-3.086701	0.660790	0.110547	-0.448631	179.685940	-70.317162	-74.156272			
12921	9.046640	-0.730665	-3.176244	0.733612	0.144862	-0.225982	179.788477	-70.301288	-74.193905			
12922	9.274528	-0.871416	-3.269175	0.860055	0.189972	0.020315	179.933634	-70.289613	-74.240881			
12923	9.537950	-0.956537	-3.201451	0.974725	0.064041	0.246266	-179.895932	-70.286338	-74.284307			
12924	9.730185	-1.097290	-3.113934	1.138875	-0.039280	0.398999	-179.684042	-70.297510	-74.341609			
12925	9.771114	-1.210238	-3.146840	1.228273	0.010620	0.450507	-179.423839	-70.320658	-74.417079			
12926	9.733526	-1.315845	-3.194349	1.295639	0.098052	0.433703	-179.100573	-70.338075	-74.513144			
12927	9.601961	-1.386718	-3.098937	1.356165	0.076685	0.280822	-178.722743	-70.348071	-74.607291			
12928	9.501030	-1.355548	-2.867384	1.356791	-0.105736	0.110863	-178.295237	-70.363426	-74.703746			
12929	9.343056	-1.231827	-2.559925	1.286170	-0.364206	-0.139199	-177.852116	-70.377669	-74.799199			
12930	9.188279	-1.022848	-2.361239	1.107483	-0.553295	-0.351533	-177.411563	-70.375564	-74.898736			
12931	9.297510	-0.838080	-2.213239	0.964143	-0.779865	-0.299186	-176.973310	-70.353125	-75.011964			
12932	9.547851	-0.517985	-2.008247	0.723603	-1.148606	-0.136950	-176.535568	-70.327726	-75.143807			
12933	9.805710	-0.267827	-1.882337	0.528501	-1.430378	0.058562	-176.099099	-70.303276	-75.315206			
12934	9.918386	-0.109805	-1.843385	0.382792	-1.560049	0.147442	-175.690092	-70.280694	-75.508683			
12935	10.068923	-0.032265	-1.852816	0.302289	-1.634376	0.289520	-175.306265	-70.254891	-75.718248			
12936	10.006723	-0.033370	-1.911539	0.262940	-1.571470	0.249664	-174.924767	-70.221587	-75.956845			
12937	9.915042	-0.037921	-1.876092	0.253798	-1.583625	0.150088	-174.548566	-70.168226	-76.222199			
12938	9.610785	-0.196090	-1.873873	0.362488	-1.449799	-0.133655	-174.159698	-70.092472	-76.526014			
12939	9.527528	-0.326494	-2.005242	0.420386	-1.283089	-0.164979	-173.762936	-69.987905	-76.853110			
12940	9.447190	-0.575764	-2.097668	0.602651	-1.117736	-0.201834	-173.341900	-69.856935	-77.214599			
12941	9.358544	-0.764670	-2.230836	0.713390	-0.937261	-0.233742	-172.899912	-69.700083	-77.600653			
12942	9.347367	-0.912437	-2.354333	0.793162	-0.808322	-0.196759	-172.440356	-69.530949	-78.009030			
12943	9.289436	-0.994851	-2.361495	0.844058	-0.788856	-0.245810	-171.965869	-69.353795	-78.425956			
12944	9.336797	-1.014190	-2.467134	0.809993	-0.740780	-0.164572	-171.470971	-69.172047	-78.844921			
12945	9.414774	-1.012368	-2.446153	0.797842	-0.821029	-0.100029	-170.980912	-69.002321	-79.245152			
12946	9.470114	-0.934438	-2.435670	0.708017	-0.907281	-0.057476	-170.479869	-68.846918	-79.639174			
12947	9.389874	-0.984802	-2.331230	0.760028	-0.981679	-0.167338	-169.980246	-68.718324	-80.027639			
12948	9.324587	-0.953630	-2.187751	0.748970	-1.117477	-0.282011	-169.481484	-68.614442	-80.411171			
12949	9.082971	-1.009855	-2.021882	0.817440	-1.176029	-0.562993	-168.994224	-68.525197	-80.793500			
12950	9.003194	-0.938453	-1.953223	0.745131	-1.249405	-0.667362	-168.543957	-68.425739	-81.162195			
12951	8.925751	-0.939313	-1.958214	0.718209	-1.235608	-0.738365	-168.132100	-68.325056	-81.518670			
12952	8.854442	-0.978826	-2.028480	0.707898	-1.153924	-0.777132	-167.756749	-68.228791	-81.842713			
12953	8.730077	-0.971792	-2.021421	0.678862	-1.134143	-0.896546	-167.404967	-68.133049	-82.137797			
12954	8.636810	-1.067719	-1.956275	0.770194	-1.142610	-1.000042	-167.091325	-68.019868	-82.401074			
12955	8.694431	-1.181589	-1.987537	0.855220	-1.119175	-0.926992	-166.811280	-67.890091	-82.635003			
12956	8.821509	-1.225889	-1.966984	0.898021	-1.191876	-0.814699	-166.571454	-67.754500	-82.835307			
12957	8.905387	-1.190186	-2.046164	0.830729	-1.188841	-0.712921	-166.350497	-67.624894	-83.012448			
12958	9.012959	-1.080686	-2.060005	0.719126	-1.276005	-0.620323	-166.161547	-67.495636	-83.155131			
12959	9.161827	-0.987020	-2.106444	0.614607	-1.345024	-0.476547	-166.006443	-67.370888	-83.267711			
12960	9.240915	-0.789766	-2.168515	0.406593	-1.409201	-0.401551	-165.896975	-67.245942	-83.354504			
12961	9.256912	-0.666236	-2.252018	0.259442	-1.405854	-0.370119	-165.832348	-67.120210	-83.429949			
12962	9.311567	-0.653388	-2.244303	0.251410	-1.459632	-0.327156	-165.809204	-66.989341	-83.499797			
12963	9.462514	-0.784877	-2.203461	0.395585	-1.531183	-0.194507	-165.811904	-66.859791	-83.569330			
12964	9.565097	-0.890513	-2.163924	0.514013	-1.592250	-0.108711	-165.837619	-66.733678	-83.636390			
12965	9.689381	-1.072430	-2.110524	0.709962	-1.647109	-0.000884	-165.877714	-66.625049	-83.708702			
12966	9.727553	-1.231462	-2.101722	0.865617	-1.636124	0.042910	-165.923223	-66.532090	-83.787488			
12967	9.728151	-1.297804	-2.078042	0.937086	-1.651030	0.037969	-165.970254	-66.453217	-83.872313			
12968	9.863759	-1.294655	-2.143733	0.919764	-1.664362	0.184782	-166.045528	-66.382301	-83.937190			
12969	10.057236	-1.227549	-2.207378	0.846281	-1.720459	0.378054	-166.135492	-66.329056	-83.995600			
12970	10.274800	-1.161050	-2.275328	0.774117	-1.780152	0.595409	-166.253158	-66.289142	-84.046078			
12971	10.521027	-1.157104	-2.308693	0.774229	-1.857192	0.832140	-166.395895	-66.273628	-84.098402			
12972	10.620158	-1.245636	-2.287818	0.873994	-1.889644	0.922249	-166.558263	-66.282080	-84.156001			
12973	10.567049	-1.250492	-2.203206	0.907917	-1.937882	0.840982	-166.720046	-66.313852	-84.234795			
12974	10.447312	-1.290180	-2.070479	0.986770	-1.987921	0.683608	-166.890904	-66.363539	-84.309857			
12975	10.277038	-1.382429	-1.825663	1.147015	-2.095742	0.441769	-167.055331	-66.434491	-84.389254			
12976	10.152788	-1.486678	-1.409234	1.371935	-2.366613	0.176916	-167.218464	-66.520363	-84.463320			
12977	10.042127	-1.799953	-0.959570	1.803539	-2.608829	-0.068655	-167.396334	-66.628443	-84.522156			
12978	10.163130	-2.151983	-1.038644	2.119874	-2.472087	0.106684	-167.553895	-66.743808	-84.576849			
12979	10.627274	-2.179431	-1.277219	2.090900	-2.424590	0.630955	-167.676933	-66.853436	-84.670256			
12980	11.316643	-2.241160	-1.891325	1.990184	-2.125820	1.509254	-167.740960	-66.965217	-84.819316			
12981	11.706319	-1.845907	-2.553922	1.425387	-1.791659	2.092186	-167.757124	-67.080535	-85.047514			
12982	11.930949	-1.785713	-3.345407	1.139038	-1.183574	2.598186	-167.750778	-67.180141	-85.298744			
12983	11.971848	-1.844507	-4.033158	0.991869	-0.556935	2.903432	-167.695571	-67.307152	-85.568578			
12984	11.651891	-1.762720	-4.324786	0.810753	-0.169212	2.712944	-167.577847	-67.487554	-85.832084			
12985	11.288321	-1.677169	-4.799728	0.570111	0.405740	2.548003	-167.398305	-67.687903	-86.115175			
12986	11.191278	-1.812073	-5.647328	0.442497	1.261596	2.782276	-167.153694	-67.807868	-86.426789			
12987	11.393382	-2.495485	-6.905625	0.728371	2.502166	3.488922	-166.806842	-67.867614	-86.789107			
12988	11.429078	-2.944156	-7.705383	0.903605	3.327034	3.854024	-166.386852	-67.909041	-87.169629			
12989	10.860094	-2.189513	-7.370384	0.220933	3.055921	3.136078	-165.916379	-67.993049	-87.553092			
12990	9.059734	-0.661985	-6.128399	-0.959266	2.239234	0.870935	-165.559314	-68.129423	-87.831354			
12991	6.637431	0.336896	-5.352632	-1.748887	2.209004	-1.757795	-165.436638	-68.311283	-87.968392			
12992	4.979948	1.162134	-4.976871	-2.454585	2.287002	-3.514728	-165.560250	-68.431455	-87.943896			
12993	4.134842	1.815641	-4.781576	-3.023164	2.264647	-4.428568	-165.948847	-68.452948	-87.782187			
12994	4.251040	2.046185	-4.978145	-3.268365	2.349518	-4.259531	-166.611999	-68.389162	-87.484426			
12995	5.432799	2.348404	-5.033346	-3.511433	1.899501	-3.147379	-167.466985	-68.276962	-87.089038			
12996	7.346312	1.873869	-5.287309	-3.026174	1.547897	-1.217270	-168.434789	-68.154185	-86.598851			
12997	8.658679	0.796799	-5.537106	-1.951386	1.554277	0.189465	-169.360366	-68.109444	-86.088229			
12998	9.006238	-0.550561	-5.280559	-0.508346	1.526244	0.517443	-170.180185	-68.154399	-85.580049			
12999	8.991183	-1.670396	-4.898341	0.723749	1.466255	0.431892	-170.848452	-68.244541	-85.133220			
13000	8.862792	-2.336135	-4.437017	1.515304	1.270470	0.176475	-171.346790	-68.356637	-84.770110			
13001	8.715378	-2.378728	-3.835181	1.718584	0.813999	-0.184159	-171.701827	-68.496111	-84.481048			
13002	8.622323	-1.887161	-3.459039	1.342906	0.422113	-0.437768	-172.010981	-68.658382	-84.182513			
13003	8.447652	-1.163732	-3.258900	0.694562	0.168414	-0.711773	-172.316779	-68.836594	-83.853412			
13004	8.390730	-0.317233	-3.211113	-0.103602	-0.020700	-0.823528	-172.664231	-68.995167	-83.459310			
13005	8.560456	0.297780	-3.505317	-0.743809	0.068341	-0.587758	-173.082690	-69.130995	-83.004407			
13006	8.709340	0.613059	-3.588125	-1.038898	0.039689	-0.430678	-173.584481	-69.245417	-82.481592			
13007	8.998305	0.728260	-3.551898	-1.101175	-0.101544	-0.174594	-174.116221	-69.337020	-81.923599			
13008	9.192182	0.533453	-3.530397	-0.867707	-0.124028	0.009537	-174.650534	-69.433785	-81.353507			
13009	9.056618	0.256063	-3.406838	-0.548666	-0.100796	-0.149192	-175.164107	-69.561318	-80.795724			
13010	8.952825	-0.013468	-3.375800	-0.259261	-0.002752	-0.248068	-175.678578	-69.704388	-80.233848			
13011	8.554787	-0.196144	-3.342198	-0.072754	0.175552	-0.628085	-176.206794	-69.861579	-79.669417			
13012	8.233295	-0.274402	-3.326492	0.011370	0.317379	-0.934229	-176.757260	-70.006201	-79.094067			
13013	8.057265	-0.249044	-3.122637	0.047216	0.210650	-1.170598	-177.319750	-70.130515	-78.510065			
13014	8.108862	0.009658	-2.815852	-0.103595	-0.126899	-1.230390	-177.892758	-70.226837	-77.913786			
13015	8.304735	0.276264	-2.521507	-0.253551	-0.505762	-1.147656	-178.473670	-70.307416	-77.300260			
13016	8.615616	0.564231	-2.376672	-0.447575	-0.792955	-0.903896	-179.084372	-70.378251	-76.644779			
13017	8.898219	0.822644	-2.348660	-0.639464	-0.956245	-0.644928	-179.699175	-70.453666	-75.971423			
13018	9.159155	0.930755	-2.404076	-0.704467	-0.998041	-0.376400	179.670959	-70.532788	-75.274445			
13019	9.259616	1.031651	-2.389083	-0.758413	-1.047237	-0.281660	179.035342	-70.631676	-74.571238			
13020	9.223232	0.959255	-2.307229	-0.641272	-1.066964	-0.338423	178.388411	-70.748879	-73.874392			
13021	9.164527	0.830857	-2.216261	-0.472452	-1.069756	-0.419979	177.765823	-70.890168	-73.216937			
13022	8.950867	0.753893	-2.034288	-0.350393	-1.117949	-0.677482	177.171142	-71.049088	-72.612505			
13023	8.794199	0.716006	-1.940049	-0.286317	-1.112107	-0.851912	176.626507	-71.225506	-72.082601			
13024	8.646194	0.574729	-1.934595	-0.147208	-1.001382	-0.991968	176.146229	-71.413280	-71.631006			
13025	8.356739	0.438171	-1.767319	0.005867	-0.997856	-1.318298	175.741854	-71.616973	-71.242847			
13026	8.205659	0.265800	-1.528728	0.220040	-1.096047	-1.536778	175.427393	-71.805636	-70.905467			
13027	8.189513	0.069214	-1.363787	0.450921	-1.164464	-1.604553	175.220815	-71.973989	-70.632217			
13028	8.147105	-0.033872	-1.331148	0.554678	-1.131745	-1.654265	175.119243	-72.120505	-70.436701			
13029	8.245931	-0.073906	-1.472061	0.567540	-0.999453	-1.515292	175.116013	-72.249258	-70.317580			
13030	8.303773	0.088352	-1.688035	0.359874	-0.842536	-1.388288	175.192870	-72.356235	-70.252616			
13031	8.404482	0.345844	-1.938106	0.053665	-0.694511	-1.208854	175.316402	-72.453934	-70.225061			
13032	8.350162	0.706701	-2.220560	-0.377813	-0.503478	-1.166343	175.459593	-72.541726	-70.227287			
13033	8.307513	1.003235	-2.306820	-0.699027	-0.481608	-1.174281	175.614804	-72.630181	-70.253208			
13034	8.341304	1.169390	-2.394862	-0.887348	-0.447235	-1.112528	175.770274	-72.702025	-70.302559			
13035	8.550575	1.351985	-2.327062	-1.034726	-0.611549	-0.929515	175.936045	-72.765502	-70.379545			
13036	9.070514	1.418339	-2.333262	-1.057273	-0.764635	-0.430388	176.076052	-72.811086	-70.459515			
13037	9.513177	1.520901	-2.205996	-1.086537	-1.028782	-0.043289	176.153163	-72.850482	-70.492859			
13038	9.950258	1.582523	-2.110104	-1.081411	-1.251128	0.347518	176.153210	-72.883081	-70.454666			
13039	10.441672	1.522719	-1.842484	-0.905719	-1.611420	0.738375	176.065133	-72.919161	-70.316047			
13040	10.751366	1.224914	-1.636427	-0.528642	-1.797361	0.969715	175.856041	-72.951882	-70.056260			
13041	10.929957	0.722980	-1.490024	0.022782	-1.832377	1.089087	175.552637	-72.985804	-69.682790			
13042	11.111430	0.461331	-1.161404	0.396322	-2.100197	1.162631	175.195670	-73.015573	-69.215869			
13043	11.026414	0.336115	-0.636249	0.667488	-2.510555	0.927475	174.777326	-73.051380	-68.671987			
13044	11.050680	0.540213	-0.305256	0.587695	-2.863299	0.862451	174.328511	-73.084344	-68.082847			
13045	11.113552	0.847986	-0.317985	0.326474	-2.939506	0.938305	173.829017	-73.109597	-67.433424			
13046	11.271770	1.141048	-0.649439	0.010309	-2.748487	1.197405	173.298111	-73.102266	-66.721604			
13047	11.590978	1.396687	-1.358062	-0.347035	-2.250313	1.718199	172.760305	-73.050170	-65.936937			
13048	11.791648	1.450818	-2.063900	-0.521917	-1.678833	2.116958	172.299899	-72.928288	-65.153788			
13049	11.873660	1.610231	-2.404974	-0.711560	-1.455979	2.300698	171.906325	-72.762774	-64.392867			
13050	11.935105	1.854001	-2.688380	-0.970896	-1.315567	2.452624	171.576917	-72.601393	-63.730717			
13051	11.616879	2.204250	-2.978817	-1.389004	-1.098539	2.251626	171.221868	-72.477123	-63.111450			
13052	11.233090	2.154224	-3.447892	-1.492164	-0.572035	2.026106	170.789321	-72.346307	-62.492470			
13053	11.136488	2.135300	-4.234726	-1.676070	0.157107	2.173959	170.255950	-72.185146	-61.813203			
13054	11.120422	2.518053	-5.393594	-2.331584	1.066013	2.537303	169.658461	-71.981941	-61.100417			
13055	11.133520	3.163351	-6.660098	-3.256337	1.975635	2.986209	169.000425	-71.778689	-60.376960			
13056	11.130997	3.371322	-7.159182	-3.539546	2.344669	3.167782	168.265920	-71.619950	-59.658020			
13057	10.542580	2.405048	-6.695022	-2.527452	2.407781	2.417107	167.479779	-71.553829	-58.964915			
13058	9.102707	0.602986	-5.854361	-0.772233	2.645270	0.670750	166.788577	-71.548946	-58.380823			
13059	7.097772	-0.841154	-5.309097	0.440341	3.179241	-1.507814	166.382251	-71.574815	-57.997853			
13060	5.452994	-1.864088	-4.943949	1.239627	3.629734	-3.259753	166.326834	-71.574081	-57.858185			
13061	4.566220	-2.505854	-4.867654	1.707256	4.007531	-4.169226	166.596215	-71.521967	-57.944884			
13062	4.820477	-2.589271	-4.808016	1.826717	3.904281	-3.940894	167.125409	-71.401892	-58.237551			
13063	6.349133	-1.872616	-4.656082	1.431627	3.094347	-2.472890	167.786798	-71.247837	-58.657152			
13064	8.198176	-1.203109	-4.689153	1.077758	2.360327	-0.652292	168.460250	-71.103755	-59.121291			
13065	9.517491	-0.274895	-4.702358	0.394725	1.656431	0.669232	169.113934	-71.017245	-59.569290			
13066	9.946607	0.708192	-4.583763	-0.452067	1.065294	1.100977	169.722040	-71.012104	-59.986320			
13067	9.832345	1.702510	-4.232338	-1.326962	0.423352	0.936548	170.261688	-71.062949	-60.398058			
13068	9.516115	2.175972	-3.827784	-1.725949	-0.020312	0.529645	170.726551	-71.132629	-60.842595			
13069	9.332793	2.251693	-3.503107	-1.751986	-0.284520	0.251727	171.133947	-71.204406	-61.334810			
13070	9.282705	1.848913	-3.386778	-1.372472	-0.231032	0.143227	171.527880	-71.278668	-61.895531			
13071	9.005807	1.161569	-3.344599	-0.782995	0.050944	-0.167771	171.956305	-71.366847	-62.539368			
13072	8.746392	0.619853	-3.546419	-0.402152	0.493013	-0.375748	172.468658	-71.454517	-63.291122			
13073	8.554990	0.182457	-3.742957	-0.105247	0.870683	-0.514212	173.033183	-71.524868	-64.107278			
13074	8.588695	-0.216334	-4.036547	0.159916	1.251756	-0.404517	173.664667	-71.572960	-64.983364			
13075	8.499617	-0.445137	-4.013662	0.343797	1.322698	-0.502300	174.324698	-71.615115	-65.870384			
13076	8.602865	-0.535725	-3.994714	0.419757	1.294925	-0.410511	175.014018	-71.653306	-66.767454			
13077	8.478595	-0.531049	-3.850181	0.411072	1.189426	-0.571006	175.744027	-71.700537	-67.666078			
13078	8.374334	-0.414041	-3.459298	0.366891	0.821043	-0.787234	176.520527	-71.750425	-68.573989			
13079	8.230821	-0.187154	-3.010743	0.228036	0.379617	-1.057702	177.317945	-71.808043	-69.488318			
13080	8.079319	0.036592	-2.614814	0.075809	-0.009572	-1.321042	178.101816	-71.856681	-70.396759			
13081	8.027928	0.204049	-2.490490	-0.088510	-0.164427	-1.406925	178.845892	-71.887337	-71.281459			
13082	7.969068	0.225732	-2.279573	-0.087326	-0.352358	-1.528873	179.534133	-71.896455	-72.136370			
13083	8.020091	0.191435	-2.143783	-0.041040	-0.489217	-1.523344	-179.828753	-71.886481	-72.959756			
13084	8.248405	0.032874	-2.115098	0.111620	-0.547461	-1.315708	-179.251575	-71.856054	-73.748365			
13085	8.444288	-0.243083	-2.245346	0.330507	-0.421169	-1.088011	-178.693259	-71.807028	-74.527347			
13086	8.471785	-0.429157	-2.341734	0.459797	-0.306010	-1.030097	-178.141337	-71.735740	-75.286442			
13087	8.496726	-0.521897	-2.322050	0.532531	-0.324508	-1.011002	-177.610867	-71.660476	-76.014174			
13088	8.427591	-0.578721	-2.275915	0.571784	-0.349754	-1.089749	-177.107321	-71.573934	-76.705083			
13089	8.339016	-0.490994	-2.220237	0.475090	-0.417087	-1.192364	-176.646045	-71.489695	-77.340725			
13090	8.157332	-0.418916	-2.133486	0.397827	-0.477721	-1.393496	-176.264476	-71.405646	-77.897934			
13091	7.963180	-0.339840	-1.987642	0.332740	-0.587531	-1.625960	-175.985405	-71.323026	-78.355917			
13092	7.931446	-0.403685	-1.881278	0.410055	-0.673387	-1.689364	-175.811121	-71.228046	-78.717065			
13093	7.970078	-0.368116	-1.814904	0.390107	-0.771193	-1.676067	-175.747517	-71.129891	-78.975132			
13094	8.070824	-0.296597	-1.695448	0.356362	-0.946348	-1.622564	-175.772612	-71.027337	-79.158437			
13095	8.390581	-0.197200	-1.610047	0.303241	-1.166988	-1.352241	-175.883362	-70.923987	-79.277103			
13096	8.783322	-0.078317	-1.661586	0.204171	-1.289929	-0.969151	-176.064546	-70.837350	-79.351006			
13097	8.985514	-0.005942	-1.782499	0.124109	-1.272992	-0.741807	-176.299204	-70.770786	-79.398864			
13098	9.191049	-0.085216	-2.101690	0.146824	-1.035978	-0.442259	-176.557564	-70.721110	-79.439461			
13099	9.252900	-0.265781	-2.613838	0.218334	-0.549758	-0.212217	-176.806357	-70.679800	-79.476629			
13100	9.397135	-0.315102	-2.987837	0.201953	-0.249101	0.047828	-177.001734	-70.628385	-79.545297			
13101	9.778705	-0.134607	-2.975988	0.062180	-0.434578	0.400292	-177.154386	-70.562473	-79.662578			
13102	10.249502	0.004370	-2.772097	0.006408	-0.817939	0.773519	-177.273806	-70.494698	-79.851721			
13103	10.718611	-0.045827	-2.669337	0.107922	-1.063910	1.181517	-177.367151	-70.458933	-80.091452			
13104	11.091026	-0.204780	-2.654931	0.285617	-1.169502	1.529805	-177.396796	-70.461930	-80.392237			
13105	11.220575	-0.422858	-2.717176	0.485474	-1.105327	1.676687	-177.347542	-70.519962	-80.753520			
13106	10.963676	-0.744226	-2.582130	0.799116	-1.068326	1.396394	-177.232242	-70.627042	-81.163501			
13107	10.614683	-1.009009	-2.175816	1.100759	-1.259663	0.940232	-177.063352	-70.762518	-81.598423			
13108	10.408772	-1.105680	-1.578714	1.276822	-1.708574	0.555911	-176.875242	-70.903023	-82.039209			
13109	10.294904	-1.038050	-0.913781	1.305178	-2.282390	0.236428	-176.720412	-71.053367	-82.459990			
13110	10.492983	-1.173675	-0.501161	1.498089	-2.686061	0.300279	-176.601229	-71.204464	-82.855374			
13111	10.910836	-0.845039	-0.448508	1.176641	-2.909493	0.680733	-176.478959	-71.340059	-83.265770			
13112	11.498674	-0.767091	-1.003769	1.001131	-2.578105	1.419700	-176.338381	-71.433705	-83.729491			
13113	12.037327	-0.860908	-1.913259	0.935577	-1.875530	2.225003	-176.152895	-71.486526	-84.234331			
13114	12.185450	-0.517320	-2.766263	0.438966	-1.181669	2.629818	-175.888864	-71.485498	-84.802071			
13115	12.283124	-0.579319	-3.528025	0.360761	-0.497538	2.965418	-175.633574	-71.452240	-85.383798			
13116	12.248851	-0.821403	-3.893582	0.524943	-0.117237	3.055090	-175.403249	-71.438847	-85.946901			
13117	11.972567	-0.538728	-3.980131	0.208967	0.007016	2.813884	-175.147564	-71.450410	-86.500431			
13118	11.648067	-0.318930	-4.429750	-0.097386	0.498018	2.643007	-174.829229	-71.431588	-87.080032			
13119	11.537392	-1.216743	-5.360455	0.639649	1.516064	2.860854	-174.388662	-71.354807	-87.737209			
13120	11.544977	-2.856898	-6.668411	2.057623	2.928737	3.344232	-173.748251	-71.234255	-88.516015			
13121	11.294067	-3.577283	-7.982484	2.547084	4.303732	3.568749	-172.897192	-71.137489	-89.411549			
13122	10.524043	-2.727449	-8.054426	1.634568	4.491283	2.845294	-171.995215	-71.087726	-90.328463			
13123	8.936144	-0.923168	-6.655217	-0.012162	3.458942	0.819070	-171.243056	-71.069776	-91.155572			
13124	6.581644	0.731971	-4.981158	-1.438111	2.446249	-2.027223	-170.810977	-71.035999	-91.767169			
13125	4.729658	1.743049	-4.046674	-2.301080	2.052606	-4.131552	-170.711966	-70.963972	-92.170916			
13126	4.243211	2.348563	-3.717042	-2.840639	1.839646	-4.725113	-170.922444	-70.838723	-92.398282			
13127	4.650694	2.245838	-3.837571	-2.733640	1.840451	-4.286427	-171.398271	-70.708864	-92.445508			
13128	6.209394	1.858528	-4.185286	-2.372352	1.697998	-2.670145	-172.104533	-70.597890	-92.242245			
13129	8.151173	1.588409	-4.537858	-2.116659	1.412285	-0.697766	-172.941734	-70.533765	-91.828074			
13130	9.379462	1.039328	-4.865743	-1.557704	1.362454	0.601099	-173.792864	-70.544581	-91.314650			
13131	9.121427	-0.228957	-5.159771	-0.259482	1.836563	0.504071	-174.624162	-70.623581	-90.780574			
13132	8.565548	-1.643231	-5.109666	1.212474	2.091355	0.002271	-175.422930	-70.706893	-90.247945			
13133	8.390210	-2.907744	-4.895427	2.539314	2.043352	-0.211009	-176.133456	-70.767128	-89.750752			
13134	8.169577	-3.325104	-4.210363	3.041676	1.501492	-0.646493	-176.651399	-70.805911	-89.339657			
13135	8.163582	-2.902369	-3.312326	2.704845	0.631468	-0.962582	-176.973903	-70.811517	-89.016383			
13136	8.310798	-1.986588	-2.862871	1.836193	0.099773	-0.990535	-177.172995	-70.801747	-88.752225			
13137	8.749982	-0.831650	-2.972467	0.689436	-0.019146	-0.559921	-177.356878	-70.798996	-88.476942			
13138	9.020083	0.291500	-3.271014	-0.438390	0.095249	-0.223885	-177.592662	-70.805934	-88.137094			
13139	8.980575	1.000734	-3.502409	-1.148067	0.276882	-0.193731	-177.917837	-70.835382	-87.701980			
13140	8.673788	1.376028	-3.489219	-1.505920	0.341295	-0.489684	-178.346043	-70.884523	-87.159168			
13141	8.385484	1.412702	-3.424377	-1.518911	0.377738	-0.780046	-178.861370	-70.940354	-86.533537			
13142	8.174689	1.191899	-3.293731	-1.266801	0.347983	-1.016729	-179.430496	-70.998495	-85.860485			
13143	8.007587	0.731668	-3.278494	-0.783693	0.433417	-1.175372	179.978507	-71.048514	-85.174030			
13144	7.928917	0.166103	-3.195939	-0.188985	0.436324	-1.275523	179.404637	-71.087277	-84.499804			
13145	7.786169	-0.221359	-3.105099	0.225156	0.437396	-1.441726	178.854579	-71.110961	-83.834281			
13146	7.675277	-0.541378	-3.122899	0.562364	0.523917	-1.544394	178.324880	-71.114194	-83.171483			
13147	7.665909	-0.573031	-3.049110	0.622041	0.463845	-1.579251	177.829308	-71.095238	-82.516009			
13148	7.876296	-0.363617	-2.895619	0.457279	0.231340	-1.428762	177.373594	-71.041852	-81.864823			
13149	8.201063	-0.109324	-2.787245	0.250293	-0.006005	-1.153854	176.970706	-70.956849	-81.224375			
13150	8.545372	0.268901	-2.705544	-0.079896	-0.244265	-0.848896	176.630298	-70.850777	-80.607488			
13151	8.847652	0.547390	-2.692724	-0.318440	-0.400258	-0.562300	176.339918	-70.732178	-80.011986			
13152	9.093882	0.841728	-2.704903	-0.577548	-0.521387	-0.319625	176.088735	-70.615374	-79.440818			
13153	9.129857	1.045222	-2.642354	-0.751310	-0.635550	-0.301622	175.869704	-70.511946	-78.894766			
13154	9.000195	1.225703	-2.535681	-0.908847	-0.733542	-0.454728	175.681069	-70.429150	-78.377928			
13155	8.924080	1.258369	-2.410940	-0.916126	-0.844977	-0.567038	175.541702	-70.362405	-77.910250			
13156	8.680584	1.235116	-2.254447	-0.878051	-0.921771	-0.849433	175.450491	-70.303954	-77.489928			
13157	8.604899	1.078312	-2.134320	-0.702698	-0.998518	-0.965568	175.415650	-70.255512	-77.123327			
13158	8.521235	0.901603	-2.055632	-0.516620	-1.028087	-1.076207	175.449668	-70.217775	-76.825338			
13159	8.457374	0.703142	-1.888873	-0.299044	-1.138871	-1.198573	175.557963	-70.200754	-76.589527			
13160	8.365384	0.438865	-1.739493	-0.024254	-1.209808	-1.343103	175.754254	-70.192643	-76.426353			
13161	8.387815	0.108466	-1.639280	0.314285	-1.259023	-1.364580	176.048960	-70.175794	-76.335871			
13162	8.541560	-0.089369	-1.622568	0.516597	-1.295701	-1.230541	176.435523	-70.146753	-76.305080			
13163	8.815956	0.087646	-1.740403	0.334035	-1.314861	-0.929147	176.904363	-70.123236	-76.336936			
13164	8.880220	0.621262	-2.028606	-0.249868	-1.177070	-0.762187	177.411194	-70.117099	-76.434374			
13165	8.736162	1.115863	-2.480217	-0.846027	-0.817870	-0.738965	177.902058	-70.112917	-76.578478			
13166	8.682280	1.408931	-2.978385	-1.249774	-0.412892	-0.620007	178.369103	-70.081355	-76.741874			
13167	8.801352	1.602683	-3.368263	-1.525660	-0.151930	-0.377287	178.837938	-70.025865	-76.910963			
13168	9.016208	1.813398	-3.436558	-1.751295	-0.227769	-0.154979	179.309042	-69.964389	-77.085905			
13169	9.393537	2.060504	-3.340929	-1.966820	-0.518395	0.162723	179.744135	-69.902913	-77.254113			
13170	10.007129	2.531628	-2.989190	-2.326719	-1.170020	0.613453	-179.928858	-69.867580	-77.378534			
13171	10.527114	2.803408	-2.368455	-2.434491	-1.983596	0.884387	-179.797800	-69.885480	-77.387169			
13172	11.074887	2.708545	-1.803193	-2.182583	-2.658353	1.205947	-179.902757	-69.968117	-77.232048			
13173	11.453413	2.318018	-1.391135	-1.675825	-3.051554	1.428693	179.768691	-70.114448	-76.900899			
13174	11.454720	1.720637	-1.189155	-1.031433	-3.065900	1.373084	179.263271	-70.305738	-76.435797			
13175	11.245740	1.322124	-1.164981	-0.629312	-2.882811	1.181171	178.648683	-70.529698	-75.884533			
13176	10.881518	0.865314	-1.297302	-0.213600	-2.490296	0.892063	177.968749	-70.758080	-75.288779			
13177	10.739548	0.164281	-1.830780	0.378258	-1.747884	0.935251	177.261807	-70.962566	-74.653076			
13178	10.907233	-0.749493	-2.609697	1.158067	-0.838638	1.336096	176.602130	-71.078786	-73.956603			
13179	11.607966	-1.100119	-3.119598	1.496748	-0.482292	2.154518	176.003946	-71.075299	-73.171595			
13180	12.398432	-0.807715	-3.284263	1.297462	-0.632331	2.957452	175.409364	-70.994933	-72.302944			
13181	12.683868	-0.413873	-3.215848	1.012762	-0.874320	3.210486	174.711315	-70.886584	-71.344830			
13182	12.186361	-0.255841	-3.824264	0.739741	-0.201244	2.939167	173.941725	-70.753607	-70.345742			
13183	11.445565	1.548291	-5.529911	-1.399557	1.151690	2.863771	173.160906	-70.604590	-69.356214			
13184	11.108091	4.426911	-7.537661	-4.603301	2.379807	3.338330	172.302226	-70.474798	-68.435833			
13185	11.324952	5.903849	-8.268922	-6.086979	2.629283	3.881097	171.196751	-70.424902	-67.496633			
13186	11.035882	4.275705	-7.558577	-4.298780	2.514620	3.317444	169.861348	-70.463677	-66.483253			
13187	10.070153	1.221664	-6.600480	-1.172734	2.722346	1.921000	168.513327	-70.511008	-65.422989			
13188	8.477750	-0.904567	-6.205697	0.821593	3.383542	0.141078	167.444867	-70.522778	-64.469525			
13189	6.759216	-2.061649	-6.110010	1.754466	4.106855	-1.607498	166.790089	-70.514560	-63.732470			
13190	5.592389	-2.844675	-6.008002	2.367682	4.561363	-2.809038	166.528077	-70.492265	-63.268582			
13191	5.597348	-3.581671	-5.858160	3.097754	4.608230	-2.910166	166.613446	-70.422983	-63.066526			
13192	6.772921	-3.606306	-5.438664	3.360855	3.878493	-1.931138	166.995313	-70.316529	-63.098949			
13193	8.478389	-2.958748	-4.880696	3.083069	2.683375	-0.445056	167.533293	-70.212008	-63.280037			
13194	9.936802	-1.955457	-4.587809	2.367092	1.703539	0.916083	168.109517	-70.167195	-63.533418			
13195	10.089870	-0.651556	-4.644691	1.083505	1.360628	1.177205	168.626331	-70.226312	-63.784986			
13196	9.597720	0.681103	-4.602716	-0.301341	1.116934	0.790456	169.105501	-70.321598	-64.039763			
13197	9.185716	1.795798	-4.267782	-1.390970	0.634762	0.359746	169.589294	-70.413445	-64.344517			
13198	8.614730	2.747289	-3.680427	-2.279857	0.010019	-0.320123	170.062265	-70.498847	-64.715651			
13199	8.171665	2.897889	-3.411448	-2.450826	-0.143804	-0.824665	170.520058	-70.565609	-65.163374			
13200	8.021255	2.583814	-3.279123	-2.163304	-0.134705	-1.033667	170.982723	-70.599460	-65.664881			
13201	8.332049	1.939427	-3.388458	-1.550852	0.043907	-0.743016	171.409401	-70.626093	-66.161871			
13202	8.469114	1.002911	-3.533254	-0.688966	0.386175	-0.615309	171.816638	-70.667935	-66.656787			
13203	8.357760	-0.039710	-3.547520	0.274445	0.712702	-0.765294	172.219638	-70.726533	-67.153523			
13204	8.285350	-0.871592	-3.430326	1.071240	0.849373	-0.907364	172.660871	-70.798903	-67.670013			
13205	8.294923	-1.362409	-3.201327	1.574190	0.768962	-0.989936	173.138107	-70.902545	-68.191854			
13206	8.102426	-1.548130	-3.179821	1.706067	0.861782	-1.181126	173.663730	-71.022592	-68.725321			
13207	7.973806	-1.460091	-3.174605	1.576515	0.879448	-1.296077	174.222122	-71.144522	-69.261766			
13208	7.745743	-1.223712	-3.285967	1.264099	0.995606	-1.463896	174.797864	-71.268451	-69.790661			
13209	7.416862	-0.822680	-3.271708	0.813205	0.982786	-1.765112	175.381965	-71.376251	-70.308204			
13210	7.127290	-0.393230	-3.060178	0.390234	0.765173	-2.093896	175.980587	-71.436387	-70.831769			
13211	7.089271	-0.066457	-2.845905	0.097306	0.490336	-2.189604	176.583081	-71.452230	-71.370313			
13212	7.088661	0.118521	-2.707817	-0.071295	0.306570	-2.230056	177.184166	-71.431376	-71.935102			
13213	7.276162	0.238917	-2.630778	-0.172557	0.134725	-2.074947	177.783212	-71.378736	-72.518513			
13214	7.554432	0.332563	-2.730660	-0.283383	0.099666	-1.778621	178.391671	-71.295197	-73.122830			
13215	7.835833	0.435786	-2.814291	-0.399541	0.040933	-1.485081	178.983769	-71.178466	-73.724739			
13216	8.409227	0.507724	-2.804051	-0.435522	-0.191215	-0.946502	179.527684	-71.033404	-74.301772			
13217	8.923301	0.504158	-2.717499	-0.385055	-0.458702	-0.490375	-179.991037	-70.890920	-74.843762			
13218	9.116069	0.393759	-2.617978	-0.256130	-0.606896	-0.342863	-179.579296	-70.784372	-75.342154			
13219	9.172349	0.407987	-2.465309	-0.245178	-0.786358	-0.341802	-179.238836	-70.715654	-75.800050			
13220	9.050903	0.317672	-2.323535	-0.149109	-0.865180	-0.504208	-178.976052	-70.681417	-76.217895			
13221	8.831567	0.165176	-2.288771	-0.023739	-0.792810	-0.722406	-178.801008	-70.681546	-76.579106			
13222	8.595070	0.007309	-2.213598	0.118761	-0.746205	-0.969364	-178.699213	-70.699051	-76.893229			
13223	8.489817	-0.094283	-2.109801	0.226864	-0.780841	-1.102007	-178.664620	-70.717046	-77.157127			
13224	8.449508	-0.074004	-1.943373	0.238617	-0.924167	-1.194954	-178.687017	-70.725245	-77.377118			
13225	8.559339	0.064601	-1.786114	0.145745	-1.136095	-1.144082	-178.768626	-70.729918	-77.562334			
13226	8.665597	0.138631	-1.761761	0.086475	-1.209350	-1.052231	-178.905624	-70.726746	-77.720064			
13227	8.737789	0.161118	-1.898837	0.041542	-1.111853	-0.938987	-179.072950	-70.713489	-77.859463			
13228	8.907501	0.207631	-2.292356	-0.072169	-0.817794	-0.649305	-179.232758	-70.671897	-78.008649			
13229	9.167235	0.352359	-2.617892	-0.257122	-0.640730	-0.297486	-179.388042	-70.598355	-78.171157			
13230	9.474445	0.452565	-2.824609	-0.367666	-0.582439	0.060200	-179.560115	-70.499683	-78.343565			
13231	9.878224	0.352640	-2.903785	-0.247859	-0.633318	0.467054	-179.758917	-70.402795	-78.512519			
13232	10.228572	0.036728	-2.979950	0.081562	-0.625590	0.822495	-179.970446	-70.336982	-78.669525			
13233	10.642249	-0.327715	-2.991528	0.473792	-0.687128	1.215344	179.853772	-70.312548	-78.854298			
13234	11.045739	-0.692732	-3.054379	0.853023	-0.696297	1.615566	179.721133	-70.321434	-79.083310			
13235	11.105771	-1.151696	-3.080875	1.304324	-0.606452	1.680237	179.670025	-70.370511	-79.385861			
13236	11.014255	-1.683692	-2.987825	1.831889	-0.563155	1.562846	179.715594	-70.458054	-79.755223			
13237	10.877460	-1.745986	-2.436398	1.960657	-1.010269	1.252518	179.871455	-70.580472	-80.191524			
13238	10.609965	-1.385974	-1.708108	1.683304	-1.645455	0.764117	-179.901471	-70.737165	-80.677631			
13239	10.391023	-0.879614	-0.992575	1.254632	-2.302389	0.329159	-179.663099	-70.919536	-81.179551			
13240	10.379694	-0.563175	-0.695995	0.955675	-2.600546	0.230385	-179.418043	-71.112803	-81.687918			
13241	10.453995	-0.170932	-0.606321	0.552366	-2.740791	0.280163	-179.135699	-71.304676	-82.222780			
13242	10.739841	-0.063870	-0.927724	0.379423	-2.519806	0.661825	-178.829933	-71.466229	-82.785621			
13243	11.393921	-0.562774	-1.569093	0.776470	-2.029835	1.495581	-178.505078	-71.597654	-83.371838			
13244	11.735950	-0.637213	-2.238539	0.738503	-1.480696	2.036855	-178.131934	-71.702083	-84.007976			
13245	11.943204	-0.804892	-3.087854	0.768918	-0.711331	2.505003	-177.803862	-71.780409	-84.655864			
13246	11.903956	-1.397837	-3.835319	1.237865	0.088748	2.710394	-177.540356	-71.845998	-85.255913			
13247	11.654675	-1.697560	-4.440474	1.438045	0.778913	2.667547	-177.258383	-71.911940	-85.820580			
13248	11.255675	-1.992979	-5.180344	1.617877	1.636786	2.524311	-176.871064	-71.938625	-86.412763			
13249	10.931587	-3.048867	-6.227344	2.514374	2.837307	2.564812	-176.276402	-71.899826	-87.091771			
13250	10.617618	-4.328377	-7.342055	3.606959	4.112400	2.655353	-175.393622	-71.805298	-87.891454			
13251	10.110554	-4.494562	-8.003098	3.612482	4.896472	2.412192	-174.239425	-71.698075	-88.788555			
13252	9.427385	-3.373594	-7.639208	2.442094	4.627365	1.643184	-172.981299	-71.607421	-89.716994			
13253	8.556524	-1.284194	-6.748854	0.390650	3.802651	0.473078	-171.826816	-71.541802	-90.587322			
13254	6.953155	1.315578	-5.602209	-2.091744	2.899129	-1.525268	-170.946182	-71.512130	-91.327611			
13255	4.952220	2.859088	-4.755131	-3.519672	2.538852	-3.773128	-170.495815	-71.461163	-91.842274			
13256	4.548891	3.117211	-4.633239	-3.757183	2.519531	-4.208061	-170.449165	-71.311986	-92.080160			
13257	5.579265	2.578508	-4.819535	-3.245868	2.424316	-3.134979	-170.774811	-71.119879	-92.006029			
13258	7.490393	1.919613	-5.141623	-2.627056	2.172861	-1.175309	-171.331253	-70.949033	-91.699892			
13259	9.416168	1.206708	-5.377161	-1.929563	1.829115	0.768672	-171.929202	-70.829817	-91.290727			
13260	10.173347	0.377659	-5.330311	-1.067748	1.615853	1.514300	-172.474650	-70.793849	-90.831473			
13261	9.768523	-0.862031	-5.123781	0.223694	1.691830	1.119278	-172.979272	-70.842229	-90.345051			
13262	9.252805	-2.018235	-4.807476	1.438979	1.702850	0.571389	-173.452922	-70.917908	-89.849029			
13263	8.909931	-2.889910	-4.259146	2.392044	1.412614	0.094954	-173.861311	-70.996694	-89.375069			
13264	8.812057	-3.067614	-3.856285	2.633156	1.105603	-0.128803	-174.186085	-71.080687	-88.918072			
13265	8.791579	-2.552995	-3.535982	2.172675	0.774831	-0.273721	-174.437311	-71.170041	-88.461481			
13266	8.630144	-1.714011	-3.387009	1.366510	0.610259	-0.504130	-174.676499	-71.260205	-87.957915			
13267	8.513276	-0.684694	-3.433645	0.347852	0.583538	-0.632652	-174.950509	-71.345688	-87.366843			
13268	8.471875	0.268541	-3.558638	-0.602277	0.604679	-0.659530	-175.300327	-71.431364	-86.679178			
13269	8.291369	0.898555	-3.510914	-1.208218	0.541767	-0.861297	-175.719169	-71.526087	-85.932860			
13270	7.912653	1.204727	-3.351118	-1.479430	0.477553	-1.276024	-176.205439	-71.636277	-85.144137			
13271	7.773661	1.074068	-3.252228	-1.319744	0.459074	-1.433672	-176.744857	-71.758174	-84.340492			
13272	7.785281	0.779844	-3.247079	-1.005917	0.510177	-1.416852	-177.348970	-71.881498	-83.495484			
13273	7.801344	0.443217	-3.220788	-0.644589	0.550526	-1.403631	-178.015110	-72.001924	-82.607391			
13274	7.788067	0.069892	-3.089363	-0.230620	0.510578	-1.452719	-178.689278	-72.116449	-81.709263			
13275	7.794630	-0.245688	-3.010837	0.118632	0.506793	-1.469381	-179.361265	-72.217494	-80.797900			
13276	7.849056	-0.380698	-2.695784	0.330839	0.235582	-1.514806	179.997038	-72.282052	-79.887925			
13277	8.170555	-0.392504	-2.567582	0.406614	0.034042	-1.248929	179.398791	-72.302916	-78.998198			
13278	8.391966	-0.202418	-2.460091	0.276827	-0.159505	-1.071064	178.861832	-72.291041	-78.136631			
13279	8.580968	0.001187	-2.386518	0.127588	-0.321113	-0.912742	178.372760	-72.243506	-77.303209			
13280	8.709524	0.207978	-2.365470	-0.036667	-0.423666	-0.795281	177.938211	-72.162164	-76.504444			
13281	8.980636	0.406659	-2.510779	-0.213164	-0.419943	-0.490706	177.556017	-72.049093	-75.745429			
13282	9.014045	0.593190	-2.588219	-0.382609	-0.413171	-0.432571	177.215742	-71.917953	-75.022810			
13283	9.098101	0.719850	-2.514367	-0.459591	-0.554330	-0.373563	176.896411	-71.776827	-74.326337			
13284	9.131479	0.705333	-2.446712	-0.403520	-0.644642	-0.363385	176.610083	-71.640106	-73.671246			
13285	9.147713	0.733912	-2.340394	-0.383355	-0.773838	-0.381311	176.352895	-71.515695	-73.049277			
13286	9.193669	0.664394	-2.215035	-0.261502	-0.903693	-0.379435	176.125939	-71.412232	-72.460781			
13287	9.076458	0.451871	-2.177005	-0.036716	-0.865166	-0.508080	175.920569	-71.319375	-71.886719			
13288	8.964389	0.304076	-2.114005	0.129586	-0.863133	-0.638815	175.736806	-71.229721	-71.314865			
13289	8.951185	0.190101	-2.056026	0.271123	-0.892278	-0.673902	175.570885	-71.147356	-70.734086			
13290	8.947634	0.186803	-1.942853	0.319415	-0.999847	-0.714997	175.425012	-71.086565	-70.152439			
13291	8.975701	0.174776	-1.797240	0.387063	-1.139628	-0.736607	175.295220	-71.061059	-69.582974			
13292	9.052477	0.149512	-1.788353	0.438093	-1.160205	-0.667750	175.169254	-71.064355	-69.012117			
13293	9.011156	0.242765	-1.734878	0.371903	-1.214474	-0.721132	175.049860	-71.098964	-68.446549			
13294	9.011738	0.345639	-1.719320	0.289746	-1.246120	-0.721474	174.942166	-71.169083	-67.897317			
13295	8.950693	0.672855	-1.736488	-0.025049	-1.294413	-0.762446	174.850499	-71.266989	-67.366827			
13296	8.887066	1.134604	-2.010259	-0.542117	-1.154171	-0.719702	174.778403	-71.372788	-66.861927			
13297	8.808645	1.385408	-2.394286	-0.896377	-0.851618	-0.663073	174.726993	-71.471499	-66.388857			
13298	8.806318	1.577045	-2.648334	-1.151539	-0.676441	-0.578600	174.712562	-71.554559	-65.954727			
13299	8.944854	1.811301	-2.670468	-1.362202	-0.771473	-0.433356	174.764419	-71.620870	-65.581944			
13300	9.252296	2.084116	-2.575936	-1.551583	-1.037993	-0.163899	174.861799	-71.681159	-65.269213			
13301	9.531468	2.246582	-2.378859	-1.606198	-1.353664	0.043413	174.953390	-71.732320	-64.985475			
13302	9.845062	2.332717	-2.136054	-1.564672	-1.693826	0.267605	174.987941	-71.771673	-64.677305			
13303	10.043342	2.319798	-1.715038	-1.380166	-2.122861	0.325367	174.914856	-71.809514	-64.303715			
13304	10.092798	2.299536	-1.284722	-1.197015	-2.509077	0.240899	174.686796	-71.855267	-63.837279			
13305	10.007684	2.156362	-1.065799	-0.981500	-2.617399	0.093139	174.306757	-71.913480	-63.288004			
13306	9.855316	1.990271	-1.229192	-0.878907	-2.352635	0.000156	173.781342	-71.967275	-62.658299			
13307	9.747681	1.383215	-1.810380	-0.496793	-1.565983	0.061968	173.127469	-71.984252	-61.943708			
13308	10.025936	0.634061	-2.801580	-0.059002	-0.472445	0.605731	172.431973	-71.921722	-61.174898			
13309	10.819789	0.517581	-3.387639	0.015740	-0.123753	1.536147	171.760850	-71.760701	-60.378945			
13310	11.658614	1.065264	-3.373767	-0.299353	-0.579258	2.353448	171.053046	-71.548822	-59.561528			
13311	11.934597	1.270253	-3.399176	-0.384241	-0.720141	2.634636	170.197852	-71.349485	-58.682493			
13312	11.481051	0.624800	-3.621749	0.137363	-0.163208	2.240361	169.270545	-71.140274	-57.766129			
13313	11.120922	0.389830	-4.682401	0.010852	0.954076	2.222297	168.400892	-70.882651	-56.853191			
13314	11.187483	1.842519	-6.592337	-1.888460	2.060541	3.001404	167.655459	-70.615796	-56.037989			
13315	11.781612	3.596054	-8.219273	-3.868555	2.651204	4.233637	166.921376	-70.382625	-55.292996			
13316	12.274966	3.450445	-8.430759	-3.627055	2.755240	4.778765	166.041576	-70.218858	-54.528896			
13317	11.775380	1.195888	-7.499515	-1.247861	2.945314	3.829149	165.025587	-70.118369	-53.693337			
13318	10.681632	-1.107043	-5.960541	1.240446	2.777044	2.086881	164.078827	-70.031156	-52.864024			
13319	9.217590	-2.259955	-4.797824	2.436426	2.599858	0.207035	163.323663	-69.968619	-52.122351			
13320	7.448770	-3.062964	-4.384969	2.965890	3.034555	-1.683187	162.813650	-69.965830	-51.508075			
13321	5.711129	-3.502071	-4.236906	3.049798	3.554684	-3.417706	162.623856	-69.977371	-51.103500			
13322	4.947464	-3.753611	-4.078349	3.153276	3.728336	-4.213024	162.788650	-69.970832	-50.970861			
13323	5.293720	-3.505536	-4.050705	2.983981	3.522845	-3.862410	163.256073	-69.913892	-51.089886			
13324	6.768939	-2.488287	-4.181847	2.297201	2.838286	-2.318368	163.928497	-69.797405	-51.401179			
13325	8.685460	-1.159968	-4.689811	1.290422	2.210002	-0.209171	164.723765	-69.641331	-51.836847			
13326	10.026522	0.238675	-4.941946	0.181482	1.455346	1.271519	165.527381	-69.524810	-52.290659			
13327	10.468822	1.389459	-4.754444	-0.740835	0.655930	1.726473	166.246365	-69.487064	-52.693320			
13328	10.285430	2.296860	-4.137736	-1.416506	-0.233953	1.417857	166.829232	-69.517216	-53.032207			
13329	9.855883	2.716160	-3.871340	-1.821571	-0.536962	0.952845	167.283080	-69.582419	-53.329959			
13330	9.463212	2.664493	-3.642043	-1.798425	-0.613159	0.497794	167.632922	-69.639576	-53.595440			
13331	9.347243	1.925170	-3.571371	-1.148682	-0.338577	0.306492	167.951509	-69.687534	-53.882551			
13332	9.122026	0.938007	-3.510910	-0.299655	0.080015	0.001663	168.303813	-69.733732	-54.229754			
13333	8.981164	0.060446	-3.579451	0.418237	0.537951	-0.168360	168.738720	-69.772346	-54.661395			
13334	8.917812	-0.574048	-3.756634	0.887735	0.962574	-0.207768	169.279963	-69.806446	-55.165666			
13335	8.960401	-0.884823	-3.765584	1.141762	1.075799	-0.179918	169.902154	-69.865765	-55.697383			
13336	8.866612	-0.965917	-3.740760	1.166745	1.106610	-0.275547	170.573437	-69.965798	-56.235827			
13337	8.591028	-0.950040	-3.477656	1.155207	0.948638	-0.616611	171.268931	-70.103160	-56.770518			
13338	8.233643	-0.629013	-3.277758	0.828599	0.743663	-0.998356	171.978539	-70.259008	-57.308858			
13339	7.876274	-0.353602	-3.104799	0.536813	0.580407	-1.376141	172.701149	-70.401695	-57.857661			
13340	7.584098	-0.065435	-2.861338	0.278122	0.329387	-1.717991	173.445196	-70.517920	-58.437192			
13341	7.463604	0.064045	-2.680345	0.173955	0.146735	-1.885403	174.194846	-70.597579	-59.038525			
13342	7.466962	0.113936	-2.523186	0.157869	-0.020839	-1.931729	174.952063	-70.634251	-59.662391			
13343	7.669753	0.216644	-2.478029	0.086459	-0.178079	-1.752080	175.707815	-70.619634	-60.298413			
13344	7.989408	0.205701	-2.494795	0.114275	-0.273101	-1.445537	176.440833	-70.561237	-60.921312			
13345	8.410219	0.193281	-2.502444	0.164897	-0.410266	-1.047087	177.140706	-70.475969	-61.522371			
13346	8.889010	0.158412	-2.473875	0.259770	-0.588118	-0.606919	177.789344	-70.394589	-62.093940			
13347	9.112129	0.040341	-2.489360	0.370904	-0.615740	-0.393949	178.375228	-70.331149	-62.622123			
13348	9.219594	-0.063716	-2.457885	0.470718	-0.650557	-0.304728	178.896587	-70.293620	-63.105335			
13349	9.157023	-0.150340	-2.402205	0.538691	-0.657440	-0.382853	179.382273	-70.283651	-63.561867			
13350	8.951631	-0.305896	-2.319518	0.658353	-0.608197	-0.603884	179.829549	-70.304934	-63.988934			
13351	8.665779	-0.329736	-2.130878	0.692487	-0.676904	-0.935339	-179.771190	-70.344267	-64.379963			
13352	8.332309	-0.350175	-1.931106	0.724305	-0.738928	-1.315128	-179.423556	-70.387737	-64.732450			
13353	7.957174	-0.344252	-1.934040	0.647017	-0.627266	-1.666306	-179.126176	-70.421006	-65.049162			
13354	7.503419	-0.297609	-1.955034	0.518791	-0.494923	-2.086244	-178.865082	-70.431642	-65.338137			
13355	7.267783	-0.230862	-2.005557	0.395377	-0.415554	-2.291570	-178.641943	-70.399008	-65.591124			
13356	7.281670	-0.111217	-1.929469	0.314651	-0.546635	-2.305350	-178.433660	-70.325381	-65.825237			
13357	7.427063	-0.036180	-1.943579	0.257548	-0.626597	-2.165394	-178.239970	-70.219186	-66.049718			
13358	7.654180	0.050874	-1.924524	0.216555	-0.768800	-1.960626	-178.079934	-70.087144	-66.267264			
13359	7.991987	0.074177	-1.975225	0.221782	-0.862034	-1.628157	-177.969804	-69.941163	-66.479839			
13360	8.338296	0.072198	-2.104298	0.221201	-0.882307	-1.260902	-177.918270	-69.796890	-66.683951			
13361	8.528147	0.147544	-2.262756	0.118665	-0.861604	-1.031193	-177.884219	-69.657612	-66.910406			
13362	8.831155	0.140022	-2.473885	0.086204	-0.797133	-0.675613	-177.863227	-69.520832	-67.142631			
13363	9.256432	-0.008425	-2.694762	0.194958	-0.705254	-0.199784	-177.837270	-69.396508	-67.386127			
13364	9.792224	-0.354999	-2.752391	0.562837	-0.705932	0.325072	-177.803369	-69.294655	-67.635828			
13365	10.400854	-0.812769	-2.930256	0.992549	-0.583704	0.962231	-177.733447	-69.217977	-67.905354			
13366	10.992263	-1.258739	-2.957932	1.463350	-0.589022	1.530824	-177.603819	-69.175335	-68.218520			
13367	11.462434	-1.656186	-2.964542	1.875214	-0.590983	1.979392	-177.426187	-69.171168	-68.583373			
13368	11.623826	-1.934383	-2.895073	2.160352	-0.599613	2.112493	-177.216730	-69.216283	-68.985671			
13369	11.670524	-2.024354	-2.780547	2.269201	-0.677609	2.121385	-176.971893	-69.307197	-69.417209			
13370	11.584923	-1.857022	-2.480609	2.189888	-0.965123	1.938280	-176.699718	-69.440120	-69.862051			
13371	11.491887	-1.472595	-1.994237	1.975395	-1.489411	1.680282	-176.404792	-69.595012	-70.308696			
13372	11.325056	-0.980653	-1.504479	1.651383	-2.029380	1.351382	-176.112259	-69.773587	-70.746842			
13373	10.988085	-0.713585	-1.207741	1.441426	-2.257134	0.935956	-175.812527	-69.957839	-71.195745			
13374	10.905598	-0.354737	-1.254469	1.048514	-2.308391	0.873912	-175.501144	-70.115894	-71.663067			
13375	11.291286	-0.648420	-1.883174	1.094042	-1.761099	1.463900	-175.176359	-70.234913	-72.159323			
13376	11.696634	-0.513277	-2.593638	0.716484	-1.319507	2.084670	-174.798635	-70.303592	-72.696848			
13377	11.965277	-0.329052	-3.258769	0.296836	-0.899996	2.556529	-174.391851	-70.315296	-73.273353			
13378	12.142270	-0.596796	-3.704361	0.368729	-0.477698	2.881758	-173.983473	-70.318626	-73.858917			
13379	11.891068	-0.342627	-3.631592	0.103159	-0.558571	2.612312	-173.565800	-70.361568	-74.433929			
13380	11.221780	-0.083873	-3.917269	-0.331957	-0.185777	2.067363	-173.168770	-70.416246	-74.983452			
13381	10.621204	-0.922939	-5.170150	-0.078276	1.410945	1.951465	-172.785437	-70.447620	-75.503752			
13382	10.679701	-2.623356	-7.307142	0.723970	3.870859	2.789875	-172.301109	-70.445973	-76.054166			
13383	10.941969	-3.716850	-8.868146	1.167623	5.533234	3.611372	-171.583056	-70.444246	-76.728574			
13384	10.667443	-3.266351	-9.187866	0.546148	5.726247	3.445953	-170.643296	-70.458202	-77.538039			
13385	9.778340	-0.965131	-7.824016	-1.244385	3.975749	2.036663	-169.635852	-70.438660	-78.426009			
13386	8.449315	1.375952	-5.891982	-2.866542	1.859126	0.001895	-168.830541	-70.385575	-79.257399			
13387	6.884683	2.185393	-4.641773	-3.294122	0.989848	-1.945682	-168.315449	-70.389294	-79.982358			
13388	5.676853	2.805279	-4.069599	-3.748118	0.687781	-3.321435	-168.092287	-70.459795	-80.564314			
13389	5.346758	3.145338	-4.004343	-4.060239	0.654955	-3.680714	-168.150220	-70.536399	-80.951323			
13390	6.181501	3.246923	-4.372268	-4.227280	0.708259	-2.777171	-168.499486	-70.575328	-81.062508			
13391	7.674529	2.784522	-4.839033	-3.847811	0.822481	-1.176377	-169.096150	-70.579102	-80.929722			
13392	8.876229	1.734151	-5.057055	-2.825967	1.000623	0.106027	-169.840750	-70.593555	-80.647949			
13393	9.469732	0.398286	-5.014420	-1.467293	1.230165	0.737777	-170.620486	-70.649239	-80.303234			
13394	9.364137	-1.135641	-4.726519	0.122969	1.522712	0.626789	-171.381704	-70.752651	-79.952375			
13395	8.918682	-2.555972	-4.363911	1.607654	1.809959	0.150186	-172.120466	-70.893928	-79.609759			
13396	8.483179	-3.586601	-3.973460	2.726543	1.935185	-0.355561	-172.828828	-71.047874	-79.256824			
13397	8.002283	-3.809129	-3.649303	3.045757	1.878810	-0.921303	-173.476995	-71.172167	-78.883616			
13398	7.659478	-3.264409	-3.279020	2.645997	1.502231	-1.397352	-174.070857	-71.236926	-78.469735			
13399	7.543072	-1.974344	-3.149924	1.471673	1.048153	-1.599680	-174.620280	-71.243037	-78.032343			
13400	7.656937	-0.641125	-3.212364	0.214068	0.679390	-1.515004	-175.176005	-71.201388	-77.555009			
13401	7.940315	0.389619	-3.331910	-0.757632	0.394941	-1.235277	-175.740407	-71.138589	-77.057171			
13402	8.182296	0.975745	-3.435399	-1.300215	0.239549	-0.983419	-176.327315	-71.087251	-76.521444			
13403	8.332743	1.147879	-3.556466	-1.457981	0.253802	-0.801001	-176.908047	-71.080047	-75.966706			
13404	8.309374	1.005205	-3.507344	-1.281618	0.266028	-0.832475	-177.473767	-71.101419	-75.383085			
13405	8.307653	0.739549	-3.472983	-0.992346	0.323768	-0.838502	-178.023838	-71.143598	-74.774024			
13406	8.172363	0.371095	-3.493105	-0.633333	0.505283	-0.954328	-178.572568	-71.193442	-74.133833			
13407	7.997773	0.048315	-3.474850	-0.311662	0.651480	-1.122482	-179.149033	-71.232066	-73.461351			
13408	7.827078	-0.294998	-3.445550	0.033774	0.792450	-1.292546	-179.775149	-71.253987	-72.754350			
13409	7.914810	-0.481142	-3.242861	0.304167	0.649475	-1.275858	179.586061	-71.259328	-72.025621			
13410	7.976827	-0.482530	-2.916888	0.432306	0.346449	-1.323644	178.964371	-71.248193	-71.294269			
13411	8.228633	-0.253009	-2.768011	0.309964	0.072999	-1.133124	178.388524	-71.222411	-70.590780			
13412	8.508783	-0.052350	-2.725476	0.188775	-0.107176	-0.880545	177.862341	-71.179322	-69.920693			
13413	8.743999	0.193367	-2.647653	0.030205	-0.322653	-0.680333	177.412392	-71.132695	-69.294853			
13414	8.910041	0.295272	-2.411740	0.045511	-0.615176	-0.597920	177.028635	-71.100803	-68.704301			
13415	9.121339	0.362729	-2.335322	0.050620	-0.765630	-0.421450	176.699994	-71.086614	-68.138808			
13416	9.196884	0.430351	-2.320769	0.019324	-0.817677	-0.353044	176.412607	-71.088852	-67.593408			
13417	9.436634	0.453675	-2.362814	0.031220	-0.851529	-0.111519	176.144402	-71.113902	-67.060750			
13418	9.463159	0.384522	-2.362080	0.115011	-0.824385	-0.087165	175.871145	-71.173586	-66.522921			
13419	9.335503	0.262677	-2.265405	0.256057	-0.814007	-0.240621	175.594881	-71.263244	-65.974497			
13420	9.294266	0.161924	-2.103136	0.407492	-0.889554	-0.332426	175.318198	-71.375464	-65.404747			
13421	9.301579	0.029330	-1.952096	0.590592	-0.953825	-0.374877	175.059577	-71.508803	-64.826028			
13422	9.324345	-0.143022	-1.860764	0.791829	-0.950553	-0.384238	174.840275	-71.660862	-64.245905			
13423	9.603974	-0.241073	-1.704941	0.976605	-1.098654	-0.166945	174.696195	-71.840514	-63.695766			
13424	9.715593	-0.243551	-1.491661	1.065080	-1.277644	-0.121961	174.624776	-72.065340	-63.174470			
13425	9.465333	-0.191653	-1.196895	1.077039	-1.442999	-0.441490	174.637158	-72.344728	-62.706791			
13426	8.918857	-0.121161	-0.722049	1.092926	-1.693474	-1.093772	174.714107	-72.655895	-62.301330			
13427	8.301108	-0.107437	-0.534248	1.050984	-1.654265	-1.727887	174.831178	-72.972129	-61.948896			
13428	7.747418	-0.053234	-0.730563	0.839870	-1.317961	-2.189269	175.019973	-73.256053	-61.671062			
13429	7.384592	0.273931	-0.927526	0.403189	-1.153399	-2.465947	175.286389	-73.473071	-61.462021			
13430	7.471509	0.727806	-1.418357	-0.200693	-0.912295	-2.230319	175.617220	-73.618702	-61.318549			
13431	7.725057	1.545891	-1.706905	-1.035890	-1.059210	-1.889001	176.021668	-73.704300	-61.253121			
13432	8.283050	2.624402	-1.886390	-2.019508	-1.507108	-1.285962	176.478231	-73.733877	-61.265810			
13433	9.227584	3.538988	-2.000827	-2.771975	-2.054247	-0.337867	176.920036	-73.744873	-61.325671			
13434	10.080539	4.123257	-1.970174	-3.175582	-2.566596	0.474602	177.246145	-73.778327	-61.327573			
13435	10.680507	5.036114	-1.726122	-3.813717	-3.339374	0.990984	177.372200	-73.847359	-61.197322			
13436	11.201082	5.368899	-1.610316	-3.986509	-3.712542	1.465929	177.166288	-73.939571	-60.842699			
13437	11.634971	4.808595	-1.926621	-3.543508	-3.276368	1.973569	176.604971	-74.032703	-60.221067			
13438	12.087812	3.543557	-2.464486	-2.548974	-2.323699	2.550508	175.770542	-74.109637	-59.373110			
13439	11.965517	1.788327	-3.645024	-1.452290	-0.459764	2.730720	174.747398	-74.081605	-58.380594			
13440	12.558376	1.020732	-5.310433	-1.315021	1.199778	3.744082	173.582042	-73.906036	-57.350467			
13441	13.720734	1.128585	-5.547176	-1.239446	1.105753	4.936666	172.165172	-73.780986	-56.238788			
13442	13.242260	1.685282	-5.003454	-1.487964	0.555990	4.354451	170.565596	-73.811303	-55.088010			
13443	11.456534	1.938700	-5.521065	-2.125942	1.387463	2.798697	168.981892	-73.886452	-54.044079			
13444	10.396973	1.417504	-6.558931	-2.156396	2.832087	2.038649	167.607281	-73.866095	-53.231245			
13445	11.077460	0.846623	-6.579823	-1.441387	2.984961	2.666598	166.460659	-73.738146	-52.552001			
13446	11.472461	0.315301	-6.120971	-0.625975	2.735143	2.888083	165.410141	-73.590343	-51.850163			
13447	10.884470	-0.775287	-5.838372	0.449571	3.073914	2.166789	164.478411	-73.449910	-51.151764			
13448	9.609790	-2.305868	-5.325988	1.866491	3.529176	0.679794	163.733155	-73.328624	-50.493574			
13449	7.749386	-4.004347	-4.757922	3.318181	4.128093	-1.405900	163.245894	-73.220637	-49.938512			
13450	6.164390	-5.383852	-4.144849	4.513850	4.500385	-3.214428	163.121790	-73.084861	-49.597356			
13451	5.655124	-5.758093	-3.949340	4.817846	4.600390	-3.782922	163.439563	-72.858030	-49.532961			
13452	6.693457	-4.857308	-4.094661	4.120412	4.118300	-2.655612	164.163868	-72.536478	-49.750787			
13453	8.359191	-3.333422	-4.874667	2.737300	3.744879	-0.689483	165.128017	-72.183555	-50.156370			
13454	9.687371	-1.730287	-5.353139	1.333725	3.099494	0.869490	166.150858	-71.887424	-50.613668			
13455	10.312932	-0.169667	-5.342607	0.025963	2.182615	1.596245	167.145605	-71.670471	-51.054221			
13456	10.293406	1.604683	-4.866246	-1.400574	0.910772	1.563514	168.037868	-71.521592	-51.405037			
13457	9.948476	3.225444	-4.010873	-2.578982	-0.539933	1.073990	168.832865	-71.444360	-51.748472			
13458	9.066099	3.996970	-3.167389	-3.099970	-1.442925	0.011276	169.493176	-71.432800	-52.106636			
13459	8.183474	3.838121	-2.789576	-2.990719	-1.496926	-0.964135	170.049698	-71.449873	-52.509548			
13460	7.749746	3.017221	-2.549627	-2.267644	-1.222830	-1.504546	170.575286	-71.461646	-52.974376			
13461	7.549950	1.899860	-2.492666	-1.316414	-0.709357	-1.775995	171.117229	-71.463403	-53.503497			
13462	7.502335	0.853791	-2.352568	-0.362730	-0.339245	-1.919535	171.713343	-71.447997	-54.108251			
13463	7.837007	0.076832	-2.299434	0.387567	-0.124292	-1.655099	172.335167	-71.417244	-54.743467			
13464	8.207673	-0.500664	-2.362413	0.916648	0.082811	-1.306785	172.959939	-71.392323	-55.379069			
13465	8.727332	-0.935078	-2.634490	1.253370	0.359010	-0.741781	173.570161	-71.376512	-55.972516			
13466	8.962588	-1.002033	-2.700110	1.300692	0.366472	-0.496225	174.153080	-71.391977	-56.506847			
13467	8.854556	-0.930434	-2.703798	1.189973	0.354230	-0.591093	174.669309	-71.446512	-56.967157			
13468	8.449611	-0.729951	-2.674612	0.929185	0.339562	-0.975065	175.130152	-71.520900	-57.356109			
13469	8.084538	-0.597372	-2.588225	0.764448	0.299435	-1.342656	175.547298	-71.573586	-57.695259			
13470	7.797166	-0.470079	-2.346150	0.692149	0.107627	-1.686771	175.921455	-71.582545	-58.000445			
13471	7.880788	-0.521668	-2.296029	0.761424	0.056973	-1.623202	176.265460	-71.535440	-58.292123			
13472	8.162341	-0.515685	-2.232078	0.823207	-0.091239	-1.375515	176.595401	-71.449339	-58.573128			
13473	8.391496	-0.493711	-2.179923	0.858886	-0.227414	-1.174193	176.930011	-71.347545	-58.864955			
13474	8.561716	-0.563642	-2.336500	0.873503	-0.131638	-0.963985	177.269475	-71.238894	-59.169085			
13475	8.784372	-0.481719	-2.442392	0.785226	-0.167683	-0.717757	177.629931	-71.116561	-59.484530			
13476	9.142283	-0.385285	-2.486262	0.733297	-0.302107	-0.363760	177.987467	-71.001435	-59.792509			
13477	9.288684	-0.221812	-2.325149	0.676839	-0.578640	-0.276326	178.344545	-70.920529	-60.096019			
13478	9.235076	-0.009251	-2.170200	0.539615	-0.811343	-0.376216	178.674341	-70.875494	-60.379078			
13479	9.083609	0.066445	-2.035399	0.497166	-0.929393	-0.563458	178.974929	-70.853099	-60.641989			
13480	8.838392	0.073070	-1.883715	0.508720	-0.997538	-0.845135	179.225746	-70.845685	-60.865120			
13481	8.565133	0.075078	-1.619518	0.571824	-1.146154	-1.190083	179.441988	-70.845583	-61.066627			
13482	8.351882	0.145636	-1.292273	0.614510	-1.395547	-1.498847	179.609539	-70.838712	-61.248643			
13483	8.341377	0.227336	-1.075559	0.631990	-1.617586	-1.580368	179.738126	-70.811863	-61.431143			
13484	8.684208	0.414399	-1.080788	0.514264	-1.808321	-1.255772	179.810713	-70.772343	-61.617210			
13485	9.016369	0.528202	-1.282306	0.372265	-1.797778	-0.876937	179.825053	-70.737834	-61.806297			
13486	9.240127	0.611342	-1.533466	0.218918	-1.697380	-0.583593	179.796310	-70.713913	-62.000680			
13487	9.261568	0.816617	-1.787048	-0.074070	-1.589475	-0.479675	179.729380	-70.699707	-62.195588			
13488	9.459078	0.888297	-2.045897	-0.222873	-1.462139	-0.207408	179.637907	-70.696577	-62.404057			
13489	9.676193	0.725447	-2.359863	-0.182543	-1.182999	0.101501	179.514499	-70.710086	-62.611871			
13490	9.966658	0.229751	-2.590908	0.202739	-0.840866	0.451410	179.401968	-70.761507	-62.821678			
13491	10.089288	-0.366856	-2.673390	0.714851	-0.528186	0.593336	179.334015	-70.855363	-63.051897			
13492	10.313071	-1.099420	-2.629317	1.414588	-0.293255	0.788935	179.323764	-70.968638	-63.312135			
13493	10.580438	-2.126463	-2.641800	2.357811	0.102506	1.044421	179.415630	-71.109815	-63.632025			
13494	10.617028	-2.967047	-2.519218	3.148450	0.366079	1.042002	179.665019	-71.280326	-64.032233			
13495	10.473079	-3.332254	-2.218252	3.547630	0.322683	0.818398	-179.888239	-71.477620	-64.562896			
13496	10.258432	-3.073118	-1.813577	3.407889	-0.058496	0.499984	-179.316620	-71.684758	-65.182441			
13497	10.063620	-2.543354	-1.697982	2.903801	-0.314779	0.291612	-178.646330	-71.894844	-65.893005			
13498	10.057483	-1.507229	-1.488966	2.002873	-0.923339	0.226109	-177.919562	-72.082245	-66.652521			
13499	10.425655	-0.685609	-1.455666	1.267467	-1.396768	0.566409	-177.166845	-72.247908	-67.452397			
13500	11.121464	-0.378844	-1.723984	0.907663	-1.482156	1.313035	-176.416386	-72.413628	-68.247678			
13501	11.755876	-0.101143	-2.403907	0.390832	-1.183018	2.122012	-175.611663	-72.555197	-69.093269			
13502	12.529687	-0.298777	-3.460786	0.157918	-0.402915	3.182379	-174.754881	-72.636760	-69.992966			
13503	13.269752	-0.958436	-4.217117	0.454117	0.313082	4.133077	-173.788913	-72.693407	-70.988927			
13504	13.306615	-1.304614	-4.739036	0.479552	0.887860	4.336787	-172.648304	-72.762575	-72.112363			
13505	12.532983	-1.336130	-5.103993	0.198606	1.416705	3.710049	-171.296107	-72.780723	-73.365787			
13506	11.698019	-1.707586	-5.615134	0.157129	2.216472	3.085018	-169.780817	-72.704264	-74.683830			
13507	11.167766	-3.145346	-6.693928	0.857851	3.856192	2.986273	-168.128216	-72.577452	-76.052258			
13508	10.953862	-3.575309	-7.345196	0.837087	4.616111	3.021302	-166.515489	-72.516717	-77.368671			
13509	10.356378	-2.277865	-6.634739	-0.173591	3.605322	2.163694	-165.130035	-72.567924	-78.520031			
13510	8.687902	0.290549	-5.329545	-2.091030	1.872187	-0.010121	-164.106552	-72.699339	-79.400732			
13511	6.293501	2.868039	-4.354287	-4.146440	0.632428	-2.798371	-163.628818	-72.807512	-79.878515			
13512	4.958193	4.577612	-4.002537	-5.603970	-0.004989	-4.321423	-163.700237	-72.815668	-79.996873			
13513	4.793038	5.148949	-3.995959	-6.114807	-0.184143	-4.518570	-164.207246	-72.682782	-79.882211			
13514	5.377206	4.343063	-4.229954	-5.433699	0.215618	-3.804589	-165.090757	-72.421280	-79.549512			
13515	7.136511	3.035865	-4.914333	-4.390578	0.839504	-1.793054	-166.252219	-72.057065	-78.995177			
13516	9.747339	1.740755	-5.508400	-3.221101	1.077988	0.996794	-167.481674	-71.686735	-78.353151			
13517	11.853366	0.135801	-5.817815	-1.645960	1.315590	3.222913	-168.591565	-71.466417	-77.811144			
13518	12.299105	-1.824282	-5.438309	0.422479	1.615367	3.655152	-169.535709	-71.512217	-77.408836			
13519	11.226733	-3.531473	-4.613498	2.305659	1.917394	2.467468	-170.376588	-71.769767	-77.047575			
13520	9.622381	-4.050915	-3.683593	3.067472	1.838869	0.664802	-171.099845	-72.114283	-76.690366			
13521	8.185088	-3.798754	-3.133369	2.963583	1.737970	-0.899741	-171.696982	-72.415066	-76.335550			
13522	7.538990	-2.781538	-2.878183	2.084850	1.365858	-1.649050	-172.214262	-72.647456	-75.954481			
13523	7.352849	-1.531533	-2.671737	0.999403	0.807800	-1.945239	-172.701988	-72.791482	-75.548460			
13524	7.549588	-0.368184	-2.629789	-0.036555	0.309128	-1.815771	-173.216622	-72.869087	-75.087384			
13525	7.942932	0.630869	-2.508434	-0.873256	-0.261499	-1.509110	-173.765810	-72.897976	-74.600494			
13526	8.204109	1.057587	-2.471073	-1.214231	-0.512198	-1.280670	-174.367871	-72.927815	-74.088639			
13527	8.358497	1.374327	-2.453480	-1.466048	-0.671788	-1.142500	-175.032348	-72.968855	-73.551732			
13528	8.334007	1.338522	-2.754360	-1.514088	-0.365524	-1.071542	-175.765718	-73.024017	-72.983071			
13529	8.404832	1.129511	-3.064573	-1.392043	-0.012378	-0.903672	-176.539881	-73.078217	-72.401771			
13530	8.238140	0.625846	-3.131311	-0.927985	0.295869	-1.031178	-177.343205	-73.142278	-71.792572			
13531	7.747945	0.201623	-2.908684	-0.468761	0.403840	-1.557458	-178.136967	-73.206393	-71.179071			
13532	7.610455	-0.229526	-2.652694	0.037703	0.381984	-1.759050	-178.898591	-73.245964	-70.567758			
13533	7.833709	-0.503659	-2.476166	0.403080	0.270729	-1.595861	-179.585287	-73.241016	-69.989904			
13534	8.150426	-0.529407	-2.339648	0.531315	0.078032	-1.333582	179.780552	-73.210455	-69.432229			
13535	8.569108	-0.460939	-2.520944	0.476049	0.107948	-0.881903	179.199077	-73.174890	-68.899243			
13536	8.901455	-0.128258	-2.600151	0.198200	-0.021036	-0.540506	178.654709	-73.155111	-68.372604			
13537	9.079117	0.216296	-2.544269	-0.063912	-0.231189	-0.384386	178.155308	-73.157457	-67.869108			
13538	9.116175	0.551214	-2.429642	-0.315451	-0.449404	-0.378170	177.687348	-73.188677	-67.390966			
13539	8.970547	0.779883	-2.216066	-0.458375	-0.667819	-0.575061	177.264360	-73.245312	-66.942711			
13540	8.858234	0.993285	-1.936239	-0.564238	-0.947596	-0.757986	176.859569	-73.315345	-66.506867			
13541	8.687317	0.994538	-1.742460	-0.507994	-1.060169	-0.974548	176.461460	-73.391490	-66.074382			
13542	8.554806	1.009023	-1.622637	-0.485149	-1.121334	-1.132653	176.071892	-73.464162	-65.655224			
13543	8.491670	0.942686	-1.547783	-0.393944	-1.133603	-1.213125	175.700917	-73.523874	-65.252009			
13544	8.372951	0.867166	-1.521834	-0.317345	-1.086169	-1.333668	175.349233	-73.573951	-64.863549			
13545	8.234848	0.715386	-1.474083	-0.165132	-1.028548	-1.481288	175.023527	-73.614184	-64.490210			
13546	8.064864	0.622126	-1.287536	-0.026330	-1.110495	-1.697706	174.753386	-73.643001	-64.152715			
13547	8.018056	0.509934	-1.106290	0.142292	-1.215495	-1.795490	174.562863	-73.651078	-63.867955			
13548	8.089683	0.419317	-0.957749	0.293357	-1.332186	-1.770592	174.469933	-73.638072	-63.654167			
13549	8.243961	0.348317	-0.926012	0.395597	-1.375702	-1.633894	174.486320	-73.604651	-63.525278			
13550	8.384670	0.191249	-1.017011	0.532508	-1.278007	-1.478618	174.610829	-73.556622	-63.469807			
13551	8.376934	0.147672	-1.084881	0.549957	-1.207904	-1.469408	174.840804	-73.496532	-63.483250			
13552	8.358122	0.316604	-1.184584	0.354794	-1.187294	-1.456485	175.137772	-73.431716	-63.547979			
13553	8.180707	0.748181	-1.305205	-0.113545	-1.207880	-1.583750	175.463666	-73.371517	-63.653587			
13554	8.062878	1.415585	-1.484731	-0.814501	-1.282788	-1.632876	175.783243	-73.306893	-63.804192			
13555	8.191709	2.111609	-1.841164	-1.573533	-1.279724	-1.396088	176.100102	-73.218890	-64.003002			
13556	8.620481	2.563655	-2.217860	-2.075657	-1.250812	-0.872274	176.415826	-73.096800	-64.227768			
13557	9.474270	2.705836	-2.434972	-2.179031	-1.366740	0.005468	176.750610	-72.934987	-64.458536			
13558	10.350458	2.639418	-2.363467	-1.980950	-1.674623	0.815380	177.071636	-72.762297	-64.654977			
13559	11.108134	2.544070	-2.104192	-1.700719	-2.107131	1.454877	177.302059	-72.621651	-64.778553			
13560	11.680204	2.385094	-1.942449	-1.418129	-2.368571	1.946042	177.357200	-72.541819	-64.795310			
13561	11.942471	2.175382	-1.708203	-1.098348	-2.572381	2.122527	177.181740	-72.531887	-64.655676			
13562	11.881479	2.107767	-1.294022	-0.883845	-2.880777	1.943443	176.813596	-72.609021	-64.388535			
13563	11.535227	2.009518	-1.284065	-0.824583	-2.725881	1.617007	176.293284	-72.747006	-64.016716			
13564	11.447276	1.614847	-2.084282	-0.745172	-1.802873	1.771193	175.672362	-72.875471	-63.554652			
13565	11.844390	0.715115	-3.252520	-0.251614	-0.497217	2.478333	175.004401	-72.901728	-62.977894			
13566	13.205056	0.016397	-4.064538	0.331831	0.146303	3.998992	174.316715	-72.818512	-62.292171			
13567	14.122396	-0.024055	-4.054305	0.555906	-0.075100	4.869445	173.482164	-72.772187	-61.463836			
13568	13.163113	0.450117	-3.743812	0.153434	-0.250706	3.876703	172.423736	-72.796108	-60.501911			
13569	11.419913	1.249309	-4.773327	-1.134949	0.851069	2.546393	171.203801	-72.784941	-59.455169			
13570	10.668096	2.923330	-6.892216	-3.453567	2.336928	2.535089	169.879871	-72.679152	-58.372140			
13571	11.313012	5.134757	-8.156357	-5.729234	2.520370	3.666859	168.380764	-72.531795	-57.214659			
13572	11.449410	5.323068	-8.408474	-5.837041	2.715760	3.923309	166.601799	-72.434066	-55.931400			
13573	10.240591	2.338518	-8.074951	-3.016289	3.882399	2.490565	164.720159	-72.328242	-54.576402			
13574	8.998809	-1.045210	-7.349710	0.275951	4.786148	0.822385	163.121144	-72.166951	-53.313048			
13575	7.775031	-3.088721	-6.120030	2.426810	4.711589	-0.904419	161.973164	-72.030757	-52.261460			
13576	6.106687	-4.320936	-4.948067	3.660711	4.503201	-2.974136	161.326971	-71.979411	-51.574380			
13577	5.489302	-4.344659	-4.345386	3.757392	4.125380	-3.750169	161.250876	-71.919773	-51.379677			
13578	6.984620	-3.873836	-4.429969	3.576840	3.666730	-2.251113	161.657137	-71.778175	-51.654649			
13579	9.153471	-2.839611	-4.857387	2.891988	3.124426	0.052293	162.278635	-71.594507	-52.149361			
13580	11.093405	-1.694022	-5.400716	2.013522	2.678413	2.182006	162.972058	-71.456159	-52.662832			
13581	12.094166	-0.283811	-5.487676	0.832933	1.959295	3.299563	163.677142	-71.448073	-53.102779			
13582	11.576021	1.475043	-5.037260	-0.809969	1.032936	2.829726	164.385140	-71.621052	-53.507507			
13583	10.342770	3.087141	-4.141878	-2.309513	-0.045063	1.515250	165.120279	-71.900004	-53.992066			
13584	9.043501	3.926018	-3.389029	-3.137155	-0.692921	0.105066	165.869668	-72.179535	-54.602630			
13585	8.219073	4.037414	-2.861549	-3.264008	-0.991999	-0.845844	166.663000	-72.389506	-55.379723			
13586	7.826993	3.341750	-2.649054	-2.662337	-0.821014	-1.346027	167.468069	-72.522841	-56.288996			
13587	7.645179	2.435302	-2.731145	-1.919264	-0.367506	-1.565272	168.275684	-72.587117	-57.295483			
13588	7.384567	1.311711	-2.870834	-0.997209	0.227637	-1.847277	169.095775	-72.610237	-58.376494			
13589	7.257976	0.425396	-2.929092	-0.238288	0.617891	-2.002431	169.941300	-72.593756	-59.525125			
13590	7.346574	-0.067625	-2.992217	0.190671	0.805169	-1.923116	170.832832	-72.540927	-60.742604			
13591	7.546249	-0.321820	-2.854685	0.478024	0.689410	-1.781825	171.764611	-72.462528	-61.991110			
13592	8.056587	-0.284644	-2.690735	0.539654	0.361259	-1.338741	172.712594	-72.386247	-63.229815			
13593	8.433537	-0.391825	-2.799594	0.624798	0.363675	-0.947418	173.662076	-72.353674	-64.443524			
13594	8.469472	-0.372006	-2.852878	0.556468	0.373065	-0.893031	174.592739	-72.381966	-65.599169			
13595	8.346774	-0.467997	-3.005628	0.545236	0.562311	-0.963515	175.489992	-72.440158	-66.687625			
13596	8.192586	-0.567952	-2.882300	0.619717	0.517236	-1.146836	176.345035	-72.514419	-67.711187			
13597	8.059425	-0.661089	-2.616941	0.736166	0.337674	-1.351974	177.132361	-72.585109	-68.656704			
13598	8.059889	-0.717454	-2.275847	0.859084	0.041067	-1.451095	177.814652	-72.643786	-69.493844			
13599	8.079398	-0.640682	-1.962465	0.853288	-0.278244	-1.522161	178.391552	-72.687718	-70.227345			
13600	8.007632	-0.583573	-1.768049	0.825424	-0.458067	-1.645831	178.861736	-72.712785	-70.871326			
13601	8.065120	-0.444023	-1.702509	0.698455	-0.584234	-1.608259	179.234796	-72.707781	-71.430231			
13602	8.203868	-0.365810	-1.757996	0.605585	-0.606863	-1.458480	179.560000	-72.669206	-71.947608			
13603	8.268903	-0.176797	-1.815165	0.402675	-0.643637	-1.379159	179.834106	-72.604982	-72.411396			
13604	8.287960	-0.006479	-1.853184	0.220841	-0.678759	-1.350116	-179.931734	-72.542595	-72.832270			
13605	8.295812	0.019053	-1.799332	0.203536	-0.749763	-1.359589	-179.736613	-72.484348	-73.211540			
13606	8.165890	0.072336	-1.680640	0.166926	-0.846351	-1.520079	-179.591020	-72.435435	-73.536346			
13607	7.986641	0.149062	-1.565138	0.104193	-0.930388	-1.726784	-179.497584	-72.392379	-73.816355			
13608	8.057527	0.228726	-1.431562	0.065919	-1.102263	-1.700592	-179.465092	-72.353946	-74.053358			
13609	8.342679	0.349131	-1.354837	-0.008323	-1.294945	-1.453213	-179.486479	-72.318215	-74.263219			
13610	8.634014	0.484579	-1.399565	-0.129020	-1.380223	-1.162940	-179.556811	-72.295906	-74.464722			
13611	8.941795	0.618141	-1.497350	-0.260354	-1.416604	-0.840213	-179.682731	-72.301338	-74.659862			
13612	9.054533	0.660571	-1.730071	-0.353789	-1.240087	-0.661126	-179.860411	-72.344447	-74.844821			
13613	8.926391	0.546319	-1.912835	-0.300142	-0.991451	-0.726171	179.933712	-72.413190	-75.024239			
13614	8.852373	0.240530	-2.052836	-0.042992	-0.747731	-0.753133	179.694122	-72.481816	-75.165806			
13615	8.985464	-0.093977	-2.129960	0.277795	-0.619884	-0.602764	179.421618	-72.530365	-75.266719			
13616	9.088022	-0.335844	-2.090241	0.537209	-0.620185	-0.517483	179.124136	-72.558118	-75.345941			
13617	9.444243	-0.401319	-1.855077	0.690483	-0.923265	-0.248854	178.790174	-72.563652	-75.408616			
13618	9.952042	-0.525714	-1.756375	0.881745	-1.133683	0.204380	178.423644	-72.562191	-75.456769			
13619	10.269604	-0.879259	-1.596918	1.293575	-1.295956	0.455476	178.069061	-72.579345	-75.532791			
13620	10.492174	-1.518538	-1.725482	1.914824	-1.103327	0.698501	177.783187	-72.611559	-75.645624			
13621	10.895707	-1.858049	-1.815824	2.261462	-1.067466	1.105751	177.642724	-72.652372	-75.850067			
13622	11.056498	-2.203565	-1.868836	2.595428	-0.995979	1.271813	177.685953	-72.716996	-76.188074			
13623	10.958612	-2.371532	-1.831825	2.744262	-0.969175	1.169143	177.919861	-72.801759	-76.657738			
13624	10.647542	-2.244144	-1.575466	2.620775	-1.143527	0.803915	178.323264	-72.886911	-77.225147			
13625	10.271931	-1.913918	-1.269480	2.298507	-1.385284	0.364985	178.823680	-72.952864	-77.822601			
13626	9.908303	-1.624061	-1.055064	2.000911	-1.536510	-0.037176	179.322248	-73.008887	-78.370177			
13627	9.972480	-1.437830	-1.294324	1.751343	-1.366329	0.099874	179.816899	-73.027579	-78.883170			
13628	10.664296	-1.015250	-2.021249	1.217171	-0.970957	0.977079	-179.668314	-72.979949	-79.412765			
13629	11.917241	-0.686716	-2.948855	0.766324	-0.549452	2.446947	-179.134736	-72.829834	-79.989696			
13630	13.401822	-0.710254	-3.723578	0.693874	-0.297169	4.094440	-178.527826	-72.628586	-80.637973			
13631	14.231850	-1.196301	-4.133663	1.094939	-0.116049	5.014691	-177.806503	-72.498163	-81.354945			
13632	13.329750	-1.833304	-4.515308	1.554935	0.603291	4.281607	-176.968760	-72.499880	-82.108658			
13633	11.834535	-1.635187	-4.946624	1.155423	1.409914	2.988716	-176.029157	-72.507849	-82.857040			
13634	11.209205	-0.935926	-5.336568	0.302781	1.815337	2.500459	-174.966248	-72.432022	-83.648637			
13635	11.241902	-1.507037	-5.695634	0.716543	2.222404	2.662832	-173.784787	-72.295207	-84.546548			
13636	11.080614	-3.008046	-6.587606	1.913102	3.370263	2.844536	-172.457882	-72.186540	-85.539610			
13637	10.571899	-3.251205	-7.434813	1.852657	4.350492	2.647305	-170.997746	-72.153656	-86.574339			
13638	9.596561	-1.645084	-6.895502	0.263194	3.812685	1.489586	-169.575346	-72.163944	-87.559597			
13639	8.081510	1.490352	-5.121764	-2.509640	1.954706	-0.666929	-168.466650	-72.183660	-88.370223			
13640	5.731309	3.809398	-3.486526	-4.459137	0.649562	-3.550946	-167.911878	-72.224857	-88.903292			
13641	3.962075	4.217612	-3.014457	-4.767671	0.673554	-5.409410	-167.910166	-72.193253	-89.137317			
13642	4.258378	3.994503	-3.189828	-4.578647	0.806532	-5.053455	-168.337755	-71.973673	-89.071889			
13643	6.523783	3.489019	-3.844077	-4.188952	0.814984	-2.650409	-169.149986	-71.622615	-88.687348			
13644	9.406483	2.750885	-4.787576	-3.592514	0.906016	0.446097	-170.158734	-71.293807	-88.116475			
13645	11.920848	1.642851	-5.245528	-2.502495	0.710682	3.054055	-171.130495	-71.106485	-87.523311			
13646	13.197349	-0.114152	-5.368873	-0.714260	0.740078	4.398209	-171.925605	-71.156810	-87.017630			
13647	12.286875	-2.071874	-4.856003	1.346789	0.959708	3.457779	-172.587797	-71.439959	-86.552621			
13648	10.325960	-3.568540	-4.257384	2.930849	1.366578	1.457950	-173.156770	-71.823224	-86.094246			
13649	8.584772	-4.240129	-3.589546	3.700890	1.475115	-0.395209	-173.586934	-72.196327	-85.667756			
13650	7.560962	-3.833890	-3.146366	3.371104	1.356281	-1.532446	-173.885968	-72.495295	-85.282768			
13651	6.998543	-2.647412	-2.655662	2.288491	0.888448	-2.261905	-174.149193	-72.681346	-84.900938			
13652	6.989812	-1.043344	-2.342921	0.779664	0.322583	-2.415163	-174.488331	-72.760914	-84.455559			
13653	7.449721	0.308206	-2.554850	-0.558619	0.137890	-1.952058	-174.967254	-72.745227	-83.879499			
13654	7.878832	1.310917	-2.963240	-1.582457	0.198496	-1.444196	-175.608928	-72.680422	-83.153436			
13655	7.993211	1.820691	-3.280642	-2.107087	0.353423	-1.245067	-176.376397	-72.594618	-82.325197			
13656	7.947897	1.717039	-3.470133	-2.006597	0.553122	-1.220447	-177.212713	-72.510463	-81.440838			
13657	8.026171	1.322298	-3.429974	-1.569703	0.559507	-1.143462	-178.059901	-72.429905	-80.529478			
13658	8.352500	0.777605	-3.383858	-0.972290	0.519539	-0.834713	-178.859084	-72.371597	-79.640230			
13659	8.284726	0.319611	-3.226031	-0.461419	0.481462	-0.941311	-179.595913	-72.345702	-78.776181			
13660	8.015359	-0.080387	-3.139026	-0.037674	0.565433	-1.222884	179.707265	-72.355302	-77.921744			
13661	7.485684	-0.479576	-3.006234	0.372131	0.688889	-1.769690	179.035414	-72.372338	-77.065289			
13662	6.979787	-0.687450	-2.917346	0.582122	0.807262	-2.282061	178.381479	-72.362602	-76.197198			
13663	7.142571	-0.721578	-2.832278	0.666840	0.692046	-2.155328	177.758583	-72.308230	-75.333529			
13664	7.437170	-0.635418	-2.693790	0.657412	0.458552	-1.917800	177.162333	-72.225683	-74.467731			
13665	7.836269	-0.351048	-2.674682	0.441439	0.257756	-1.540873	176.633699	-72.133891	-73.635598			
13666	8.149878	0.010274	-2.713565	0.132916	0.114094	-1.224713	176.165815	-72.037877	-72.850264			
13667	8.662723	0.460052	-2.724016	-0.236351	-0.141239	-0.724298	175.791251	-71.939161	-72.148986			
13668	9.174227	0.799919	-2.736519	-0.499204	-0.372103	-0.225866	175.519419	-71.869850	-71.538186			
13669	9.286872	1.200727	-2.608470	-0.830938	-0.629929	-0.148083	175.343116	-71.844788	-71.018458			
13670	9.256109	1.541985	-2.453722	-1.117123	-0.853676	-0.215954	175.254635	-71.859771	-70.588305			
13671	8.971720	1.742579	-2.351963	-1.309609	-0.917581	-0.511986	175.226494	-71.897681	-70.232431			
13672	8.592882	1.620886	-2.254464	-1.205666	-0.864835	-0.905054	175.248774	-71.947503	-69.944043			
13673	8.236141	1.458890	-2.024544	-1.030725	-0.928789	-1.319389	175.331229	-71.993965	-69.721857			
13674	8.034146	1.158536	-1.767688	-0.700370	-1.024843	-1.598455	175.474882	-72.023664	-69.564568			
13675	8.049147	0.861169	-1.544713	-0.358529	-1.153673	-1.660571	175.682520	-72.033496	-69.474203			
13676	8.357945	0.524994	-1.342316	0.045851	-1.337223	-1.437581	175.981075	-72.030444	-69.465286			
13677	8.666368	0.275198	-1.132588	0.367481	-1.550890	-1.214774	176.369708	-72.027949	-69.527175			
13678	9.036218	0.129575	-0.992739	0.574625	-1.746966	-0.909123	176.850354	-72.032255	-69.656157			
13679	9.142271	0.175294	-1.101786	0.498364	-1.695987	-0.773826	177.385148	-72.049334	-69.830462			
13680	9.064604	0.557513	-1.421508	0.018266	-1.503129	-0.744127	177.915681	-72.080836	-70.022740			
13681	8.834385	1.003308	-1.937370	-0.598192	-1.111666	-0.800878	178.400386	-72.116696	-70.224021			
13682	8.680346	1.179354	-2.621179	-1.002519	-0.510505	-0.738319	178.838146	-72.134007	-70.424159			
13683	8.753932	1.264946	-3.114639	-1.242856	-0.124721	-0.519028	179.267248	-72.114563	-70.619179			
13684	9.163077	1.544438	-3.031517	-1.458869	-0.424999	-0.157203	179.710534	-72.073744	-70.813018			
13685	9.795713	1.907370	-2.629813	-1.630567	-1.107760	0.317665	-179.888717	-72.037476	-70.983906			
13686	10.403333	2.209166	-2.237498	-1.744493	-1.751226	0.770606	-179.609180	-72.035144	-71.082636			
13687	10.946534	2.263340	-1.775161	-1.601997	-2.346894	1.142960	-179.516388	-72.075681	-71.051908			
13688	11.357336	2.168022	-1.349515	-1.335858	-2.806252	1.405646	-179.613374	-72.176365	-70.870077			
13689	11.639112	2.288259	-0.934560	-1.283002	-3.272451	1.554955	-179.904184	-72.349193	-70.543923			
13690	11.657258	2.197551	-0.761136	-1.129221	-3.359560	1.533598	179.589873	-72.561587	-70.060057			
13691	11.631735	1.614756	-1.395832	-0.763848	-2.536969	1.712636	178.852487	-72.740649	-69.388218			
13692	11.458431	0.358852	-2.810146	-0.010085	-0.755842	1.966519	177.965834	-72.793290	-68.535107			
13693	12.087932	-0.270722	-3.975983	0.339743	0.347007	2.905946	177.010084	-72.677874	-67.542294			
13694	13.175901	0.013081	-4.081303	0.237910	0.046674	3.978695	175.961857	-72.535830	-66.451439			
13695	13.067197	0.630566	-3.527922	-0.096482	-0.621492	3.722425	174.736994	-72.455419	-65.250250			
13696	11.964623	1.307863	-4.138811	-0.974877	0.021675	2.877500	173.358395	-72.358587	-63.995368			
13697	10.832573	2.341069	-5.921862	-2.552720	1.606405	2.385501	171.913254	-72.166411	-62.771715			
13698	10.697263	4.061075	-7.560286	-4.573896	2.560438	2.860265	170.412594	-71.883363	-61.611375			
13699	11.138696	5.203887	-7.979273	-5.570102	2.467706	3.517801	168.820835	-71.603083	-60.503490			
13700	10.908516	4.128974	-7.660591	-4.349171	2.636726	3.181887	167.159676	-71.401438	-59.401563			
13701	9.989363	1.347537	-7.009232	-1.547829	3.217298	1.933990	165.652768	-71.231666	-58.355381			
13702	8.436621	-1.219974	-5.998079	0.996721	3.533471	-0.057560	164.550616	-71.083557	-57.485524			
13703	6.888013	-3.302049	-5.184355	2.970414	3.855928	-1.968316	163.939536	-70.975558	-56.906910			
13704	5.689474	-4.446700	-4.646320	3.998487	4.044058	-3.379240	163.896980	-70.880275	-56.733339			
13705	6.172489	-4.894152	-4.606021	4.506986	4.010167	-2.966277	164.390320	-70.731496	-56.957732			
13706	8.035389	-4.582259	-4.741353	4.477326	3.506948	-1.112135	165.271639	-70.552412	-57.454740			
13707	9.753601	-3.438576	-4.857323	3.621645	2.739776	0.671919	166.332114	-70.417342	-58.069344			
13708	10.645040	-2.047383	-4.820279	2.414385	1.972261	1.633892	167.372276	-70.381688	-58.651894			
13709	10.790470	-0.264365	-5.009478	0.639239	1.485140	1.976474	168.286669	-70.421191	-59.144651			
13710	10.377469	1.605949	-4.781517	-1.181956	0.748153	1.640556	169.063048	-70.509696	-59.578925			
13711	9.652809	3.111890	-4.154332	-2.576027	-0.134527	0.839301	169.720129	-70.627933	-60.005541			
13712	8.896917	3.778448	-3.485713	-3.159049	-0.751157	-0.063941	170.261035	-70.741961	-60.450688			
13713	8.369385	3.545375	-3.242020	-2.982921	-0.738399	-0.664800	170.768709	-70.817444	-60.944856			
13714	7.994946	2.831571	-3.109890	-2.361182	-0.504709	-1.107609	171.311088	-70.854180	-61.521876			
13715	7.889526	1.849818	-3.193217	-1.510482	-0.068070	-1.234994	171.904326	-70.862988	-62.184114			
13716	7.921332	1.084887	-3.386667	-0.875511	0.347481	-1.180964	172.546784	-70.859885	-62.924533			
13717	7.903955	0.410821	-3.519566	-0.314069	0.687753	-1.183846	173.230830	-70.853069	-63.736923			
13718	7.805227	-0.106120	-3.482135	0.141164	0.843208	-1.308154	173.940026	-70.846766	-64.602217			
13719	7.741366	-0.425431	-3.465314	0.409803	0.937296	-1.382291	174.678966	-70.836045	-65.499932			
13720	7.722632	-0.449115	-3.268300	0.460249	0.757309	-1.461814	175.440611	-70.832686	-66.412454			
13721	7.834966	-0.401760	-3.166362	0.429983	0.601393	-1.384918	176.191033	-70.848364	-67.309422			
13722	7.918698	-0.226438	-3.080848	0.268158	0.431015	-1.327942	176.908611	-70.885840	-68.178534			
13723	7.848270	-0.193595	-3.050629	0.205383	0.406063	-1.402456	177.605953	-70.920630	-69.031444			
13724	7.676939	-0.240079	-3.038374	0.202469	0.454937	-1.567889	178.266321	-70.956888	-69.852533			
13725	7.551327	-0.258955	-2.903288	0.218398	0.371282	-1.729800	178.884574	-70.982971	-70.630080			
13726	7.389052	-0.436128	-2.836405	0.363262	0.409310	-1.904847	179.472451	-70.995095	-71.373805			
13727	7.296012	-0.553357	-2.646334	0.498640	0.293392	-2.053415	-179.999585	-70.970409	-72.060833			
13728	7.490625	-0.581532	-2.508200	0.566618	0.103713	-1.912887	-179.540869	-70.913765	-72.684185			
13729	7.784507	-0.706756	-2.505451	0.700665	0.030355	-1.634457	-179.183088	-70.829339	-73.224084			
13730	8.098820	-0.755161	-2.528839	0.759028	-0.052818	-1.328748	-178.894438	-70.725664	-73.691441			
13731	8.331006	-0.805277	-2.595680	0.801920	-0.072543	-1.086674	-178.686476	-70.619630	-74.078909			
13732	8.504948	-0.779633	-2.580133	0.793271	-0.169082	-0.927804	-178.563210	-70.527087	-74.375702			
13733	8.547864	-0.656220	-2.479221	0.705737	-0.326018	-0.922312	-178.515756	-70.450789	-74.591375			
13734	8.474366	-0.548610	-2.340531	0.635214	-0.470013	-1.039460	-178.540222	-70.398690	-74.734340			
13735	8.334523	-0.369522	-2.168213	0.501633	-0.638535	-1.231161	-178.648070	-70.365527	-74.795875			
13736	8.159588	-0.204063	-1.917760	0.400636	-0.857791	-1.481901	-178.823813	-70.347696	-74.800782			
13737	8.081748	0.125279	-1.693369	0.145156	-1.127926	-1.633167	-179.083067	-70.335651	-74.745315			
13738	8.104060	0.374186	-1.724336	-0.090059	-1.174150	-1.602792	-179.413998	-70.324023	-74.645805			
13739	8.165654	0.419243	-1.927351	-0.166911	-1.020123	-1.476033	-179.812353	-70.299369	-74.502928			
13740	8.390432	0.218160	-2.304602	-0.031748	-0.695512	-1.136666	179.770776	-70.260383	-74.345071			
13741	8.668414	0.011280	-2.662757	0.123803	-0.407685	-0.754529	179.372294	-70.201441	-74.193601			
13742	8.999140	-0.131655	-2.872935	0.262332	-0.293259	-0.373368	179.011494	-70.116617	-74.067916			
13743	9.314726	-0.200820	-2.900385	0.374098	-0.364903	-0.068790	178.681053	-70.010359	-73.973046			
13744	9.553888	-0.336760	-2.936576	0.541099	-0.389886	0.165730	178.373023	-69.904681	-73.906528			
13745	9.775523	-0.428718	-2.938241	0.671283	-0.452519	0.371736	178.086834	-69.813253	-73.859061			
13746	10.035761	-0.633429	-2.998724	0.898848	-0.445873	0.632566	177.845069	-69.737238	-73.856406			
13747	10.283362	-0.948371	-2.997981	1.243361	-0.464436	0.858449	177.652861	-69.676474	-73.884598			
13748	10.523550	-1.241157	-2.783963	1.608120	-0.680169	1.003381	177.537604	-69.637877	-73.960538			
13749	10.706008	-1.165799	-2.361070	1.647480	-1.152009	1.027563	177.501452	-69.637883	-74.096364			
13750	10.696779	-0.735756	-1.775539	1.349065	-1.784925	0.822585	177.526620	-69.678855	-74.303320			
13751	10.641598	-0.238613	-1.295854	0.949174	-2.315222	0.614132	177.597606	-69.744121	-74.586663			
13752	10.638391	0.095401	-1.184540	0.628052	-2.483155	0.580918	177.708644	-69.832141	-74.932682			
13753	10.775191	0.346821	-1.250823	0.358117	-2.513144	0.739344	177.878928	-69.919943	-75.347812			
13754	11.255557	0.241058	-1.593695	0.405751	-2.326066	1.309823	178.128236	-69.986293	-75.857415			
13755	12.031860	-0.321457	-2.188073	0.868997	-1.914369	2.238726	178.486418	-70.032337	-76.471040			
13756	12.523049	-0.190963	-2.749645	0.630173	-1.589858	2.895531	178.981372	-70.075746	-77.210990			
13757	12.864927	-0.367772	-3.687160	0.602084	-0.808630	3.537224	179.549670	-70.103343	-78.064798			
13758	13.111751	-1.187278	-4.654760	1.191601	0.156239	4.099533	-179.835533	-70.133146	-78.971569			
13759	13.038774	-1.748446	-5.080462	1.603218	0.674389	4.182038	-179.064658	-70.185559	-79.928543			
13760	12.437913	-1.936609	-5.307537	1.641090	1.112909	3.703592	-178.065135	-70.214289	-80.966379			
13761	11.655889	-3.059642	-6.275071	2.439480	2.461624	3.324516	-176.793550	-70.156427	-82.122082			
13762	10.967140	-4.784488	-7.784155	3.708838	4.383677	3.255930	-175.251512	-70.033091	-83.369108			
13763	11.101378	-4.911819	-8.252953	3.607150	4.768507	3.593482	-173.593221	-69.917989	-84.625041			
13764	10.745349	-3.480493	-7.152401	2.268675	3.585767	2.865131	-172.088501	-69.908901	-85.739616			
13765	9.503285	-0.511725	-5.441575	-0.422371	1.843655	0.985783	-170.902395	-69.978757	-86.628566			
13766	7.584300	2.907464	-4.111551	-3.579008	0.581452	-1.462102	-170.208552	-70.062983	-87.237248			
13767	5.611870	4.713951	-3.909931	-5.349444	0.711870	-3.497736	-170.176426	-70.120073	-87.502483			
13768	4.503696	4.584355	-4.588748	-5.366997	1.770373	-4.297516	-170.668753	-70.082197	-87.459275			
13769	4.949650	3.977966	-5.174361	-4.846398	2.304914	-3.624251	-171.459383	-69.899238	-87.186648			
13770	6.636203	3.062614	-5.327464	-3.892910	2.047178	-1.909869	-172.417821	-69.611562	-86.762336			
13771	8.704791	1.801979	-5.328005	-2.542061	1.541338	0.115544	-173.443587	-69.343249	-86.285731			
13772	10.357144	0.441150	-5.346763	-1.089001	1.193030	1.739071	-174.408509	-69.216044	-85.834655			
13773	10.827441	-0.980411	-5.256335	0.412771	1.174168	2.198737	-175.209919	-69.256722	-85.453420			
13774	10.133617	-2.373013	-4.985574	1.868072	1.409002	1.487846	-175.864324	-69.442777	-85.103746			
13775	8.745448	-3.656301	-4.553128	3.201068	1.726259	0.054192	-176.411019	-69.710814	-84.751338			
13776	7.731501	-4.049563	-4.140453	3.645501	1.792833	-1.048311	-176.840782	-69.976853	-84.395355			
13777	7.136803	-3.698562	-3.663983	3.363441	1.537060	-1.790052	-177.145196	-70.174839	-84.042123			
13778	7.298575	-2.740628	-3.240804	2.493130	0.973836	-1.805258	-177.393989	-70.294147	-83.666756			
13779	7.802010	-1.556730	-3.131958	1.366881	0.542592	-1.390031	-177.648975	-70.361793	-83.261189			
13780	8.287356	-0.474395	-3.335277	0.297957	0.414407	-0.881346	-177.952781	-70.414583	-82.812763			
13781	8.543356	0.579937	-3.537488	-0.747136	0.360868	-0.584979	-178.344155	-70.477156	-82.281896			
13782	8.490179	1.351183	-3.577943	-1.496240	0.304828	-0.626894	-178.830766	-70.575507	-81.674487			
13783	8.086889	1.726258	-3.396567	-1.833890	0.224499	-1.066215	-179.378285	-70.703538	-81.019563			
13784	7.831927	1.682100	-3.272322	-1.759789	0.219009	-1.343229	-179.958717	-70.835296	-80.342883			
13785	7.693680	1.365338	-3.292256	-1.434518	0.355418	-1.463343	179.460347	-70.960879	-79.676026			
13786	7.697754	0.956541	-3.352110	-1.018429	0.499008	-1.438874	178.907080	-71.071677	-79.042117			
13787	7.599634	0.510766	-3.297303	-0.556126	0.573554	-1.551378	178.409603	-71.164804	-78.449917			
13788	7.614071	0.122001	-3.182149	-0.136341	0.545337	-1.578672	177.977000	-71.245371	-77.896548			
13789	7.567126	-0.100777	-3.161346	0.097923	0.594016	-1.633251	177.590286	-71.309034	-77.363587			
13790	7.601886	-0.197175	-3.106877	0.217484	0.561032	-1.620121	177.233522	-71.346387	-76.841689			
13791	7.802873	-0.273217	-3.093177	0.322694	0.507238	-1.436186	176.879201	-71.353631	-76.303635			
13792	8.142519	-0.056421	-2.996744	0.167549	0.276038	-1.142049	176.502622	-71.339191	-75.730307			
13793	8.512131	0.293676	-2.861316	-0.104886	-0.029743	-0.828377	176.119437	-71.312336	-75.142618			
13794	8.868018	0.451701	-2.797385	-0.199414	-0.229456	-0.507920	175.757364	-71.290567	-74.565326			
13795	9.075339	0.545619	-2.732028	-0.242512	-0.371546	-0.329726	175.427427	-71.281941	-74.008215			
13796	9.116309	0.616122	-2.626143	-0.271276	-0.492777	-0.322331	175.150198	-71.298797	-73.483201			
13797	8.948064	0.704418	-2.438595	-0.323987	-0.627131	-0.538394	174.932965	-71.335878	-73.002534			
13798	8.699429	0.735286	-2.291789	-0.338963	-0.685423	-0.818895	174.768669	-71.391819	-72.564339			
13799	8.357485	0.631235	-2.118652	-0.229022	-0.710897	-1.200088	174.668341	-71.447263	-72.177956			
13800	8.043694	0.480995	-1.928179	-0.070581	-0.751470	-1.561593	174.635711	-71.498468	-71.846945			
13801	7.880499	0.264682	-1.728604	0.166661	-0.832249	-1.785236	174.690710	-71.535883	-71.596368			
13802	7.906185	0.091945	-1.581307	0.367198	-0.931489	-1.811797	174.834518	-71.569403	-71.419060			
13803	8.113116	-0.123445	-1.383516	0.635760	-1.121593	-1.683121	175.098839	-71.595227	-71.339274			
13804	8.393870	-0.102792	-1.324664	0.649805	-1.262989	-1.433847	175.460989	-71.607019	-71.333358			
13805	8.763763	0.264645	-1.305079	0.325859	-1.484945	-1.079672	175.903908	-71.608862	-71.402530			
13806	8.913736	0.926102	-1.732585	-0.411747	-1.310640	-0.789004	176.356521	-71.618069	-71.524197			
13807	8.936405	1.462536	-2.361441	-1.094031	-0.887213	-0.561165	176.760949	-71.634652	-71.669866			
13808	8.905820	1.543746	-3.041057	-1.358118	-0.285338	-0.377706	177.114794	-71.637525	-71.797539			
13809	8.941523	1.502439	-3.296862	-1.393874	-0.063320	-0.266456	177.439079	-71.612263	-71.874694			
13810	9.007525	1.470016	-3.195799	-1.344448	-0.182247	-0.238305	177.747830	-71.576445	-71.936378			
13811	9.339428	1.647986	-2.971949	-1.436771	-0.550208	0.005979	177.996559	-71.549298	-71.977578			
13812	9.913911	1.898045	-2.621751	-1.536060	-1.121795	0.441282	178.109926	-71.545406	-71.950931			
13813	10.463359	1.960566	-2.114323	-1.407892	-1.767402	0.802877	178.015206	-71.580460	-71.788891			
13814	11.097846	1.801219	-1.525844	-1.027616	-2.435403	1.221239	177.703968	-71.670367	-71.458692			
13815	11.607284	1.576363	-1.086201	-0.627687	-2.895399	1.572229	177.219009	-71.819553	-70.966440			
13816	11.672828	1.607563	-0.770489	-0.545254	-3.168508	1.549346	176.601777	-72.014674	-70.355227			
13817	11.405943	1.369536	-0.866155	-0.343883	-2.885001	1.335388	175.871109	-72.227130	-69.647863			
13818	11.247781	0.875492	-1.282074	0.033277	-2.267008	1.313050	175.069133	-72.414435	-68.877150			
13819	11.204515	0.160037	-2.017432	0.556809	-1.332455	1.481163	174.233760	-72.537508	-68.039380			
13820	11.478154	-0.502492	-2.837213	1.050372	-0.435649	1.966828	173.410967	-72.552907	-67.129037			
13821	12.111751	-0.652603	-3.306498	1.197151	-0.121414	2.701510	172.588785	-72.459682	-66.138198			
13822	12.724724	-0.252943	-2.907223	1.058609	-0.765386	3.176833	171.704244	-72.345872	-65.069123			
13823	12.389383	0.054699	-2.593509	0.877042	-1.042653	2.771799	170.700973	-72.236971	-63.932856			
13824	11.496599	0.623665	-3.319757	0.095412	-0.294811	2.165836	169.616989	-72.085671	-62.777985			
13825	10.949645	2.321433	-5.263697	-2.038231	1.125506	2.335089	168.460676	-71.866830	-61.619643			
13826	11.151598	4.432013	-7.247791	-4.448368	2.250300	3.289923	167.161488	-71.620476	-60.434836			
13827	11.548080	4.910756	-7.918280	-4.898783	2.629386	3.944473	165.649772	-71.436822	-59.178803			
13828	10.920685	3.538426	-7.285683	-3.404393	2.671575	3.076619	164.004910	-71.334180	-57.858219			
13829	9.426195	1.111750	-6.620763	-1.067873	3.218289	1.251894	162.485352	-71.237424	-56.598096			
13830	8.106346	-0.936122	-6.275908	0.814378	3.870449	-0.308358	161.384601	-71.106516	-55.539771			
13831	6.549567	-2.004647	-5.831589	1.691604	4.196760	-2.037822	160.792115	-71.002942	-54.753221			
13832	5.453988	-2.964449	-5.050811	2.588419	4.060720	-3.420877	160.679931	-70.925762	-54.280350			
13833	5.626404	-3.732798	-4.748239	3.400893	3.977684	-3.429286	160.977448	-70.844237	-54.126583			
13834	6.878013	-3.890731	-4.707881	3.762593	3.664037	-2.261097	161.610949	-70.748208	-54.268581			
13835	8.591680	-3.361793	-4.713821	3.543122	3.043049	-0.564738	162.446584	-70.664095	-54.596214			
13836	9.738344	-2.206728	-4.789161	2.598682	2.421646	0.676508	163.283992	-70.637535	-54.924072			
13837	10.076661	-0.584212	-4.896922	1.050985	1.882621	1.196906	163.986554	-70.675750	-55.141978			
13838	9.888303	1.067785	-4.635541	-0.507511	1.131614	1.090002	164.552169	-70.750529	-55.268110			
13839	9.523808	2.547983	-4.077354	-1.832681	0.208431	0.695294	165.006134	-70.842203	-55.342841			
13840	9.002896	3.513180	-3.574390	-2.705735	-0.449302	0.119478	165.340152	-70.950754	-55.378567			
13841	8.650287	3.574380	-3.300101	-2.764200	-0.628389	-0.301714	165.592468	-71.057517	-55.394137			
13842	8.395636	3.065775	-3.023613	-2.268796	-0.627161	-0.675559	165.803104	-71.174344	-55.428540			
13843	8.187664	2.074359	-2.858430	-1.350103	-0.360613	-1.005952	166.039824	-71.280275	-55.533644			
13844	8.331938	0.939990	-3.042392	-0.348320	0.178238	-0.901583	166.354440	-71.369431	-55.753858			
13845	8.600556	-0.120900	-3.320153	0.573330	0.740481	-0.640418	166.745610	-71.446468	-56.070214			
13846	8.859532	-0.800386	-3.595818	1.134568	1.164235	-0.356522	167.209783	-71.527025	-56.463553			
13847	8.768332	-1.177840	-3.720585	1.397677	1.436432	-0.426699	167.731521	-71.629926	-56.907635			
13848	8.565621	-1.308358	-3.797549	1.423835	1.607081	-0.598952	168.316284	-71.741642	-57.389262			
13849	8.338442	-1.135269	-3.726611	1.210292	1.541403	-0.820178	168.952957	-71.860456	-57.884702			
13850	8.152700	-0.717544	-3.441784	0.847841	1.185555	-1.054676	169.575328	-71.994893	-58.341188			
13851	7.868749	-0.503988	-3.089048	0.685822	0.872203	-1.417317	170.131082	-72.139573	-58.714236			
13852	7.728967	-0.323411	-2.784458	0.567559	0.577068	-1.631030	170.629721	-72.267879	-59.011469			
13853	7.799670	-0.167705	-2.573334	0.479712	0.317335	-1.617924	171.078675	-72.368221	-59.250607			
13854	7.947757	-0.042879	-2.348145	0.443016	0.034655	-1.537123	171.462597	-72.442751	-59.434880			
13855	8.085108	0.097040	-2.193776	0.371370	-0.189817	-1.445066	171.776765	-72.499467	-59.581704			
13856	8.189355	0.106397	-1.969647	0.444678	-0.417996	-1.411265	172.015189	-72.540336	-59.681200			
13857	8.221781	0.025262	-1.944384	0.523138	-0.416539	-1.390587	172.210286	-72.577151	-59.763485			
13858	8.246108	-0.030081	-1.968065	0.560474	-0.379771	-1.362000	172.394488	-72.600760	-59.848187			
13859	8.298835	-0.088910	-1.963164	0.616682	-0.376333	-1.315003	172.584582	-72.606646	-59.938232			
13860	8.222285	-0.155062	-1.819572	0.711115	-0.460654	-1.432773	172.792821	-72.602664	-60.039818			
13861	8.176240	-0.127205	-1.597519	0.752733	-0.660163	-1.541247	173.022232	-72.592700	-60.159110			
13862	7.948514	-0.078395	-1.435693	0.726322	-0.768158	-1.804653	173.275624	-72.579539	-60.306646			
13863	7.543090	0.045402	-1.468541	0.533664	-0.689518	-2.177463	173.546606	-72.551778	-60.484961			
13864	7.003186	0.309574	-1.536735	0.180422	-0.603043	-2.663857	173.839346	-72.490367	-60.708972			
13865	6.721125	0.669104	-1.493322	-0.178600	-0.724797	-2.935626	174.139502	-72.374580	-60.974614			
13866	6.957927	1.057091	-1.439853	-0.480549	-1.009159	-2.716633	174.408813	-72.199943	-61.265214			
13867	7.605744	1.355508	-1.308317	-0.608008	-1.443145	-2.135187	174.624513	-71.980588	-61.569391			
13868	8.537390	1.621089	-1.284488	-0.700949	-1.853132	-1.254689	174.758880	-71.741539	-61.865256			
13869	9.558094	1.611703	-1.406561	-0.579506	-2.056699	-0.254066	174.805208	-71.515537	-62.140526			
13870	10.283178	1.457399	-1.874966	-0.491496	-1.818101	0.571731	174.773974	-71.329506	-62.391661			
13871	10.697948	1.111413	-2.461344	-0.311105	-1.311312	1.138257	174.707075	-71.186383	-62.640954			
13872	10.882764	0.772790	-3.077807	-0.177766	-0.711102	1.499579	174.626691	-71.081249	-62.908012			
13873	11.123843	0.410367	-3.192313	0.162974	-0.557567	1.752851	174.540997	-71.007928	-63.222797			
13874	11.403726	-0.107943	-3.107327	0.721221	-0.532555	1.973250	174.417094	-70.979533	-63.571521			
13875	11.521610	-0.870840	-2.858985	1.534371	-0.517947	1.979559	174.308278	-71.009521	-63.967651			
13876	11.569771	-1.572600	-2.712134	2.239071	-0.419384	1.955872	174.315776	-71.092156	-64.460963			
13877	11.570704	-2.213796	-2.669451	2.836759	-0.241188	1.926249	174.495109	-71.218792	-65.093118			
13878	11.304485	-2.710623	-2.693501	3.232173	0.022774	1.674098	174.821982	-71.392323	-65.827696			
13879	11.054719	-2.560558	-2.793498	2.990459	0.138815	1.483535	175.252896	-71.606204	-66.627115			
13880	10.866862	-1.945358	-3.080444	2.257785	0.263318	1.420974	175.726698	-71.827654	-67.463122			
13881	11.009512	-1.691775	-3.728872	1.803565	0.738608	1.770811	176.236772	-71.997340	-68.310445			
13882	11.778653	-1.466527	-4.160973	1.509235	0.840399	2.645916	176.952230	-72.082440	-69.223513			
13883	12.495403	-1.111753	-4.253785	1.164535	0.594956	3.368937	177.984535	-72.101816	-70.284970			
13884	12.444999	-1.772595	-4.901609	1.524043	1.369737	3.523212	179.297540	-72.075026	-71.528702			
13885	12.205006	-3.287918	-6.721560	2.316771	3.505964	3.872756	-179.107303	-71.963805	-72.924531			
13886	12.755390	-4.193956	-8.017586	2.716901	4.737110	4.841555	-177.323219	-71.836732	-74.335848			
13887	12.874480	-3.093974	-6.782837	1.906973	3.201215	4.590285	-175.637988	-71.814209	-75.621477			
13888	11.700516	-0.977980	-4.848087	0.288156	1.129769	2.836514	-174.334528	-71.900453	-76.642966			
13889	10.078917	1.363334	-3.844765	-1.802438	-0.027509	0.909984	-173.520548	-72.035042	-77.369764			
13890	8.691150	3.058487	-4.233967	-3.658759	0.213011	-0.358327	-173.211334	-72.173939	-77.774782			
13891	7.822597	4.288380	-4.844992	-5.078954	0.661859	-1.047803	-173.372978	-72.292063	-77.871858			
13892	6.800122	5.165975	-4.987114	-6.004316	0.866920	-2.002659	-173.946248	-72.394747	-77.712307			
13893	5.911170	5.552528	-4.835216	-6.350678	0.934943	-2.888380	-174.787477	-72.416860	-77.419846			
13894	5.731813	4.797765	-4.735312	-5.570021	1.185316	-3.040334	-175.759948	-72.311211	-77.107374			
13895	6.417673	3.256393	-4.628152	-3.965179	1.376198	-2.356587	-176.701698	-72.121284	-76.873859			
13896	7.447789	1.563729	-4.905143	-2.282190	1.814505	-1.240987	-177.560672	-71.938555	-76.713741			
13897	8.237240	-0.198194	-5.372520	-0.585610	2.480236	-0.312134	-178.244746	-71.829672	-76.654773			
13898	8.275847	-1.696453	-5.359228	0.924257	2.840275	-0.264530	-178.731962	-71.809916	-76.677016			
13899	7.881158	-2.571873	-4.911117	1.891811	2.762227	-0.777351	-179.030514	-71.833040	-76.779614			
13900	7.344817	-2.770740	-4.349491	2.202590	2.449616	-1.464673	-179.158117	-71.848097	-76.954082			
13901	7.072622	-2.266117	-4.082005	1.767732	2.155360	-1.809590	-179.141471	-71.820140	-77.184259			
13902	7.403835	-1.314441	-3.959601	0.899115	1.706131	-1.535994	-179.061029	-71.758320	-77.423780			
13903	7.879405	-0.271125	-3.881168	-0.061838	1.233377	-1.112288	-179.026536	-71.680580	-77.608640			
13904	8.415661	0.524554	-3.702456	-0.754543	0.711815	-0.662241	-179.104662	-71.623294	-77.702044			
13905	8.867410	0.998633	-3.551974	-1.142581	0.323904	-0.281982	-179.325743	-71.600080	-77.677734			
13906	9.004501	1.221593	-3.484633	-1.320264	0.175733	-0.172046	-179.681360	-71.608733	-77.536665			
13907	9.250724	1.152658	-3.469333	-1.212105	0.112406	0.059440	179.874868	-71.630647	-77.319072			
13908	9.238149	0.904849	-3.511639	-0.956518	0.222663	0.062999	179.424609	-71.657110	-77.079812			
13909	9.100865	0.746267	-3.415980	-0.769624	0.221705	-0.096204	179.018075	-71.678374	-76.862291			
13910	8.786688	0.586138	-3.350928	-0.603572	0.301120	-0.414647	178.678285	-71.696524	-76.694588			
13911	8.472828	0.475774	-3.289618	-0.490797	0.368634	-0.731940	178.419084	-71.687683	-76.588192			
13912	8.289601	0.578153	-3.196229	-0.573385	0.317934	-0.933624	178.202669	-71.658297	-76.515207			
13913	8.177092	0.753806	-3.126537	-0.728750	0.249495	-1.059690	178.016478	-71.610380	-76.463007			
13914	8.109213	0.971314	-3.087033	-0.928629	0.185338	-1.133065	177.848636	-71.546350	-76.433038			
13915	8.150104	1.100371	-3.132840	-1.049768	0.182964	-1.076888	177.684846	-71.466467	-76.414570			
13916	8.162966	1.162698	-3.032915	-1.080505	0.065827	-1.094166	177.517753	-71.377017	-76.399833			
13917	8.315194	1.104192	-2.980786	-0.990139	-0.028647	-0.965905	177.326673	-71.270898	-76.354831			
13918	8.620382	0.913147	-2.891799	-0.750193	-0.181756	-0.707114	177.115853	-71.161123	-76.276353			
13919	8.849404	0.789503	-2.823669	-0.584994	-0.305764	-0.513621	176.897524	-71.063814	-76.167265			
13920	8.848018	0.570635	-2.806579	-0.354107	-0.289096	-0.523934	176.704121	-70.999272	-76.064530			
13921	8.704612	0.274400	-2.754169	-0.054399	-0.243512	-0.682038	176.539812	-70.949164	-75.959643			
13922	8.510967	0.020395	-2.713030	0.195328	-0.177956	-0.883651	176.423253	-70.909399	-75.859430			
13923	8.501842	-0.326606	-2.603862	0.560225	-0.216464	-0.935336	176.350105	-70.871516	-75.755033			
13924	8.466996	-0.522704	-2.507495	0.769825	-0.262077	-1.004200	176.346417	-70.840158	-75.670207			
13925	8.557828	-0.789143	-2.398410	1.057064	-0.345390	-0.959730	176.439407	-70.812619	-75.626727			
13926	8.659002	-0.897305	-2.229775	1.195395	-0.515722	-0.921095	176.649155	-70.792929	-75.643120			
13927	8.799143	-0.823861	-2.127926	1.141713	-0.670387	-0.819424	176.994688	-70.788350	-75.732774			
13928	8.889631	-0.644768	-2.179936	0.946303	-0.686053	-0.711743	177.465272	-70.804506	-75.901027			
13929	8.895912	-0.110654	-2.315000	0.374639	-0.671695	-0.652058	178.041043	-70.830042	-76.145993			
13930	8.990846	0.679289	-2.547362	-0.463336	-0.654527	-0.477665	178.640348	-70.859258	-76.436160			
13931	9.047174	1.204171	-2.868066	-1.064454	-0.494044	-0.317954	179.203322	-70.887046	-76.742643			
13932	9.188583	1.366577	-3.103930	-1.289296	-0.363601	-0.110244	179.748819	-70.912985	-77.041034			
13933	9.418147	1.540151	-3.111625	-1.472750	-0.475207	0.105018	-179.701070	-70.948113	-77.331220			
13934	9.522254	1.511805	-2.959547	-1.434941	-0.645265	0.149355	-179.177215	-71.017199	-77.623221			
13935	9.377713	1.313030	-2.944733	-1.276684	-0.564241	0.005085	-178.703785	-71.114162	-77.911014			
13936	9.216487	1.294167	-2.904286	-1.286125	-0.536926	-0.163288	-178.307247	-71.224355	-78.164172			
13937	9.273240	1.508087	-2.771088	-1.481743	-0.716236	-0.156724	-178.004804	-71.325898	-78.358689			
13938	9.404087	1.709426	-2.471265	-1.617640	-1.066934	-0.132243	-177.797803	-71.442520	-78.495885			
13939	9.608177	1.567276	-2.101122	-1.394503	-1.419139	-0.054127	-177.686083	-71.589347	-78.567138			
13940	9.800956	1.221263	-1.749488	-0.975485	-1.695721	0.025189	-177.613438	-71.766681	-78.588005			
13941	9.957628	0.843326	-1.452493	-0.539123	-1.898595	0.090842	-177.524064	-71.961598	-78.586353			
13942	10.129176	0.479209	-1.385876	-0.168388	-1.892761	0.244126	-177.412895	-72.167636	-78.565081			
13943	10.437889	0.145479	-1.578200	0.120302	-1.692644	0.607570	-177.289567	-72.378254	-78.526703			
13944	10.722706	-0.399387	-2.095663	0.533136	-1.128574	1.048697	-177.149944	-72.591041	-78.455550			
13945	10.678180	-0.643288	-2.590101	0.636621	-0.560994	1.161184	-177.012482	-72.773349	-78.302209			
13946	10.737410	-0.426258	-2.973750	0.327221	-0.249115	1.329470	-176.956621	-72.885444	-78.029152			
13947	10.975679	-0.086612	-3.325498	-0.074147	-0.064255	1.655631	-177.095675	-72.929958	-77.569755			
13948	10.944066	0.700994	-3.739227	-0.928712	0.125083	1.735802	-177.450830	-72.938065	-76.907656			
13949	10.930533	1.839689	-4.601879	-2.224270	0.613466	1.965024	-178.045151	-72.906639	-76.040794			
13950	11.166171	3.089668	-5.720966	-3.660920	1.218684	2.519022	-178.922464	-72.802804	-75.001548			
13951	12.207005	3.655063	-6.453761	-4.246959	1.419173	3.750868	179.891361	-72.648007	-73.820472			
13952	13.053360	3.014819	-5.897676	-3.314385	0.840551	4.419991	178.458519	-72.533955	-72.548013			
13953	12.665378	1.698741	-4.749577	-1.678126	0.280570	3.713591	176.977020	-72.508762	-71.292812			
13954	11.671770	0.839630	-4.244960	-0.727243	0.371547	2.608555	175.613715	-72.569050	-70.132033			
13955	10.460848	0.283557	-4.354464	-0.274164	1.007854	1.473575	174.475618	-72.684177	-69.154474			
13956	9.139672	-0.511988	-4.670652	0.318506	1.922816	0.277497	173.642324	-72.831145	-68.428125			
13957	7.850479	-1.523980	-4.833714	1.134627	2.731605	-0.948818	173.205928	-72.978816	-67.997122			
13958	6.643613	-2.259949	-4.877300	1.697735	3.319374	-2.122926	173.213947	-73.085604	-67.856687			
13959	5.820527	-2.611175	-4.862281	1.925574	3.634288	-2.926283	173.612162	-73.105830	-67.932650			
13960	5.524045	-2.446060	-4.791776	1.713202	3.606547	-3.215948	174.269932	-73.044431	-68.126520			
13961	5.537792	-1.962277	-4.700918	1.227185	3.376051	-3.201154	175.056033	-72.928362	-68.369376			
13962	5.675068	-1.116181	-4.746502	0.370922	3.117514	-3.021163	175.849890	-72.782704	-68.582111			
13963	5.863851	-0.655526	-4.837032	-0.120073	2.983762	-2.791731	176.551503	-72.614768	-68.715686			
13964	6.178271	-0.187594	-4.724795	-0.537648	2.617889	-2.506026	177.110384	-72.432210	-68.754615			
13965	6.521978	0.007176	-4.617889	-0.680703	2.328453	-2.198493	177.475808	-72.241926	-68.681222			
13966	7.401510	0.147753	-4.570846	-0.716539	1.956962	-1.365583	177.631119	-72.047283	-68.489589			
13967	8.171798	0.077619	-4.630417	-0.583840	1.781419	-0.608847	177.614921	-71.869433	-68.217685			
13968	8.881575	0.161272	-4.598651	-0.563505	1.495888	0.061558	177.452521	-71.739286	-67.865817			
13969	9.328401	0.317425	-4.689676	-0.673281	1.378865	0.519703	177.230154	-71.644996	-67.524854			
13970	9.524792	0.542517	-4.638193	-0.829623	1.189494	0.695673	177.004477	-71.575574	-67.260142			
13971	9.533897	0.602378	-4.711435	-0.892234	1.225869	0.730406	176.795497	-71.520551	-67.083965			
13972	9.665804	0.596689	-4.635903	-0.833049	1.117654	0.833075	176.668796	-71.471956	-67.033043			
13973	9.815738	0.410213	-4.471000	-0.578933	0.984775	0.920526	176.669481	-71.439173	-67.135622			
13974	9.789956	0.170541	-4.339042	-0.316010	0.950353	0.850172	176.829253	-71.425867	-67.406118			
13975	9.868924	-0.090797	-4.332269	-0.068122	1.000677	0.918875	177.155131	-71.408535	-67.842027			
13976	10.009151	-0.258660	-4.227195	0.121343	0.909329	1.016787	177.608540	-71.389791	-68.404244			
13977	10.040398	-0.469384	-4.023589	0.362255	0.773022	0.980380	178.148149	-71.379009	-69.060305			
13978	9.934701	-0.698871	-3.906133	0.573863	0.762451	0.842539	178.718241	-71.396517	-69.751952			
13979	9.588257	-0.984076	-3.743611	0.825116	0.802979	0.463111	179.282385	-71.414724	-70.435690			
13980	9.155373	-1.232160	-3.650935	1.013806	0.920533	0.025664	179.826269	-71.431704	-71.092555			
13981	8.705631	-1.435612	-3.495832	1.182512	0.971703	-0.446406	-179.667827	-71.431844	-71.695000			
