// General information: 
//  MT Manager version: 2022.0.0 
//  XDA version: 2022.0.0 build 7085 rev 119802 built on 2022-11-08
// Device information: 
//  DeviceId: 00B492A5
//  ProductCode: MTW2-3A7G6
//  Firmware Version: 4.6.0
//  Hardware Version: 2.0.0
// Device settings: 
//  Filter Profile: human(46.1)
//  Option Flags: Orientation Smoother Disabled, Position/Velocity Smoother Disabled, Continuous Zero Rotation Update Disabled, AHS Disabled, ICC Disabled
// Coordinate system: ENU
PacketCounter	Acc_X	Acc_Y	Acc_Z	FreeAcc_E	FreeAcc_N	FreeAcc_U	Roll	Pitch	Yaw	Vel_E	Vel_N	Vel_U
12890	9.224870	-1.678830	-1.797093	0.038795	-0.042257	-0.265806	-138.099000	-74.914230	-112.490240			
12891	9.207616	-1.653612	-1.695125	0.044916	-0.143128	-0.306607	-137.980687	-74.876913	-112.551796			
12892	9.237595	-1.636429	-1.583708	0.056502	-0.261649	-0.302296	-137.833662	-74.837194	-112.632310			
12893	9.290278	-1.607065	-1.449732	0.061362	-0.410569	-0.282666	-137.667806	-74.791894	-112.721728			
12894	9.362421	-1.471308	-1.451890	-0.082986	-0.472768	-0.236819	-137.479041	-74.743451	-112.824906			
12895	9.498739	-1.348044	-1.406313	-0.206221	-0.591282	-0.136489	-137.289018	-74.691968	-112.936503			
12896	9.630155	-1.259457	-1.361523	-0.297664	-0.696337	-0.034837	-137.066073	-74.647819	-113.092186			
12897	9.589788	-1.144014	-1.314786	-0.395807	-0.768427	-0.104221	-136.835033	-74.615084	-113.259191			
12898	9.720730	-1.109881	-1.178744	-0.404970	-0.935809	-0.010947	-136.565329	-74.594270	-113.464636			
12899	9.886950	-1.117504	-0.997875	-0.363958	-1.137397	0.115565	-136.260296	-74.582320	-113.703340			
12900	9.990104	-1.130415	-0.879558	-0.334437	-1.261341	0.194849	-135.897707	-74.586214	-113.991867			
12901	10.017151	-1.165397	-0.772925	-0.281300	-1.345609	0.207745	-135.481211	-74.605147	-114.326741			
12902	10.087289	-1.169573	-0.724329	-0.282661	-1.393077	0.268253	-135.031262	-74.642030	-114.699632			
12903	10.001243	-1.179953	-0.775249	-0.296887	-1.306604	0.198444	-134.541866	-74.694847	-115.123505			
12904	9.910857	-1.191853	-0.682941	-0.257674	-1.345901	0.098625	-134.034124	-74.769691	-115.574343			
12905	9.781495	-1.211169	-0.649407	-0.227053	-1.317166	-0.025974	-133.510950	-74.859748	-116.043489			
12906	9.739197	-1.244108	-0.560013	-0.172670	-1.353044	-0.073449	-132.971116	-74.963540	-116.526091			
12907	9.817011	-1.209108	-0.390730	-0.165063	-1.510870	-0.031160	-132.433926	-75.075220	-117.000805			
12908	9.977231	-1.255961	-0.199277	-0.082619	-1.677530	0.104029	-131.854678	-75.207736	-117.526615			
12909	10.119653	-1.280101	-0.023639	-0.025213	-1.827645	0.222528	-131.194973	-75.368069	-118.143943			
12910	10.254016	-1.196165	0.156395	-0.066240	-2.007953	0.314685	-130.429990	-75.559822	-118.876501			
12911	10.273890	-1.039669	0.334518	-0.162604	-2.178625	0.285457	-129.553117	-75.780927	-119.741053			
12912	10.157151	-0.843115	0.576855	-0.257143	-2.384034	0.110076	-128.523135	-76.049285	-120.776426			
12913	10.057218	-0.490450	0.846283	-0.488762	-2.664070	-0.077812	-127.388782	-76.347282	-121.953316			
12914	10.015774	-0.317285	0.961515	-0.618837	-2.748781	-0.148234	-126.181597	-76.672817	-123.274807			
12915	9.952522	-0.173935	1.041059	-0.732451	-2.782686	-0.226949	-124.904364	-77.015361	-124.716902			
12916	9.959454	-0.057594	1.126774	-0.828131	-2.821397	-0.230571	-123.531467	-77.382064	-126.292228			
12917	9.931349	-0.003841	1.207593	-0.862837	-2.825470	-0.254364	-122.120512	-77.759174	-127.957746			
12918	10.094285	-0.005010	1.131893	-0.925011	-2.693158	-0.062493	-120.608782	-78.156665	-129.762717			
12919	10.400317	-0.040440	1.085862	-0.960949	-2.593775	0.271727	-119.039223	-78.559745	-131.634476			
12920	10.845015	0.086488	1.020146	-1.170394	-2.536505	0.716218	-117.301752	-78.985178	-133.721910			
12921	11.159584	0.030198	0.963152	-1.187115	-2.394548	1.064836	-115.296099	-79.446157	-136.155103			
12922	11.345949	0.133684	1.226657	-1.232351	-2.571636	1.238088	-113.055156	-79.920764	-138.918610			
12923	11.307907	-0.114513	1.442282	-0.933823	-2.571553	1.254194	-110.874232	-80.373627	-141.654882			
12924	11.548889	-0.029821	2.038307	-0.867878	-3.066651	1.473304	-108.626295	-80.830382	-144.454103			
12925	12.593362	-0.065530	2.307638	-0.901043	-3.270156	2.532924	-105.302520	-81.304788	-148.480324			
12926	12.563351	-0.887816	2.000930	-0.229566	-2.555810	2.678928	-99.259330	-81.791108	-155.334189			
12927	11.048102	-1.879305	1.352028	0.711788	-1.360286	1.370301	-91.405341	-82.158489	-163.639548			
12928	10.436341	-1.474585	0.171775	0.086419	-0.101664	0.727747	-84.397113	-82.339724	-170.803122			
12929	11.512543	-1.380529	-0.323668	-0.276842	0.494034	1.772935	-78.833391	-82.381733	-176.733574			
12930	11.837753	-1.584834	0.301867	0.023086	0.097764	2.133976	-72.709700	-82.317580	176.471032			
12931	10.933630	-1.653482	0.676570	0.285401	-0.089970	1.261795	-66.296050	-82.147418	169.282138			
12932	10.312608	-2.748539	0.483162	1.378264	0.480830	0.770579	-60.564912	-81.923374	162.829168			
12933	10.241457	-3.727731	0.478025	2.340470	0.817495	0.811093	-55.633622	-81.670004	157.388238			
12934	10.154626	-3.879598	1.183272	2.644575	0.266691	0.794009	-51.323999	-81.371814	152.608841			
12935	10.279700	-4.149823	1.368437	2.924859	0.250854	0.964479	-47.428496	-80.990033	148.113227			
12936	10.268109	-4.630301	0.003992	3.155376	1.783776	0.851946	-43.477222	-80.511894	143.603273			
12937	9.727472	-3.685756	-0.911851	2.165680	2.578849	0.071529	-39.511409	-79.946878	139.208024			
12938	9.177835	-2.793964	-1.301710	1.326815	2.870210	-0.662095	-36.013609	-79.370507	135.217123			
12939	9.152438	-3.047809	-1.181181	1.629462	2.909248	-0.684092	-32.791575	-78.864720	131.626094			
12940	9.011934	-2.401552	-0.350393	1.169538	2.089236	-0.792093	-29.523067	-78.395207	128.208906			
12941	9.542931	-1.348206	0.010386	0.159001	1.777414	-0.341720	-26.272548	-77.911553	125.019160			
12942	9.519353	-0.825235	0.699160	-0.218821	1.151502	-0.304136	-23.581772	-77.344054	122.175979			
12943	9.236391	-0.656617	1.913650	-0.160667	0.022765	-0.358775	-21.480675	-76.746072	119.928154			
12944	8.631670	-0.447213	2.426468	-0.218409	-0.512437	-0.852646	-19.990905	-76.200478	118.329177			
12945	8.292404	-0.379683	1.780927	-0.330118	0.119595	-1.329998	-19.014215	-75.724344	117.209746			
12946	7.714250	-0.233839	1.610432	-0.434932	0.206337	-1.943394	-18.434334	-75.306993	116.364402			
12947	7.779382	-0.406871	1.234064	-0.325930	0.667530	-1.960608	-18.075680	-74.917265	115.672771			
12948	7.457029	-0.564857	0.970896	-0.172258	0.919361	-2.329781	-17.808200	-74.553744	115.089610			
12949	7.259818	-0.599118	1.055682	-0.113198	0.838395	-2.500881	-17.610373	-74.242319	114.612978			
12950	7.219181	-0.642063	1.372287	-0.039872	0.567316	-2.458202	-17.501234	-73.962858	114.242981			
12951	6.999478	-0.560343	1.780427	-0.064052	0.139743	-2.570250	-17.519196	-73.741433	114.018355			
12952	7.273460	-0.879113	1.528482	0.183698	0.514221	-2.348499	-17.627196	-73.549376	113.886339			
12953	7.387719	-0.912954	1.709047	0.208933	0.392930	-2.188080	-17.772447	-73.393205	113.866086			
12954	7.519788	-0.971154	1.776906	0.244713	0.383017	-2.038297	-17.980011	-73.274806	113.908273			
12955	7.641340	-1.292144	1.748213	0.532843	0.487028	-1.900998	-18.240230	-73.190365	113.989320			
12956	7.619586	-1.581134	1.905772	0.823489	0.367801	-1.851744	-18.404440	-73.121892	114.044876			
12957	7.500930	-1.587963	2.135524	0.853907	0.118449	-1.900492	-18.609407	-73.088835	114.105744			
12958	7.473642	-2.189932	2.131629	1.445140	0.178204	-1.870724	-18.753662	-73.073741	114.134191			
12959	7.418959	-2.208649	2.472153	1.492464	-0.166021	-1.826724	-18.851796	-73.103176	114.161444			
12960	7.415222	-2.629794	2.721023	1.927765	-0.369117	-1.722398	-18.927718	-73.160734	114.218700			
12961	7.412759	-2.401541	3.220419	1.743776	-0.883627	-1.611107	-18.944301	-73.274488	114.319599			
12962	7.653183	-2.552239	3.630670	1.904081	-1.213903	-1.258871	-19.034317	-73.434393	114.516129			
12963	7.879948	-2.695590	4.020524	2.061793	-1.535827	-0.929300	-19.116221	-73.638291	114.770537			
12964	7.885651	-2.585804	4.157900	1.980313	-1.702425	-0.905498	-19.157404	-73.856732	115.010514			
12965	7.522095	-2.589490	4.181266	2.051133	-1.839816	-1.258263	-19.052212	-74.093467	115.129608			
12966	7.295455	-2.502097	4.502754	2.052987	-2.236008	-1.413623	-18.705492	-74.359159	115.075186			
12967	7.421016	-2.470358	4.924287	2.097387	-2.633996	-1.205398	-18.112806	-74.671845	114.888157			
12968	8.133296	-2.118325	5.752743	1.827488	-3.326958	-0.361614	-17.326900	-75.036406	114.612430			
12969	8.960542	-1.403675	6.041212	1.155860	-3.540841	0.428569	-16.439299	-75.448281	114.230947			
12970	10.158188	-0.489492	5.711337	0.177679	-3.123908	1.423710	-15.579512	-75.811441	113.637222			
12971	11.349907	-0.148833	5.493972	-0.229265	-2.739032	2.494665	-14.642553	-76.087756	112.719057			
12972	12.293339	0.107042	6.021647	-0.438842	-3.097359	3.514405	-13.586732	-76.235964	111.506832			
12973	11.979739	0.340030	6.874131	-0.483054	-4.018237	3.397298	-12.422582	-76.267744	110.086881			
12974	10.419798	0.898008	7.379286	-0.806839	-4.908088	1.981039	-11.110571	-76.261492	108.521494			
12975	8.960376	1.679848	7.478896	-1.419323	-5.416656	0.564658	-9.628547	-76.305870	106.870861			
12976	7.993639	2.643029	6.905730	-2.326433	-5.198225	-0.531584	-8.057950	-76.425887	105.241494			
12977	7.345066	3.165407	5.752869	-2.883860	-4.307419	-1.434473	-6.481240	-76.651890	103.680576			
12978	7.125710	3.643054	4.175726	-3.470873	-2.923969	-2.009664	-4.786874	-77.031109	102.103935			
12979	7.255714	4.300490	1.894638	-4.337651	-0.838929	-2.382404	-2.864649	-77.675692	100.401166			
12980	8.783033	4.551145	0.129901	-4.790692	1.050401	-1.221124	-0.546253	-78.471654	98.445230			
12981	9.588246	4.189089	-3.121796	-4.820878	4.264536	-0.992389	2.415580	-79.322415	96.131040			
12982	8.753557	4.077678	-6.414641	-5.158424	7.146011	-2.281462	5.124882	-80.323021	94.232837			
12983	10.048601	5.062928	-3.400573	-5.652214	4.091110	-0.353108	5.580968	-81.439947	93.626526			
12984	15.819099	2.175530	1.950680	-2.034121	-0.023417	6.144686	2.502876	-82.470937	95.336074			
12985	23.026875	-1.365866	10.024209	2.152828	-6.799959	14.305359	-3.700756	-82.865770	99.379293			
12986	22.071512	-6.401280	11.043856	6.639043	-7.630984	13.591121	-10.136809	-82.271352	103.165300			
12987	13.950141	-9.855547	1.600074	9.405711	0.678913	4.517807	-14.832620	-81.678169	105.983202			
12988	8.997809	-8.195433	-4.101660	7.782890	5.405821	-1.143810	-18.347315	-81.512131	108.079726			
12989	4.911155	-7.578301	-6.716917	7.479767	7.227049	-5.513395	-20.396467	-81.670522	108.680647			
12990	0.606120	-7.926562	-9.849000	8.249797	9.594091	-10.118747	-19.939609	-82.328262	107.764213			
12991	-1.873697	-7.838326	-11.410969	8.211313	10.924227	-12.707926	-16.600976	-83.423135	105.869776			
12992	1.156804	-3.202992	-7.297587	3.122854	7.403887	-9.290822	-16.662915	-84.706662	108.248408			
12993	11.297922	-0.651919	-3.073288	0.190090	3.924930	1.235531	-22.833325	-86.158588	116.213060			
12994	16.930999	4.137416	3.464979	-4.367810	-2.832576	7.177687	-24.719757	-87.138457	118.468704			
12995	11.910172	1.423878	-1.963539	-1.790120	2.360744	1.975300	-23.876540	-87.577184	116.821104			
12996	9.856049	0.432258	-3.723795	-0.800932	4.004278	-0.090654	-28.880468	-88.289260	122.034512			
12997	10.115644	3.239354	-2.785517	-3.562762	2.744837	0.204639	-53.014780	-89.034886	147.224400			
12998	10.168422	5.015789	-1.424360	-5.257256	1.049593	0.278907	-99.320739	-89.158080	-165.780121			
12999	9.497398	4.005769	-1.222333	-4.241861	0.780490	-0.371447	-126.588774	-88.753735	-138.246451			
13000	9.720901	3.660249	-0.971621	-3.905102	0.442702	-0.148812	-137.145134	-88.203224	-127.540565			
13001	9.885700	3.494469	-0.829804	-3.760043	0.213222	0.007844	-141.809061	-87.649319	-122.969016			
13002	9.677003	2.296343	-0.886166	-2.596258	0.309702	-0.175986	-144.198996	-87.159809	-120.950379			
13003	9.560307	0.597235	-0.655308	-0.905104	0.161019	-0.255491	-146.293053	-86.690566	-119.326019			
13004	9.671297	-0.660132	-0.137929	0.363318	-0.340560	-0.130735	-148.386788	-86.226721	-117.701896			
13005	9.933347	-1.693281	-0.320820	1.354921	-0.190201	0.175748	-150.338121	-85.787182	-116.190006			
13006	9.970654	-2.223421	-0.351328	1.868637	-0.217036	0.234276	-152.152086	-85.392850	-114.707538			
13007	9.719909	-2.250006	-0.312421	1.900318	-0.314815	-0.018505	-154.008837	-85.023145	-113.008123			
13008	9.444700	-2.049137	-0.160583	1.718525	-0.525165	-0.315447	-156.041643	-84.646187	-110.971200			
13009	9.667851	-1.938101	0.018407	1.617822	-0.796946	-0.118821	-158.084480	-84.284009	-108.903607			
13010	9.354391	-2.213353	0.112172	1.920353	-0.910817	-0.437269	-159.954942	-83.908688	-106.822880			
13011	9.517611	-1.895477	0.261302	1.623878	-1.154644	-0.311346	-161.581166	-83.475414	-104.688802			
13012	9.485607	-1.223928	-0.016743	0.954908	-0.980291	-0.346863	-162.754894	-83.038634	-102.780537			
13013	9.283202	-0.517584	-0.531453	0.229989	-0.567219	-0.520050	-163.642778	-82.597658	-101.091301			
13014	9.200432	0.012838	-1.144843	-0.347345	-0.072844	-0.548116	-164.271487	-82.144629	-99.683340			
13015	9.203248	0.423046	-1.494081	-0.794205	0.145813	-0.514388	-164.672417	-81.679371	-98.543636			
13016	9.255603	0.907965	-1.520559	-1.285673	0.019912	-0.477344	-164.854641	-81.210984	-97.697908			
13017	9.363813	1.480057	-1.427493	-1.848557	-0.252388	-0.409086	-164.931360	-80.750255	-97.072238			
13018	9.467913	1.887487	-1.382745	-2.252253	-0.458290	-0.334680	-164.983276	-80.317325	-96.598005			
13019	9.357167	1.988659	-1.408496	-2.355856	-0.513258	-0.448865	-165.130623	-79.910865	-96.124872			
13020	9.272225	1.837272	-1.555414	-2.227132	-0.412238	-0.504710	-165.322768	-79.496559	-95.642790			
13021	9.351193	1.611095	-1.571660	-2.006348	-0.456801	-0.417163	-165.545045	-79.056217	-95.159257			
13022	9.391423	1.178000	-1.370154	-1.544476	-0.670832	-0.398448	-165.769517	-78.619293	-94.764997			
13023	9.312753	0.423329	-1.350904	-0.793127	-0.629481	-0.447552	-165.987045	-78.173689	-94.444096			
13024	9.210751	-0.245331	-1.151956	-0.096472	-0.766167	-0.559128	-166.203956	-77.730029	-94.171338			
13025	9.165748	-1.004437	-1.030935	0.676097	-0.822459	-0.595927	-166.450481	-77.287159	-93.910075			
13026	9.163281	-1.914782	-0.950076	1.591223	-0.821765	-0.575422	-166.689544	-76.861749	-93.625643			
13027	9.047877	-2.341138	-0.925457	2.022036	-0.814069	-0.677600	-166.863836	-76.450562	-93.290244			
13028	8.935372	-2.424695	-1.000117	2.096942	-0.760091	-0.771388	-166.952144	-76.035673	-92.936919			
13029	8.855375	-2.253690	-1.121218	1.910800	-0.710697	-0.835083	-166.978657	-75.600647	-92.585414			
13030	8.666820	-1.979256	-1.295139	1.612028	-0.605926	-0.995517	-166.958661	-75.126876	-92.265087			
13031	8.798774	-1.361052	-1.220787	1.017229	-0.891365	-0.928351	-166.873770	-74.589172	-91.964521			
13032	9.125258	-0.419758	-0.635256	0.206719	-1.787585	-0.834311	-166.766080	-74.030197	-91.702333			
13033	9.477129	0.416936	-0.051192	-0.492531	-2.682863	-0.726910	-166.656334	-73.478471	-91.495002			
13034	9.880320	1.162812	0.051144	-1.197200	-3.129314	-0.445254	-166.463825	-72.968535	-91.349145			
13035	10.063937	1.842073	-0.170704	-1.902937	-3.200731	-0.281756	-166.202522	-72.518012	-91.236303			
13036	10.152909	2.313902	-0.699609	-2.475692	-2.916986	-0.102556	-165.903636	-72.119188	-91.150489			
13037	10.267972	2.576696	-0.955141	-2.788908	-2.850751	0.040110	-165.620057	-71.769551	-91.096873			
13038	10.362371	2.549827	-1.016641	-2.778041	-2.884784	0.130858	-165.425371	-71.484935	-91.066813			
13039	10.331189	2.132288	-0.919091	-2.348600	-2.924682	0.089585	-165.376009	-71.256221	-91.014644			
13040	10.347230	1.471217	-0.803523	-1.675106	-2.927121	0.112089	-165.450435	-71.078045	-90.892352			
13041	10.498742	0.857196	-0.803768	-1.070362	-2.869590	0.297907	-165.613738	-70.930381	-90.683868			
13042	10.653566	0.154759	-1.004871	-0.423685	-2.603224	0.559189	-165.784009	-70.808394	-90.438722			
13043	10.759429	-0.570583	-1.245101	0.236730	-2.277623	0.789081	-165.908737	-70.686676	-90.170618			
13044	10.676177	-1.115355	-1.278184	0.769435	-2.115484	0.760447	-165.943889	-70.575354	-89.918527			
13045	10.654377	-1.477447	-1.173147	1.154327	-2.139173	0.730856	-165.882525	-70.448668	-89.716251			
13046	11.017647	-1.918006	-1.047795	1.615035	-2.288436	1.064807	-165.661012	-70.317180	-89.613858			
13047	11.627869	-1.906036	-1.005042	1.610329	-2.554221	1.621173	-165.271144	-70.166443	-89.602067			
13048	11.933487	-1.679480	-0.816190	1.429156	-2.902115	1.824758	-164.722641	-70.036772	-89.677521			
13049	12.138334	-1.382086	-0.399887	1.239669	-3.440429	1.850753	-164.033121	-69.902108	-89.778296			
13050	12.398692	-0.902898	0.311947	0.965540	-4.309491	1.812118	-163.222997	-69.804001	-89.918487			
13051	12.546353	-0.388481	0.915774	0.639802	-5.047878	1.698616	-162.389500	-69.775964	-90.127631			
13052	12.966832	-0.109368	0.957780	0.374321	-5.296454	2.056409	-161.460891	-69.872362	-90.452288			
13053	13.642355	0.670723	0.899881	-0.410635	-5.666847	2.640882	-160.406242	-70.123889	-90.980228			
13054	13.876947	0.729830	0.811042	-0.535491	-5.614561	2.913237	-159.217124	-70.524287	-91.684148			
13055	13.476182	0.919880	0.883475	-0.732050	-5.510673	2.529501	-157.798360	-71.009256	-92.472482			
13056	12.966463	1.042415	0.970565	-0.853682	-5.351999	2.052543	-156.266501	-71.586850	-93.354956			
13057	12.228338	0.124142	0.716733	-0.117174	-4.469031	1.592289	-154.894806	-72.226295	-94.365358			
13058	11.410535	-2.625446	1.708844	2.760585	-4.045325	0.958814	-153.514857	-73.021167	-95.805449			
13059	11.106798	-5.275990	3.282916	5.715337	-4.340502	0.697585	-151.857571	-74.064002	-98.009560			
13060	10.688518	-6.605812	1.801336	6.345924	-2.270815	0.943350	-148.964603	-75.440568	-101.321033			
13061	11.519942	-4.707075	-0.217101	3.707905	-0.963613	2.028961	-144.865925	-76.771118	-105.013210			
13062	12.376222	-1.329651	-1.039499	0.091273	-1.176066	2.621851	-140.301281	-78.068420	-108.760970			
13063	11.923100	0.194852	-2.791237	-2.036012	0.294230	2.260036	-135.614524	-79.239556	-112.386818			
13064	12.065614	0.992470	-4.312324	-3.461907	1.600462	2.459633	-131.114408	-80.284417	-115.408931			
13065	12.686324	2.358224	-4.414288	-4.879781	1.240798	2.861519	-126.666052	-81.319745	-118.440531			
13066	12.801232	2.554872	-3.525714	-4.739594	0.543947	2.838996	-121.182060	-82.355039	-123.327141			
13067	11.809234	0.326632	-3.381264	-2.637946	1.725140	2.064022	-113.718296	-83.288316	-130.819707			
13068	10.957229	-0.820362	-2.973702	-1.394419	2.181947	1.271818	-104.696172	-84.046987	-140.031590			
13069	10.810411	-1.214098	-3.149767	-1.119954	2.752947	1.115372	-94.304976	-84.617445	-150.597037			
13070	11.053738	-1.136025	-3.580144	-1.400774	3.327184	1.289388	-82.180522	-84.999089	-162.877501			
13071	11.036944	-0.981215	-3.525160	-1.519035	3.441513	1.189465	-68.621936	-85.129769	-176.611698			
13072	10.878346	-0.498610	-2.887801	-1.675786	2.895063	0.945188	-54.753756	-84.972174	169.230886			
13073	10.316045	-0.442471	-2.508007	-1.514924	2.741852	0.340626	-42.718541	-84.589779	156.841279			
13074	10.078784	-0.368447	-2.074586	-1.372886	2.514067	0.077350	-32.829221	-84.082601	146.730944			
13075	9.831561	0.434885	-1.180395	-1.711203	1.547028	-0.173306	-25.017114	-83.478035	138.672898			
13076	9.740943	0.449631	-1.921502	-1.993160	2.383651	-0.372161	-18.986016	-82.876306	132.434972			
13077	9.619371	1.346440	-2.125392	-2.857723	2.369488	-0.588880	-13.884703	-82.184136	126.893148			
13078	8.961847	1.530832	-1.816563	-2.823983	2.122140	-1.240820	-9.938709	-81.409279	122.275965			
13079	8.729257	1.298172	-2.155309	-2.680788	2.662745	-1.551262	-6.966517	-80.673322	118.497297			
13080	8.406052	1.341546	-2.206418	-2.670364	2.807529	-1.918739	-4.490930	-79.937508	115.246478			
13081	8.183251	1.544236	-2.387350	-2.857801	3.015980	-2.211079	-2.674947	-79.264934	112.547113			
13082	7.873621	1.150114	-2.388110	-2.411620	3.234435	-2.550420	-1.402187	-78.631264	110.301076			
13083	7.716951	1.292095	-2.370464	-2.475063	3.269391	-2.739965	-0.563428	-78.001555	108.435857			
13084	7.330667	1.187224	-2.496591	-2.332587	3.463068	-3.183519	-0.212838	-77.409290	106.950216			
13085	6.767094	0.823348	-2.252270	-1.826164	3.326192	-3.718043	-0.264081	-76.849289	105.817837			
13086	6.468164	0.208950	-2.424253	-1.206778	3.670172	-4.082892	-0.643929	-76.351036	104.961727			
13087	6.154387	-0.450456	-2.313061	-0.467109	3.717309	-4.391197	-1.293695	-75.881399	104.377435			
13088	5.902383	-1.188170	-2.537716	0.275680	4.075237	-4.713091	-2.131552	-75.458433	103.922950			
13089	5.768022	-2.564087	-2.518832	1.694553	4.317363	-4.845022	-2.943054	-75.084612	103.602519			
13090	5.428440	-3.026262	-2.225465	2.271686	4.030480	-5.103822	-3.541395	-74.789201	103.313772			
13091	5.321686	-3.500186	-2.387008	2.758865	4.221371	-5.247823	-4.015942	-74.589929	103.083573			
13092	4.915012	-3.810714	-2.228219	3.147100	3.991956	-5.593237	-4.283868	-74.536018	102.829474			
13093	4.669750	-4.064306	-2.080527	3.456798	3.802406	-5.782063	-4.293662	-74.614674	102.583020			
13094	4.510973	-3.722534	-1.521468	3.219244	3.157565	-5.789354	-4.073546	-74.834733	102.286131			
13095	4.886221	-3.599809	-0.929434	3.168334	2.646881	-5.268105	-3.871141	-75.180015	102.076652			
13096	5.501448	-3.315644	-0.276662	2.954366	2.102397	-4.503500	-3.649839	-75.634124	101.901740			
13097	6.461420	-2.754657	0.511518	2.473020	1.449148	-3.379682	-3.452210	-76.204283	101.763965			
13098	7.924256	-1.960056	1.583156	1.783998	0.572146	-1.711367	-3.323165	-76.840498	101.703018			
13099	9.525971	-0.612530	3.339451	0.648558	-1.057174	0.223846	-3.232910	-77.466480	101.712539			
13100	11.426126	0.482634	5.606002	-0.172391	-3.118165	2.534886	-3.345167	-78.033177	101.773755			
13101	13.478836	0.299112	7.518545	0.183425	-4.640603	4.908962	-3.782373	-78.441943	101.736672			
13102	15.432592	-0.566861	8.660991	1.046379	-5.332918	7.038510	-4.316300	-78.600432	101.437767			
13103	15.812856	-1.168910	10.423983	1.720045	-6.935500	7.766014	-4.591654	-78.506614	100.709980			
13104	13.739231	-1.163802	12.500007	1.841529	-9.347178	6.175027	-4.499661	-78.234841	99.538554			
13105	10.334014	-0.690440	12.715510	1.360645	-10.246488	2.919547	-3.824833	-78.019673	98.184875			
13106	9.113275	1.234572	10.968691	-0.678848	-8.927118	1.355737	-2.443442	-78.096031	96.739768			
13107	10.020426	2.576098	8.044161	-2.192773	-6.012924	1.623643	-0.865729	-78.327145	95.226612			
13108	10.320782	2.027612	5.297157	-1.789167	-3.258216	1.361935	0.591094	-78.455743	93.815767			
13109	9.289283	2.046647	3.068888	-1.907829	-1.306309	-0.088947	2.006510	-78.537100	92.476816			
13110	8.742612	2.468814	1.358191	-2.408447	0.207371	-0.951021	3.501310	-78.658784	91.098405			
13111	8.864309	3.130685	0.423797	-3.096455	1.061127	-0.989854	5.160821	-78.878304	89.595481			
13112	8.900047	3.716637	-0.572286	-3.716180	1.938468	-1.107324	7.055789	-79.256096	87.950564			
13113	8.975380	3.726236	-2.190967	-3.827200	3.443065	-1.283972	9.244902	-79.845871	86.126792			
13114	8.485930	3.373215	-3.915524	-3.621192	4.952325	-1.997328	12.145133	-80.608985	83.789960			
13115	9.315644	4.299247	-5.441857	-4.666386	6.331218	-1.267835	15.631041	-81.592700	80.621641			
13116	12.476605	5.087032	-5.477823	-5.297835	6.576579	2.029052	17.266146	-82.796233	77.861832			
13117	17.421418	0.832924	-2.646730	-0.601034	4.527717	7.226532	15.191704	-83.967137	77.899840			
13118	22.285318	-1.590148	3.814987	2.120240	-1.578417	12.697595	9.453739	-84.668285	81.080082			
13119	22.679724	-6.859058	10.316594	6.893700	-8.191578	13.706826	-0.265840	-84.161099	87.791695			
13120	14.903522	-14.557256	8.672497	13.985960	-7.814065	6.078875	-7.787834	-83.085914	93.402059			
13121	8.023936	-10.011798	2.169770	9.707943	-1.927892	-1.364934	-12.148501	-82.492148	97.397015			
13122	4.360568	-4.819396	-5.504592	5.216742	5.590318	-6.060996	-14.668846	-82.053180	99.085220			
13123	0.664739	-3.734677	-10.627733	4.821023	10.183012	-10.445453	-14.345646	-82.076037	97.971081			
13124	-5.229208	-3.947849	-15.805576	5.811517	14.488592	-16.815819	-13.071660	-83.448147	96.433119			
13125	-2.842573	-4.049406	-13.990571	5.490270	13.160268	-13.917539	-9.345839	-85.196193	94.260938			
13126	5.925393	-3.880482	-11.488199	4.551211	11.595269	-4.622109	-9.573889	-87.081153	97.516261			
13127	17.896480	2.016177	0.114346	-2.161692	0.556747	8.057625	-22.528820	-88.649784	113.128545			
13128	15.807872	4.743128	2.812859	-4.840807	-2.594958	6.002779	-28.709343	-89.215596	119.268250			
13129	12.046654	-0.501811	0.084756	0.414162	0.031261	2.237540	-46.835333	-89.375972	135.962623			
13130	9.724897	-0.548302	-0.342896	0.469496	0.370211	-0.084695	-88.657531	-89.434505	177.053939			
13131	9.048440	0.831549	-0.222145	-0.926305	0.189626	-0.772785	-135.121276	-89.023120	-135.892931			
13132	9.868732	3.059403	-0.924222	-3.188055	0.752941	0.029633	-149.988121	-88.289634	-119.565538			
13133	9.981945	6.366419	-1.931014	-6.552387	1.513545	0.120618	-154.884242	-87.622645	-113.784116			
13134	9.966269	4.879641	-2.299527	-5.120172	1.754683	0.143672	-155.052877	-87.051684	-113.464401			
13135	9.854222	3.089294	-2.616574	-3.377965	2.021693	0.086661	-155.329915	-86.496503	-113.081571			
13136	9.686857	2.888403	-1.631646	-3.177348	0.967773	-0.127251	-155.971370	-85.985066	-112.555413			
13137	9.234914	1.311312	-0.947560	-1.589960	0.287167	-0.577411	-157.057067	-85.533298	-112.033601			
13138	8.871165	-0.947319	-0.981342	0.671959	0.312061	-0.867937	-158.932860	-85.102647	-110.927302			
13139	8.875303	-2.293774	-1.278078	2.023744	0.517565	-0.795949	-161.221233	-84.655722	-109.377874			
13140	9.005338	-3.077693	-1.681406	2.817928	0.795453	-0.602853	-163.087364	-84.183182	-107.974019			
13141	9.100958	-3.228629	-1.902429	2.972700	0.907537	-0.474085	-164.388833	-83.670084	-106.700688			
13142	9.194510	-2.577116	-1.726721	2.308187	0.655953	-0.410367	-165.245122	-83.154708	-105.542407			
13143	9.146154	-1.875855	-1.434220	1.594593	0.311080	-0.507417	-165.855711	-82.678909	-104.588983			
13144	9.052167	-1.787459	-1.097776	1.497826	-0.075989	-0.642505	-166.269752	-82.232207	-103.864646			
13145	8.995212	-1.743018	-0.921790	1.446225	-0.305544	-0.723331	-166.530917	-81.764951	-103.163545			
13146	9.213694	-0.977353	-0.811805	0.665855	-0.512612	-0.549865	-166.711223	-81.300318	-102.502090			
13147	9.227675	-1.009134	-1.113535	0.682894	-0.287227	-0.492871	-166.869084	-80.804737	-101.872223			
13148	9.250474	-0.740096	-1.399552	0.394339	-0.091497	-0.436477	-166.999702	-80.271573	-101.147810			
13149	9.312604	0.048263	-1.425805	-0.408133	-0.187578	-0.402198	-167.131145	-79.714882	-100.364557			
13150	9.457583	0.748786	-1.444465	-1.123362	-0.321094	-0.287609	-167.243913	-79.168001	-99.678700			
13151	9.529917	1.098269	-1.606730	-1.493136	-0.292444	-0.205851	-167.293628	-78.652567	-99.146498			
13152	9.426862	1.214862	-1.807664	-1.630964	-0.178875	-0.277675	-167.243000	-78.153340	-98.736206			
13153	9.538574	1.407505	-2.194715	-1.869925	0.067832	-0.102888	-167.127897	-77.654979	-98.405865			
13154	9.616737	1.469261	-2.352651	-1.963508	0.104513	0.000990	-167.028510	-77.167505	-98.121368			
13155	9.653402	1.341286	-2.406984	-1.856555	0.067674	0.052846	-166.994835	-76.699694	-97.888944			
13156	9.533975	0.922247	-2.332105	-1.439209	-0.027640	-0.060083	-167.055779	-76.246558	-97.644834			
13157	9.479092	0.637327	-2.039972	-1.132041	-0.354104	-0.168342	-167.178814	-75.783892	-97.379979			
13158	9.410493	0.005614	-1.775894	-0.477956	-0.616258	-0.267926	-167.373626	-75.321956	-97.089192			
13159	9.162009	-0.555401	-1.556068	0.109674	-0.793466	-0.537446	-167.557097	-74.842313	-96.761807			
13160	9.217181	-1.078499	-1.315018	0.653754	-1.070517	-0.524259	-167.723739	-74.335548	-96.398756			
13161	9.291611	-1.491902	-1.078988	1.089532	-1.357699	-0.501778	-167.855812	-73.816444	-96.026254			
13162	9.411620	-1.705369	-0.729328	1.339704	-1.783324	-0.482993	-167.953803	-73.299732	-95.692731			
13163	9.530644	-1.915133	-0.577566	1.565418	-2.018390	-0.415372	-168.012331	-72.788714	-95.389614			
13164	9.374829	-1.900653	-0.271243	1.595153	-2.339276	-0.671775	-167.995128	-72.286758	-95.125150			
13165	9.277307	-1.482328	0.057195	1.226588	-2.738162	-0.909515	-167.858297	-71.777126	-94.917296			
13166	9.359283	-0.486650	0.433703	0.288805	-3.306808	-1.037599	-167.586090	-71.262092	-94.794607			
13167	9.585612	0.595015	0.313033	-0.805430	-3.475458	-0.890366	-167.181070	-70.763421	-94.788285			
13168	9.651918	1.419990	-0.264629	-1.714206	-3.144036	-0.734043	-166.622531	-70.298483	-94.880392			
13169	9.749464	2.462187	-0.940662	-2.864841	-2.773906	-0.533863	-165.984494	-69.862428	-95.013075			
13170	10.043053	3.417018	-1.244500	-3.883569	-2.818485	-0.270104	-165.419652	-69.455999	-95.151321			
13171	10.644915	3.592744	-1.441338	-4.129278	-2.952129	0.313170	-164.997825	-69.138237	-95.352717			
13172	10.531370	2.915258	-1.656623	-3.516445	-2.671057	0.319076	-164.644491	-68.879280	-95.528652			
13173	10.675234	2.402694	-1.424987	-2.992192	-2.906302	0.403190	-164.445566	-68.649084	-95.626389			
13174	10.621004	1.271846	-0.836750	-1.781809	-3.287708	0.244127	-164.442498	-68.496090	-95.668975			
13175	10.269398	-0.031912	-0.268472	-0.388086	-3.504327	-0.163714	-164.561709	-68.381640	-95.638452			
13176	10.430616	-1.079127	-0.084590	0.670160	-3.591951	0.016766	-164.672010	-68.283015	-95.581491			
13177	11.077892	-1.698472	-0.075850	1.259107	-3.761064	0.669644	-164.612310	-68.195812	-95.543562			
13178	11.882786	-1.597668	-0.050208	1.133354	-4.105415	1.395201	-164.280707	-68.139711	-95.574914			
13179	12.472827	-0.945289	0.221503	0.514928	-4.676520	1.779511	-163.707048	-68.102648	-95.647644			
13180	12.754046	-0.344577	0.947472	0.050419	-5.535896	1.721324	-163.145299	-68.144568	-95.764324			
13181	12.620711	-1.011196	1.359817	0.789179	-5.724398	1.534661	-162.561895	-68.277916	-95.908646			
13182	13.190524	-1.114348	1.468622	0.889991	-5.966507	2.061524	-161.874821	-68.509334	-96.109537			
13183	14.053409	-1.288159	1.132516	0.942195	-5.859414	3.041053	-160.990273	-68.918424	-96.540737			
13184	14.210865	-1.298580	0.630358	0.804407	-5.330179	3.415026	-159.779633	-69.458917	-97.178872			
13185	13.730192	-1.010241	0.736446	0.530143	-5.170124	2.957097	-158.253220	-70.067034	-97.984014			
13186	12.570982	-0.823968	1.142068	0.460945	-5.036994	1.781565	-156.707064	-70.722905	-98.988723			
13187	12.282648	-3.011520	-0.152354	2.203575	-3.097911	2.249644	-155.194287	-71.459884	-100.193499			
13188	12.847703	-5.603009	1.153066	4.935841	-3.652136	2.839519	-153.102933	-72.534109	-102.021521			
13189	11.965223	-7.150402	1.174253	6.392260	-2.745756	2.322477	-150.234110	-73.959203	-104.805594			
13190	12.698624	-6.638317	-1.840007	4.929760	0.128959	3.765685	-146.558493	-75.383812	-107.902029			
13191	13.498994	-2.487342	-2.850590	0.486305	0.262331	4.194981	-142.326160	-76.780627	-111.040964			
13192	12.934127	0.740267	-3.915814	-2.963658	0.857767	3.364818	-138.273029	-78.075229	-113.708016			
13193	13.118514	2.541340	-4.505833	-4.945042	1.086095	3.348596	-134.596663	-79.254122	-116.028151			
13194	13.013336	2.097595	-4.724586	-4.640223	1.666044	3.292912	-131.054039	-80.446912	-118.511301			
13195	13.157934	1.345770	-3.767461	-3.637683	1.267414	3.389208	-126.331990	-81.630611	-122.647628			
13196	12.111166	-0.802217	-3.092660	-1.332962	1.826420	2.506705	-119.531133	-82.763894	-129.473759			
13197	10.904744	-2.424996	-3.042029	0.282063	2.757757	1.428181	-111.114854	-83.680134	-138.154073			
13198	10.357120	-2.888803	-3.498293	0.594366	3.632285	0.878506	-101.142127	-84.352335	-148.267705			
13199	10.256085	-2.323473	-3.322093	0.135828	3.495278	0.645921	-89.660255	-84.803318	-159.895911			
13200	10.263344	-2.102216	-3.369535	-0.086818	3.680738	0.557913	-76.006653	-85.026330	-173.707967			
13201	10.051789	-1.815097	-2.944661	-0.186295	3.404295	0.255865	-61.793519	-84.973879	171.957646			
13202	9.760911	-1.601804	-2.047470	-0.050724	2.698422	-0.078963	-48.599298	-84.673579	158.862227			
13203	9.642262	-1.309144	-2.276650	-0.394300	3.004880	-0.289967	-37.487810	-84.254226	148.181225			
13204	9.435685	-0.244088	-1.905390	-1.237184	2.446926	-0.582209	-28.297751	-83.732348	139.387478			
13205	9.345833	0.278561	-2.602398	-1.952683	3.067134	-0.814257	-20.363766	-83.059654	131.707903			
13206	8.482380	0.584672	-2.523223	-2.120320	2.962003	-1.726400	-14.104938	-82.354431	125.529621			
13207	8.412683	0.834583	-2.572439	-2.336934	3.044608	-1.853117	-8.957926	-81.711888	120.476239			
13208	8.138861	1.534889	-2.539318	-2.918532	2.851244	-2.170958	-4.452669	-81.019707	115.890399			
13209	7.786572	1.818124	-2.202850	-2.992719	2.515514	-2.498102	-1.118284	-80.370308	112.214247			
13210	7.629997	1.356655	-2.468234	-2.596589	3.023613	-2.723010	1.293803	-79.739148	109.211900			
13211	7.479288	1.201144	-2.835807	-2.508755	3.510150	-2.971076	3.094855	-79.130873	106.598316			
13212	7.340514	1.352994	-2.817648	-2.569332	3.535752	-3.138244	4.285200	-78.548674	104.406002			
13213	7.199467	1.352216	-3.106155	-2.578290	3.893392	-3.370545	4.974334	-77.994682	102.595302			
13214	7.117760	1.430235	-3.124393	-2.575340	3.987658	-3.493331	5.145003	-77.433293	101.150943			
13215	6.913429	1.105965	-2.992548	-2.135946	4.028303	-3.714935	4.696288	-76.851917	100.051475			
13216	6.402926	-0.429819	-2.840376	-0.507206	4.247513	-4.249387	3.843350	-76.309669	99.390155			
13217	6.108973	-1.514070	-2.894597	0.626176	4.518849	-4.599436	3.031816	-75.865112	98.934807			
13218	5.877393	-1.839243	-2.380116	1.120051	4.058549	-4.726930	2.290397	-75.499931	98.636075			
13219	5.681841	-2.118242	-1.984301	1.518941	3.690284	-4.834514	1.550955	-75.217816	98.457037			
13220	5.472054	-2.840139	-2.125621	2.249640	3.887959	-5.085023	0.858869	-75.028044	98.387316			
13221	5.189553	-3.229996	-1.996915	2.693961	3.737349	-5.326408	0.398520	-74.954306	98.303105			
13222	5.097485	-3.191865	-1.686337	2.725898	3.389402	-5.329670	0.099416	-75.017731	98.216176			
13223	5.128942	-3.349398	-1.363577	2.940542	3.086123	-5.206949	-0.047443	-75.192353	98.101929			
13224	5.422126	-2.995115	-0.933732	2.650692	2.669179	-4.803573	0.059698	-75.482016	97.829816			
13225	6.025863	-2.577054	-0.218913	2.324362	2.038463	-4.029782	0.217887	-75.873357	97.565868			
13226	6.858907	-2.298737	0.619739	2.146222	1.345516	-3.008580	0.437383	-76.362448	97.294950			
13227	7.895982	-1.719394	1.885874	1.724297	0.223709	-1.698772	0.750362	-76.906111	96.973444			
13228	8.759493	-0.845108	3.103711	1.015721	-0.956816	-0.586201	1.112601	-77.469620	96.621219			
13229	10.251677	0.253482	4.786006	0.136969	-2.506466	1.222022	1.515345	-78.026635	96.205633			
13230	12.278806	0.791781	6.774020	-0.163682	-4.189569	3.592653	1.738082	-78.461577	95.755166			
13231	14.192246	0.859549	8.418554	-0.086009	-5.505770	5.766430	1.495906	-78.762996	95.420654			
13232	15.702142	0.521822	10.128344	0.318167	-6.901563	7.556192	0.747742	-78.887466	95.223563			
13233	15.602309	0.144796	12.194516	0.705092	-8.902659	7.862136	0.010679	-78.699220	94.655121			
13234	13.112707	-0.896797	12.810505	1.587368	-9.854778	5.589082	-0.244702	-78.324364	93.634620			
13235	10.523454	-1.355774	11.534306	1.860468	-9.067933	2.833753	0.571659	-78.230537	92.297409			
13236	10.180829	0.018207	9.576673	0.413210	-7.312982	2.091552	2.293320	-78.470855	90.714466			
13237	10.915196	0.544903	7.487739	-0.131314	-5.203882	2.369507	4.154232	-78.754668	89.111120			
13238	10.858224	0.183925	5.796803	0.223756	-3.586565	1.961163	5.989436	-78.916885	87.522227			
13239	10.064251	0.337360	4.294146	0.045792	-2.299115	0.890315	7.675451	-78.956285	85.988628			
13240	8.812189	1.052564	2.347769	-0.756906	-0.678756	-0.689048	9.108383	-78.909863	84.592800			
13241	7.873998	1.845782	0.222223	-1.666828	1.177013	-1.983744	10.366836	-78.885008	83.309100			
13242	7.383484	2.452097	-1.646276	-2.376143	2.869371	-2.787063	11.725245	-78.957035	82.060598			
13243	7.325169	2.958494	-3.116862	-2.966320	4.230575	-3.072630	13.531783	-79.239406	80.647822			
13244	7.612194	3.167829	-5.342237	-3.343237	6.368236	-3.120398	16.155922	-79.782116	78.685427			
13245	8.105634	5.482294	-7.788585	-5.826993	8.553103	-2.790971	19.740898	-80.772682	75.054499			
13246	11.583180	4.629819	-7.363246	-4.678965	8.598498	0.863802	22.036382	-82.149895	71.515741			
13247	18.740159	1.364436	-2.091502	-0.679390	4.214478	8.604470	22.959754	-83.517224	68.950517			
13248	26.404551	1.207947	9.000157	-0.070150	-6.204299	17.411244	18.201233	-83.721682	71.473399			
13249	20.882173	-4.507305	12.946346	4.725217	-10.608667	12.301402	7.670341	-82.638629	78.969516			
13250	10.435662	-12.297046	3.910525	12.160196	-3.392289	0.958483	-0.630338	-81.794171	85.404091			
13251	7.146339	-9.754247	-6.465191	10.345568	6.525563	-3.615948	-3.666193	-81.676881	88.590095			
13252	6.229213	-3.566115	-9.436018	4.383109	9.893813	-4.969207	-3.648754	-81.793144	88.847134			
13253	1.115113	-0.440801	-13.399732	1.755788	13.315230	-10.586919	-3.639607	-82.023016	87.165952			
13254	-2.285370	-3.472532	-12.619054	4.899443	11.707182	-13.744316	-1.070668	-82.599005	84.050826			
13255	-1.799096	-6.471392	-10.640374	7.568664	9.566123	-12.899380	6.680680	-83.685079	77.574673			
13256	5.777881	-3.841291	-5.995159	4.449907	6.184342	-4.710849	14.701405	-84.996355	71.799451			
13257	18.305856	-0.450146	3.599581	0.671285	-2.353436	8.687320	14.494085	-86.751822	73.334658			
13258	17.022939	1.264341	1.265021	-1.030842	-0.381506	7.268540	19.165242	-87.345054	68.244140			
13259	11.259050	-0.534213	-3.214273	0.911784	3.632665	1.293822	22.624991	-87.573783	63.646537			
13260	8.251678	-0.323952	-4.480908	0.771701	4.712982	-1.721645	31.180082	-88.144535	54.977801			
13261	8.701435	1.367983	-2.831359	-1.051762	3.064522	-1.146516	55.693364	-88.859407	31.669010			
13262	9.234115	3.884995	-1.334717	-3.692531	1.489875	-0.523769	107.442009	-89.120662	-18.652836			
13263	9.692395	5.253720	-0.507496	-5.120773	0.475922	-0.047970	148.225600	-88.776185	-58.788305			
13264	10.420509	3.555167	-0.727465	-3.456340	0.506272	0.653984	166.789816	-88.264103	-77.152437			
13265	10.556872	2.834473	-1.004677	-2.776665	0.660070	0.786588	175.096640	-87.781069	-85.379263			
13266	10.085176	2.125194	-0.923573	-2.099855	0.508020	0.307207	178.652466	-87.346355	-89.107831			
13267	9.576735	0.655623	-0.854942	-0.646531	0.379417	-0.204763	-179.937538	-86.886900	-90.904509			
13268	9.215384	-0.570759	-0.858937	0.572742	0.306800	-0.562601	-179.358522	-86.393020	-91.878420			
13269	8.988552	-0.831708	-0.396146	0.819824	-0.225026	-0.817159	-179.381772	-85.948270	-92.153974			
13270	8.858015	-1.229104	-0.470682	1.215955	-0.223881	-0.943212	-179.335348	-85.509126	-92.260403			
13271	8.889887	-1.222678	-0.936362	1.218572	0.171586	-0.874728	-179.292147	-85.054986	-91.967160			
13272	9.061249	-0.692338	-1.319289	0.690430	0.483100	-0.668531	-179.278983	-84.574636	-91.412578			
13273	9.097477	-0.273684	-1.369352	0.266800	0.464836	-0.624301	-179.361148	-84.124984	-90.862161			
13274	9.098461	-0.734062	-1.097917	0.724918	0.126705	-0.648388	-179.542921	-83.707440	-90.318355			
13275	9.357771	-1.174187	-0.911830	1.166912	-0.147831	-0.410870	-179.567276	-83.274009	-89.865578			
13276	9.386688	-1.384546	-1.007943	1.376300	-0.115317	-0.371553	-179.425804	-82.828566	-89.472779			
13277	9.302266	-1.063949	-1.232494	1.048133	0.050541	-0.427501	-179.158392	-82.388401	-89.195380			
13278	9.420159	-0.664248	-1.108988	0.647081	-0.163191	-0.327711	-178.828701	-81.959309	-89.081244			
13279	9.440205	-0.484445	-0.983711	0.467250	-0.360902	-0.327386	-178.486531	-81.560609	-89.026755			
13280	9.394084	-0.268105	-1.109189	0.239215	-0.304449	-0.357493	-178.017920	-81.144928	-89.023358			
13281	9.302998	0.213943	-1.382637	-0.266824	-0.115472	-0.409590	-177.429780	-80.713506	-89.018441			
13282	9.349865	0.750472	-1.596048	-0.830001	-0.025314	-0.334271	-176.778687	-80.256638	-89.021376			
13283	9.526525	1.060737	-1.716705	-1.163780	-0.046679	-0.144717	-176.168251	-79.793671	-89.038316			
13284	9.534482	1.026579	-1.653573	-1.139767	-0.195112	-0.150557	-175.601019	-79.346128	-89.113463			
13285	9.428831	0.819557	-1.588566	-0.941813	-0.302677	-0.267066	-175.068659	-78.912305	-89.214830			
13286	9.376638	0.559862	-1.705927	-0.708765	-0.231525	-0.294889	-174.575169	-78.471700	-89.309712			
13287	9.314934	0.302398	-2.076625	-0.505756	0.090182	-0.278153	-174.168258	-78.014542	-89.346648			
13288	9.300987	0.216186	-2.371010	-0.466487	0.307458	-0.228113	-173.834542	-77.536666	-89.321790			
13289	9.436854	0.390643	-2.208468	-0.629621	0.016427	-0.133490	-173.633249	-77.054581	-89.215940			
13290	9.742808	0.417359	-1.573997	-0.578876	-0.752270	0.019525	-173.579016	-76.590421	-89.066936			
13291	9.770012	0.275514	-0.743592	-0.326735	-1.619899	-0.150873	-173.655489	-76.154158	-88.829301			
13292	9.549385	0.084140	-0.035932	-0.034440	-2.295818	-0.543021	-173.773981	-75.725585	-88.519179			
13293	9.594722	-0.261966	0.275982	0.366850	-2.630239	-0.584996	-173.864437	-75.286353	-88.149335			
13294	9.602508	-0.631865	0.289186	0.754386	-2.663227	-0.591586	-173.862363	-74.832797	-87.773794			
13295	9.367385	-0.832872	0.191194	0.956004	-2.545466	-0.808000	-173.754994	-74.381042	-87.431239			
13296	9.225601	-0.707657	0.187039	0.846777	-2.584996	-0.966905	-173.502722	-73.932903	-87.166014			
13297	9.380032	-0.111039	0.355194	0.302011	-2.944879	-0.904289	-173.131212	-73.499507	-86.994319			
13298	9.745346	0.569985	0.463572	-0.332301	-3.331570	-0.631114	-172.625331	-73.094466	-86.935939			
13299	10.205908	1.669632	0.457092	-1.397329	-3.724003	-0.255705	-172.046789	-72.736851	-86.954107			
13300	10.300714	2.347673	0.273704	-2.089205	-3.775529	-0.165337	-171.503220	-72.447943	-87.029173			
13301	10.292853	2.720237	-0.241252	-2.551819	-3.432987	-0.060609	-170.884973	-72.175367	-87.069838			
13302	10.264053	3.259540	-0.646123	-3.161071	-3.228293	-0.015845	-170.306888	-71.929683	-87.092214			
13303	10.204499	2.957209	-0.954796	-2.933072	-2.923248	0.017875	-169.902097	-71.735305	-87.103668			
13304	10.118471	2.195713	-1.088202	-2.221492	-2.654084	0.006145	-169.683335	-71.574751	-87.056676			
13305	9.759671	1.342186	-0.888953	-1.347110	-2.569855	-0.356263	-169.605651	-71.434826	-86.927291			
13306	9.458106	0.719292	-0.449629	-0.636927	-2.763920	-0.750108	-169.635590	-71.312836	-86.745081			
13307	9.899842	-0.005169	-0.269428	0.127711	-2.927807	-0.352715	-169.656316	-71.189364	-86.565390			
13308	11.152914	-0.212733	-0.210833	0.378486	-3.357601	0.820300	-169.594984	-71.071440	-86.384441			
13309	11.721026	0.094558	-0.313167	0.078839	-3.535637	1.366869	-169.460301	-71.009167	-86.202284			
13310	11.875232	0.339299	-0.075945	-0.084054	-3.868714	1.419766	-169.279937	-70.998544	-85.983959			
13311	12.298804	0.310246	0.725245	0.172599	-4.727839	1.567142	-169.052318	-71.050693	-85.754857			
13312	13.134429	0.255765	1.040478	0.347305	-5.251751	2.268687	-168.775082	-71.186592	-85.570159			
13313	13.916158	0.310118	0.644340	0.223340	-5.112752	3.148036	-168.425884	-71.445363	-85.471643			
13314	14.047121	0.286227	0.443555	0.199699	-4.891057	3.364460	-168.003686	-71.839806	-85.414837			
13315	13.909616	0.470698	0.864242	0.140231	-5.180619	3.132821	-167.583841	-72.349319	-85.350551			
13316	13.428770	0.516488	1.684003	0.327153	-5.670295	2.482573	-167.221626	-72.973449	-85.287460			
13317	12.959212	0.409492	1.242475	0.283759	-4.956619	2.228979	-166.907140	-73.707213	-85.370123			
13318	12.609633	-0.986791	0.886347	1.483363	-3.961995	2.139798	-167.182311	-74.529834	-85.416991			
13319	12.991570	-4.148482	1.112078	4.549694	-3.151338	2.700974	-167.322589	-75.759566	-85.693065			
13320	11.734245	-7.433322	1.627560	7.774380	-2.138724	1.614234	-166.921101	-77.294512	-86.466008			
13321	11.740624	-8.895851	-1.071842	8.343171	1.086985	2.325154	-165.569386	-78.841644	-87.698218			
13322	12.554574	-5.918355	-2.109097	5.105799	1.436680	3.185165	-163.575625	-80.379238	-88.908242			
13323	12.458339	-3.502344	-2.788895	2.491147	1.759147	3.069184	-161.727646	-81.765100	-89.662322			
13324	12.558002	-2.648022	-2.901938	1.544257	1.922075	3.112016	-159.979794	-83.030108	-89.963470			
13325	12.996157	-1.278119	-3.154334	0.066639	1.941287	3.480269	-158.516011	-84.243884	-89.385220			
13326	12.704260	2.076171	-2.707994	-2.937210	0.520833	2.999087	-158.801439	-85.331621	-87.298132			
13327	12.817283	2.603245	-3.493671	-3.746957	1.203314	3.140049	-160.804795	-86.540778	-84.574130			
13328	11.572453	-0.063127	-3.640312	-1.398751	2.764523	1.916444	-163.267683	-87.820150	-81.985571			
13329	11.271377	-1.296802	-4.203750	-0.532617	4.042524	1.578840	-170.067483	-88.919105	-74.962378			
13330	11.234808	-0.967945	-3.921623	-0.736085	3.866364	1.458603	99.386828	-89.730717	15.903137			
13331	10.956896	0.404786	-3.761161	-1.927745	3.340396	1.118266	37.504299	-88.848638	77.887231			
13332	10.871109	1.039961	-2.863794	-2.121889	2.462937	0.998940	30.246826	-87.762037	84.923579			
13333	10.432396	1.474764	-2.351590	-2.296777	2.018267	0.540420	27.105982	-86.643999	87.523421			
13334	10.399963	1.163681	-1.833081	-1.794991	1.893812	0.485916	25.157286	-85.570271	88.886339			
13335	10.563108	1.758331	-1.100971	-2.046217	1.219434	0.685149	23.216646	-84.440432	90.153324			
13336	9.983662	1.233353	-1.301462	-1.658641	1.781153	0.034169	21.028769	-83.290680	91.419758			
13337	9.609942	0.563378	-1.504183	-1.127256	2.387044	-0.434049	19.159438	-82.190543	92.410340			
13338	9.213083	0.317446	-1.529937	-0.914181	2.632039	-0.893256	17.492544	-81.136839	93.246153			
13339	8.721263	-0.025514	-1.789970	-0.687391	3.080634	-1.488023	15.860140	-80.131137	94.052790			
13340	8.083694	-0.304909	-1.832690	-0.432932	3.244888	-2.191693	14.378705	-79.206628	94.695826			
13341	7.721590	-0.463171	-1.854082	-0.281991	3.365406	-2.610713	12.973884	-78.346929	95.265474			
13342	7.642480	-0.871937	-2.223778	0.000168	3.921678	-2.831828	11.494359	-77.525471	95.864981			
13343	7.293547	-1.071180	-2.208819	0.213761	3.979259	-3.229285	9.923107	-76.756694	96.518213			
13344	7.027015	-1.739926	-2.025406	0.924312	4.001192	-3.516316	8.353583	-76.087060	97.207751			
13345	6.724805	-1.925767	-1.637886	1.220646	3.664815	-3.755196	6.858091	-75.473187	97.896973			
13346	6.371659	-2.667032	-1.294678	2.037493	3.475523	-4.054512	5.394004	-74.900788	98.538824			
13347	6.049738	-2.929407	-0.826246	2.411838	3.038195	-4.261490	4.124789	-74.374423	99.160642			
13348	5.646277	-3.212103	-0.597768	2.746050	2.799502	-4.599499	3.078352	-73.901281	99.728180			
13349	5.584487	-3.399647	-0.464112	2.949177	2.717207	-4.628231	2.380595	-73.493618	100.133335			
13350	5.433267	-3.183590	-0.041845	2.824558	2.252009	-4.654424	2.014703	-73.186418	100.331245			
13351	5.438015	-3.254151	-0.036237	2.888356	2.278449	-4.652370	1.881975	-73.001259	100.389849			
13352	5.290135	-3.085973	0.053282	2.749164	2.127341	-4.770059	2.032656	-72.916330	100.269863			
13353	4.978006	-3.276682	0.215682	2.986684	1.934462	-5.027159	2.327970	-72.954038	100.168457			
13354	4.935656	-3.258067	0.439134	3.019306	1.717778	-5.006279	2.829663	-73.139178	100.107220			
13355	5.134765	-3.117387	0.477328	2.882515	1.716556	-4.807062	3.528807	-73.471966	100.105706			
13356	5.681108	-1.952663	0.671551	1.772966	1.414627	-4.209629	4.317915	-73.895751	100.134868			
13357	6.276308	-0.978657	0.843058	0.850576	1.153826	-3.567237	4.703438	-74.315910	100.318530			
13358	6.488581	-0.821456	0.770208	0.676084	1.198824	-3.372558	4.919406	-74.774230	100.671718			
13359	6.979458	0.252095	1.080951	-0.295600	0.699447	-2.786457	4.970499	-75.264322	101.143500			
13360	7.721203	1.048380	1.537907	-0.967028	0.174764	-1.931374	4.821841	-75.740640	101.696397			
13361	8.743031	1.857263	2.233402	-1.594656	-0.527205	-0.754170	4.499423	-76.159815	102.350925			
13362	10.071293	2.788260	3.348090	-2.233207	-1.597850	0.811538	4.091813	-76.513345	103.038129			
13363	12.057499	3.802495	4.475166	-2.991903	-2.562475	3.007265	3.325667	-76.765518	103.798831			
13364	13.688463	4.076298	5.356184	-3.152193	-3.133539	4.779183	2.010607	-76.830757	104.514650			
13365	14.510993	2.794428	6.162263	-1.876213	-3.315854	5.738319	0.537473	-76.663080	104.911234			
13366	13.737237	2.368713	8.335107	-1.033906	-5.346034	5.489072	-0.576620	-76.369104	104.851264			
13367	11.937543	1.728149	10.081101	-0.069145	-7.177806	4.172719	-1.160176	-76.123695	104.422791			
13368	10.140510	1.253613	10.585933	0.497886	-7.930973	2.569355	-0.982471	-76.053439	103.815419			
13369	9.352199	1.978091	9.836347	-0.308977	-7.572368	1.619430	-0.025241	-76.221126	103.128771			
13370	9.341327	2.839508	8.256459	-1.392305	-6.314210	1.218315	1.225395	-76.511990	102.409065			
13371	8.921491	2.598159	6.503068	-1.427709	-4.752249	0.385840	2.449356	-76.833368	101.695330			
13372	8.413538	2.096729	4.645452	-1.275874	-3.047724	-0.547327	3.567737	-77.198869	100.991186			
13373	8.522014	1.863867	2.646363	-1.486998	-1.142385	-0.891634	4.525742	-77.625019	100.332691			
13374	8.968043	1.604226	0.396347	-1.776129	1.065004	-0.931991	5.502771	-78.161573	99.708464			
13375	9.755227	1.482573	-1.756029	-2.209498	3.182131	-0.569489	6.752107	-78.852896	99.030277			
13376	10.872620	1.668315	-2.859539	-2.696421	4.246527	0.378875	8.003558	-79.621039	98.391461			
13377	10.791747	2.717638	-3.394821	-3.819825	4.306227	0.298487	8.980080	-80.304043	97.457355			
13378	11.115337	3.126665	-3.999644	-4.306297	4.739812	0.594625	8.906991	-81.056038	96.229264			
13379	14.146636	0.248258	-4.050638	-1.446880	5.902214	3.591109	6.832734	-81.954830	96.192039			
13380	17.547340	-1.223870	-0.086044	0.900794	2.641628	7.554416	2.808410	-82.808223	97.758589			
13381	19.437475	-3.607573	5.887084	4.093780	-2.844479	10.202667	-3.525810	-83.073249	101.117144			
13382	17.703630	-10.176561	8.956443	10.593374	-5.571022	8.999699	-9.232127	-82.664578	104.195804			
13383	13.016010	-13.186862	5.117021	13.120194	-2.279340	4.049415	-11.755635	-82.591915	106.800334			
13384	11.910886	-5.282440	4.563328	5.207224	-2.545372	2.717400	-12.786015	-82.623119	108.459258			
13385	7.671689	-4.174054	0.652155	3.895898	0.707831	-2.000915	-13.227820	-82.350160	108.346442			
13386	2.674159	-3.795512	-6.441047	3.132261	7.040718	-7.899297	-11.257826	-82.226165	106.070801			
13387	0.185270	-3.798458	-15.096359	2.346751	15.292183	-11.542086	-5.800738	-82.449315	102.079951			
13388	-6.150527	-4.657844	-23.024254	1.659713	22.539622	-18.683425	5.138098	-83.662305	94.005946			
13389	-2.483670	0.119186	-15.004605	-2.757415	14.438070	-13.713706	13.409794	-85.239927	87.774240			
13390	9.857096	-2.317746	-9.308337	0.337441	10.214760	-0.609549	9.647584	-87.191642	93.120542			
13391	22.690934	6.682229	9.359753	-4.620125	-9.872674	13.171089	-26.344808	-88.882219	129.103273			
13392	15.980739	5.278584	4.621907	-4.360220	-5.445175	6.185672	-38.333262	-89.064968	140.412146			
13393	12.733808	5.328621	2.853483	-4.788180	-3.818943	2.882766	-72.300977	-89.230604	174.090633			
13394	11.939410	5.742659	2.328578	-5.307861	-3.487221	2.045427	-101.847332	-89.098828	-156.258065			
13395	10.085717	4.957702	0.401005	-4.916847	-1.516129	0.186651	-113.486760	-88.879872	-144.312941			
13396	8.764278	4.009391	-2.177802	-4.527652	1.140718	-1.104694	-122.810916	-88.601598	-134.604686			
13397	7.973702	2.994208	-4.464285	-4.042975	3.519974	-1.829057	-133.194776	-88.117661	-124.026023			
13398	8.178578	1.114420	-5.262762	-2.408103	4.605909	-1.517325	-141.640883	-87.428442	-115.539179			
13399	8.904318	-0.044481	-3.872747	-0.988797	3.361904	-0.756999	-147.490571	-86.715351	-109.716702			
13400	9.050109	-0.633227	-1.930889	0.024155	1.477786	-0.655815	-151.885556	-86.094686	-105.661295			
13401	9.194158	-1.800556	-0.696814	1.449968	0.406127	-0.539520	-155.349740	-85.564673	-102.972114			
13402	9.401583	-2.788662	0.004808	2.577689	-0.218427	-0.353684	-158.324093	-85.112482	-101.136448			
13403	9.454578	-3.729106	-0.137986	3.493793	-0.046278	-0.267846	-160.390175	-84.779876	-100.330946			
13404	9.046273	-4.156396	-0.316056	3.908927	0.110021	-0.652025	-161.638327	-84.534068	-100.091754			
13405	8.616330	-4.194804	-0.453477	3.942439	0.198548	-1.068521	-162.272091	-84.248625	-99.906687			
13406	8.669774	-3.623946	-0.623796	3.350372	0.226045	-1.014344	-162.481504	-83.862649	-99.393423			
13407	8.947652	-2.348150	-0.796516	2.048056	0.148874	-0.757750	-162.486944	-83.426772	-98.567191			
13408	9.198298	-1.141818	-1.110332	0.788479	0.195100	-0.512945	-162.340600	-82.975918	-97.650670			
13409	9.470791	0.048486	-1.374457	-0.450000	0.144179	-0.254266	-162.202434	-82.500828	-96.708434			
13410	9.593558	0.870298	-1.522790	-1.299125	0.020282	-0.147099	-162.223198	-82.002992	-95.708933			
13411	9.539141	1.450502	-1.675189	-1.902971	-0.050104	-0.206405	-162.407741	-81.529511	-94.712919			
13412	9.553640	1.778987	-1.784681	-2.247595	-0.121948	-0.192161	-162.681836	-81.078622	-93.841660			
13413	9.546459	1.715842	-1.809398	-2.187819	-0.176315	-0.193195	-163.003260	-80.645243	-93.130654			
13414	9.490728	1.227314	-1.504159	-1.633204	-0.429791	-0.273816	-163.340998	-80.204839	-92.506653			
13415	9.497831	0.895536	-1.178776	-1.223005	-0.743915	-0.307396	-163.673226	-79.744024	-91.948801			
13416	9.545459	0.155972	-1.184094	-0.498591	-0.650741	-0.227828	-164.012534	-79.244141	-91.429519			
13417	9.718685	-0.306491	-1.359957	-0.087208	-0.488017	-0.007085	-164.226357	-78.737907	-90.923611			
13418	9.806729	-0.356881	-1.464553	-0.057241	-0.478919	0.097458	-164.441005	-78.257286	-90.389106			
13419	9.837568	-0.539683	-1.431729	0.138526	-0.548692	0.127036	-164.728041	-77.820030	-89.886069			
13420	9.759106	-0.736352	-1.326147	0.370820	-0.652745	0.035004	-165.155381	-77.416859	-89.378606			
13421	9.945474	-1.363354	-1.186969	1.031235	-0.729669	0.216459	-165.588274	-77.004950	-88.809859			
13422	10.135669	-1.193693	-0.682196	1.025973	-1.358625	0.273103	-165.996431	-76.600253	-88.173292			
13423	9.913183	-1.011435	-0.346726	0.966569	-1.734094	-0.041676	-166.473153	-76.203487	-87.477781			
13424	9.508920	-1.107932	0.147248	1.221772	-2.132515	-0.559146	-167.041804	-75.818849	-86.722233			
13425	9.115415	-1.381734	0.734189	1.677205	-2.562555	-1.085779	-167.676058	-75.419897	-85.911265			
13426	8.760562	-1.749584	1.249951	2.205776	-2.902565	-1.561618	-168.312869	-75.002348	-85.095826			
13427	8.556949	-1.987513	1.452206	2.523655	-3.018771	-1.825302	-168.832581	-74.591881	-84.374293			
13428	8.810701	-2.055725	1.641282	2.682714	-3.284164	-1.653931	-169.140858	-74.218562	-83.841903			
13429	8.863431	-2.124718	1.385112	2.705644	-3.075133	-1.553372	-168.947738	-73.877592	-83.469661			
13430	9.423748	-0.798703	1.187189	1.430028	-3.465580	-1.049187	-168.123957	-73.540840	-83.213839			
13431	9.899679	0.941351	0.992406	-0.226636	-4.009248	-0.661255	-166.906111	-73.240814	-83.045906			
13432	10.019988	2.880722	0.672141	-2.105808	-4.484232	-0.614511	-165.541797	-72.965572	-82.917742			
13433	10.067672	5.344313	0.244309	-4.496608	-5.113905	-0.669058	-164.628956	-72.707299	-82.701796			
13434	10.616640	6.406554	0.037826	-5.492839	-5.590412	-0.203632	-164.155480	-72.603255	-82.661264			
13435	10.328470	5.223785	-0.771555	-4.716543	-4.391499	-0.167511	-163.771002	-72.571402	-82.820616			
13436	10.621536	4.777182	-1.011809	-4.389465	-4.126942	0.205450	-163.364674	-72.517748	-82.901527			
13437	11.412328	4.558902	-0.904459	-4.116062	-4.397385	0.937376	-163.111447	-72.509293	-82.957937			
13438	11.982403	3.232865	-0.835298	-2.855386	-4.108778	1.575544	-163.028264	-72.588991	-83.007018			
13439	12.521313	1.955466	-0.642738	-1.591534	-3.914108	2.152551	-163.034823	-72.727687	-82.955119			
13440	13.396454	1.291409	0.001730	-0.691456	-4.436493	2.874786	-163.166273	-72.915107	-82.829026			
13441	14.326686	0.425657	0.750017	0.433385	-4.965097	3.646778	-163.387514	-73.192395	-82.781941			
13442	14.091737	-0.699940	0.931643	1.515503	-4.540730	3.492171	-163.660316	-73.581491	-82.843011			
13443	13.960523	-1.887749	1.290771	2.715559	-4.272675	3.396967	-163.873536	-74.070500	-83.126401			
13444	13.686036	-3.765801	1.273276	4.389882	-3.386710	3.316232	-163.982591	-74.602868	-83.666904			
13445	14.483757	-4.724129	2.489331	5.692288	-4.241263	3.895017	-163.930427	-75.373696	-84.590868			
13446	13.478207	-6.991722	3.337913	7.986053	-3.840573	2.960639	-163.418386	-76.514153	-86.131581			
13447	12.614742	-10.490770	1.289234	10.427113	-0.413671	2.913203	-161.515101	-77.759382	-88.240241			
13448	12.765170	-8.784871	-0.629949	8.018759	1.046459	3.420172	-157.827568	-79.127678	-91.284328			
13449	12.580703	-6.575477	-1.868042	5.323780	1.841602	3.349752	-153.177393	-80.487658	-95.027441			
13450	13.634909	-5.386445	-2.288968	3.854479	2.017866	4.372487	-148.004938	-81.754254	-99.237211			
13451	14.739578	-5.218744	-2.613059	3.354468	2.510367	5.476026	-141.533085	-83.017250	-104.598344			
13452	14.586649	-4.255837	-3.253194	2.013692	3.154787	5.268409	-133.168258	-84.205807	-111.544239			
13453	13.839458	-2.639165	-3.620822	0.212127	3.250643	4.364077	-121.858562	-85.195247	-121.204573			
13454	12.778494	-1.234992	-4.170947	-1.462384	3.470376	3.149580	-107.382297	-85.955810	-133.477004			
13455	12.259979	-0.231861	-4.404040	-2.646784	3.408112	2.480773	-89.341868	-86.502980	-149.005290			
13456	11.830262	0.945476	-3.438011	-3.297613	2.128429	1.903153	-67.259978	-86.682009	-168.861783			
13457	10.916938	1.314482	-3.450209	-3.674918	2.081918	0.909686	-47.064744	-86.478062	172.233545			
13458	10.058102	0.639355	-3.197644	-2.997975	2.413219	0.035398	-32.725791	-85.959338	158.121447			
13459	9.519527	-0.427869	-2.751801	-1.880666	2.826937	-0.493599	-22.828743	-85.212794	147.928222			
13460	8.942997	-1.143991	-2.196452	-0.970096	2.928204	-1.060980	-15.287379	-84.401550	140.247396			
13461	8.521459	-0.917629	-2.176574	-1.152549	2.911444	-1.543015	-8.875150	-83.498050	134.282578			
13462	8.076680	0.581250	-2.046954	-2.305142	2.029949	-2.045763	-3.574926	-82.718726	129.757802			
13463	8.304108	2.283356	-2.571249	-4.026168	1.574225	-1.932715	0.891744	-81.926145	125.716648			
13464	8.049263	2.710706	-1.952126	-3.995733	0.923717	-2.123181	3.511904	-81.116226	122.804963			
13465	8.258951	1.917779	-1.600174	-3.184777	1.294994	-1.899004	5.302416	-80.160129	120.403889			
13466	7.613571	1.388674	-1.302255	-2.545901	1.426740	-2.527656	6.752032	-79.217755	118.433830			
13467	7.538501	1.653802	-1.233471	-2.732963	1.343702	-2.614812	7.971147	-78.347214	116.855703			
13468	7.300434	2.026668	-1.133060	-2.976232	1.136216	-2.845823	8.828586	-77.523139	115.488948			
13469	7.192489	1.756734	-1.136378	-2.757769	1.388805	-2.988160	9.167502	-76.806992	114.506539			
13470	7.180056	1.836585	-1.325344	-2.938243	1.607706	-3.070014	9.124940	-76.120936	113.775995			
13471	6.991949	1.563186	-1.605344	-2.848349	2.049415	-3.363358	8.740258	-75.498372	113.280484			
13472	6.850558	1.347543	-1.798877	-2.754532	2.385277	-3.591416	8.175360	-74.968017	112.933442			
13473	6.823637	1.150673	-2.038339	-2.700114	2.763636	-3.720732	7.304673	-74.503150	112.776279			
13474	6.833888	0.519042	-2.213611	-2.227962	3.303968	-3.813444	6.078213	-74.063318	112.824091			
13475	6.787238	-0.148568	-2.002637	-1.522441	3.498546	-3.851039	4.631862	-73.656741	113.035050			
13476	6.674202	-0.856237	-1.741661	-0.747190	3.617175	-3.924640	3.068607	-73.294942	113.334065			
13477	6.526646	-1.498894	-1.369291	0.022552	3.565826	-3.981470	1.409952	-72.943878	113.719299			
13478	6.261749	-2.204462	-1.202818	0.777724	3.653731	-4.194744	-0.189798	-72.606933	114.082313			
13479	5.643025	-2.976388	-1.058979	1.633238	3.660330	-4.737404	-1.517666	-72.324279	114.384024			
13480	5.203511	-3.298012	-0.798573	2.100416	3.412963	-5.066008	-2.442515	-72.143176	114.458686			
13481	4.787890	-3.642735	-0.462392	2.610435	3.102623	-5.344301	-3.041466	-72.097586	114.450624			
13482	4.619991	-3.664172	0.142337	2.876062	2.497869	-5.309405	-3.238509	-72.261199	114.325425			
13483	4.907790	-3.196982	0.768331	2.634010	1.821924	-4.848827	-3.081154	-72.643237	114.143868			
13484	5.462449	-2.652997	1.414638	2.301717	1.163181	-4.135819	-2.862214	-73.183187	114.008061			
13485	6.124493	-2.501275	2.164868	2.371492	0.560606	-3.292429	-2.636238	-73.874713	113.983982			
13486	6.940923	-2.131666	3.033368	2.283541	-0.217251	-2.285462	-2.343853	-74.706619	114.017534			
13487	7.659225	-1.546485	4.286710	2.171158	-1.479764	-1.296461	-2.101159	-75.606890	114.111416			
13488	8.789598	-0.680553	6.203847	2.028679	-3.394637	0.215578	-2.041882	-76.564692	114.376784			
13489	10.571288	0.675477	8.190772	1.434776	-5.485273	2.317678	-2.307536	-77.542514	114.957293			
13490	13.618309	2.397572	9.870809	0.292837	-7.287143	5.531507	-3.174862	-78.498651	115.926706			
13491	18.299915	3.434942	12.437046	-0.121720	-9.411705	10.503909	-5.047558	-79.051569	117.184842			
13492	18.890930	1.681791	13.850085	1.657308	-10.084891	11.330809	-7.501516	-78.850531	117.806330			
13493	14.404771	-2.219717	12.965430	4.916741	-8.750865	6.913123	-9.445471	-78.279720	117.603185			
13494	11.118802	-3.926837	10.706486	5.827692	-6.770102	3.373575	-10.013260	-78.005106	117.162700			
13495	11.155262	-2.234205	9.005855	3.614690	-5.715826	3.024761	-10.020708	-77.971935	116.703485			
13496	10.580062	-2.747396	7.104955	3.595424	-3.909794	2.093305	-9.799955	-77.947197	116.064401			
13497	9.653037	-2.378812	5.146868	2.795575	-2.352646	0.769369	-9.056090	-77.937466	115.171405			
13498	8.497794	-0.387350	2.900143	0.412651	-1.005269	-0.891231	-7.820221	-77.946533	113.951174			
13499	7.940408	1.957002	-0.044914	-2.542228	1.018058	-2.106689	-6.274899	-77.949990	112.381622			
13500	8.238131	3.326341	-2.563418	-4.516473	3.074432	-2.352687	-4.578099	-77.996546	110.777431			
13501	9.332327	3.734488	-4.648466	-5.519005	5.099279	-1.677330	-2.494774	-78.336190	109.240994			
13502	10.449815	3.551055	-6.259338	-5.865580	6.737260	-0.802310	0.407464	-79.097181	107.579267			
13503	12.663731	4.047953	-5.985439	-6.377036	6.469225	1.591390	3.426704	-80.166699	105.836493			
13504	18.064821	4.151705	-4.068611	-6.016402	5.205915	7.415625	4.612741	-81.416265	104.777732			
13505	22.776096	1.183623	-0.484501	-2.110320	3.127316	12.684776	2.498583	-82.591361	105.880848			
13506	25.051275	-0.332400	5.774214	1.121335	-2.362313	15.764045	-1.372584	-83.006511	107.705282			
13507	21.022661	-3.947651	16.455787	7.050884	-12.062882	13.273783	-4.917660	-81.398725	107.816332			
13508	4.708687	-12.107867	9.598074	13.491557	-6.109369	-3.370445	-7.015639	-79.447151	107.028491			
13509	-2.922760	-10.418310	-5.337171	9.541304	6.434767	-13.435524	-7.388474	-78.796146	106.953610			
13510	-5.499918	-9.095439	-21.045540	5.556197	20.937281	-19.119063	-3.209710	-78.767050	104.356666			
13511	-14.141237	-13.084534	-29.880029	6.157495	28.799583	-29.702965	12.750878	-78.562999	93.474419			
13512	-3.745050	-4.074850	-16.247875	-1.072662	15.730065	-16.590159	17.083885	-80.114811	92.556257			
13513	9.106936	0.103556	-7.333411	-2.844970	8.108901	-1.885655	5.273266	-82.486793	105.951400			
13514	23.959663	12.421597	6.718821	-10.282119	-8.735026	14.498199	-34.034407	-86.149080	144.854986			
13515	28.448514	7.559551	7.678854	-6.051995	-8.651984	18.716853	-33.433573	-86.526485	141.220046			
13516	12.260487	0.263569	0.207813	-0.775279	0.250632	2.425242	-29.550502	-86.134537	134.915438			
13517	9.390916	-0.002410	-0.642662	-0.603838	1.026185	-0.475448	-35.007811	-86.553729	139.890465			
13518	9.649569	1.293915	-0.976862	-1.938544	0.894185	-0.263738	-45.032940	-87.157857	151.267133			
13519	9.175439	2.746772	-1.873015	-3.566234	1.129029	-0.799133	-54.644935	-87.543541	163.255600			
13520	8.284184	4.794988	-2.196919	-5.584160	0.528193	-1.751727	-59.903180	-87.705305	170.701197			
13521	7.608406	5.301763	-2.189475	-6.036898	0.141249	-2.442171	-71.827731	-87.637204	-176.613451			
13522	8.692528	3.339571	-1.749038	-4.120178	0.334024	-1.287213	-91.350787	-87.165594	-157.870311			
13523	10.862781	1.419256	0.041015	-1.839292	-0.814199	0.956158	-105.508671	-86.488981	-145.246284			
13524	11.096545	-0.657974	0.908204	0.335317	-1.091209	1.281742	-111.963162	-86.073630	-140.796610			
13525	10.006534	-2.902123	0.664549	2.429076	-0.292414	0.336527	-116.434384	-85.814441	-138.449821			
13526	9.477763	-4.098664	0.915025	3.673382	-0.375666	-0.126287	-121.282905	-85.603901	-135.539458			
13527	8.961466	-4.924139	0.590217	4.439655	-0.021567	-0.582834	-125.340821	-85.438564	-132.859050			
13528	8.195672	-4.750599	-0.048580	4.199092	0.489829	-1.335267	-129.076156	-85.267311	-129.623466			
13529	8.081984	-3.578323	-0.498471	2.983286	0.646213	-1.502839	-132.650410	-84.999040	-125.797407			
13530	8.674851	-2.405240	-0.584838	1.794117	0.407161	-0.981188	-136.125324	-84.628477	-121.699480			
13531	9.284583	-1.785861	-0.691161	1.139453	0.272148	-0.405367	-138.948515	-84.202571	-118.132855			
13532	9.739164	-1.114780	-0.370933	0.540129	-0.301529	-0.022466	-141.222953	-83.753907	-115.129104			
13533	9.918184	-0.286019	-0.281101	-0.242233	-0.678643	0.087384	-142.980759	-83.351957	-112.713459			
13534	9.586697	0.284430	-0.639247	-0.857261	-0.517226	-0.252806	-144.594034	-82.968852	-110.498538			
13535	9.335979	0.526170	-1.518676	-1.299746	0.212575	-0.431397	-146.027944	-82.583048	-108.388438			
13536	8.932460	0.738065	-2.259957	-1.690058	0.826950	-0.762818	-147.146367	-82.187452	-106.446656			
13537	8.626275	0.801867	-2.683786	-1.872131	1.155267	-1.013945	-148.179117	-81.729854	-104.503933			
13538	8.677476	0.880792	-2.644747	-1.951660	0.980381	-0.964078	-149.128295	-81.216079	-102.706771			
13539	8.951615	1.074274	-2.334705	-2.054092	0.483576	-0.741726	-149.899911	-80.723892	-101.413023			
13540	8.869045	0.522647	-1.980270	-1.413336	0.247417	-0.824067	-150.717509	-80.242801	-100.467095			
13541	8.925210	-0.363265	-2.116052	-0.614464	0.562926	-0.670806	-151.529318	-79.745483	-99.689603			
13542	8.874288	-1.056583	-2.180867	0.029575	0.765199	-0.645437	-152.282336	-79.209850	-98.936028			
13543	8.827437	-1.488370	-2.056341	0.483880	0.706269	-0.667533	-152.821486	-78.666484	-98.202135			
13544	8.681552	-1.611961	-1.794367	0.690478	0.443731	-0.839771	-153.273833	-78.092424	-97.403090			
13545	8.629150	-1.475154	-1.628313	0.618930	0.170617	-0.931421	-153.703449	-77.516780	-96.616254			
13546	8.487130	-1.530443	-1.591948	0.690489	0.098125	-1.070784	-154.175080	-76.923503	-95.885764			
13547	8.782531	-1.562808	-1.646336	0.702587	-0.001732	-0.768840	-154.684912	-76.287283	-95.222497			
13548	9.144509	-1.774379	-1.777198	0.856949	-0.002104	-0.368454	-155.153415	-75.621481	-94.642322			
13549	9.351867	-1.859488	-1.814131	0.927883	-0.101847	-0.151745	-155.512812	-74.946247	-94.122674			
13550	9.510523	-1.642803	-1.440434	0.859715	-0.667775	-0.115391	-155.783779	-74.247542	-93.627097			
13551	9.365964	-1.267938	-0.551177	0.836340	-1.669130	-0.531189	-156.092726	-73.555293	-93.131621			
13552	9.208298	-0.832926	0.525963	0.831496	-2.845448	-1.039194	-156.531152	-72.879364	-92.661357			
13553	9.332440	-0.556183	1.350420	0.880256	-3.814878	-1.216280	-157.073520	-72.223153	-92.264444			
13554	9.621482	-0.414653	1.721932	0.883827	-4.379536	-1.109385	-157.490738	-71.624336	-92.036469			
13555	9.973331	-0.214915	1.358750	0.568988	-4.325101	-0.739174	-157.460890	-71.049305	-91.949783			
13556	10.511068	0.646677	0.607590	-0.502951	-4.217897	-0.157371	-156.710282	-70.439906	-91.946567			
13557	11.196841	1.816028	-0.081857	-1.843021	-4.372110	0.490683	-155.207052	-69.803105	-91.982900			
13558	11.828396	3.281395	-0.491579	-3.340131	-4.945866	0.924999	-153.310480	-69.257391	-91.926971			
13559	11.834668	5.087775	-0.269413	-4.842588	-6.026370	0.494914	-151.822209	-68.991534	-91.881161			
13560	10.805853	4.657887	-0.229279	-4.396828	-5.623605	-0.455465	-151.606869	-68.765912	-91.870527			
13561	10.993256	2.284368	0.080137	-2.147283	-5.002213	0.007872	-152.473464	-68.476608	-91.934511			
13562	11.623541	0.409995	0.522328	-0.303488	-4.871932	0.757066	-153.678211	-68.376995	-92.166063			
13563	11.094656	-0.893386	0.631457	0.905089	-4.287414	0.438513	-154.722820	-68.473142	-92.507857			
13564	11.539902	-2.074136	0.549927	1.930123	-3.970740	1.063047	-155.218660	-68.521811	-92.803075			
13565	12.640974	-2.264579	0.788071	2.158969	-4.518771	2.039027	-154.814128	-68.520828	-93.016327			
13566	13.116565	-1.215459	0.869053	1.199115	-5.113006	2.299130	-153.654068	-68.504538	-93.149116			
13567	12.968589	-0.118870	1.396300	0.413489	-5.888948	1.819051	-152.296294	-68.527935	-93.227521			
13568	13.041345	0.739053	2.317225	0.041055	-6.999520	1.456620	-151.346815	-68.666562	-93.354529			
13569	14.204395	0.913120	3.073882	0.173649	-8.076256	2.303023	-151.084914	-69.018252	-93.839667			
13570	14.849066	0.364309	3.182886	0.598007	-8.078981	3.037467	-151.208979	-69.684986	-94.977937			
13571	14.319761	-1.582452	2.046456	1.771746	-6.045993	3.304096	-151.157903	-70.575107	-96.626228			
13572	13.660702	-5.494721	1.437627	5.046620	-3.765246	3.574792	-150.021715	-71.453376	-98.332683			
13573	13.888497	-6.162146	2.910866	6.086920	-4.667758	3.621732	-146.925605	-72.491469	-100.784011			
13574	14.084811	-4.078227	2.090574	3.682190	-4.375215	3.849872	-142.946236	-73.838469	-104.286413			
13575	13.736760	-3.790066	-0.656021	2.184241	-1.523271	4.201002	-138.483658	-75.326695	-108.437495			
13576	14.112410	-2.205692	-2.543700	-0.201917	-0.068207	4.693597	-133.806115	-76.788317	-112.393829			
13577	14.689591	-1.049759	-3.631720	-1.870965	0.772902	5.219336	-128.990137	-78.212711	-116.124280			
13578	15.384730	0.053147	-4.873969	-3.563255	1.709091	5.833960	-123.785273	-79.580186	-119.923907			
13579	15.841678	0.607577	-4.863749	-4.191674	1.760365	6.134184	-117.631209	-80.877711	-124.711277			
13580	15.530715	0.781283	-3.955942	-3.969521	1.301868	5.679175	-109.535034	-82.190709	-131.485860			
13581	14.026542	0.692167	-3.403111	-3.547164	1.401738	4.124466	-98.708080	-83.262658	-141.613321			
13582	13.212847	-0.480456	-3.365814	-2.486005	2.375859	3.389680	-86.264125	-83.918204	-154.242870			
13583	12.785793	-1.763129	-2.976146	-1.155199	3.029698	3.029416	-73.124575	-84.153704	-168.367665			
13584	12.485906	-2.398019	-2.773701	-0.453095	3.477376	2.718705	-59.910365	-83.990211	176.928467			
13585	11.533938	-3.855963	-3.109139	0.844048	4.713992	1.790156	-47.953617	-83.473691	163.431492			
13586	11.060201	-4.817794	-2.055233	2.253810	4.401676	1.381242	-38.592606	-82.884478	153.551396			
13587	10.813969	-2.358103	-1.203531	0.411357	2.833694	0.945754	-28.625102	-82.006305	144.045016			
13588	9.808572	-0.389304	-1.019092	-1.184976	1.993595	-0.220222	-21.638598	-81.177614	137.168531			
13589	10.165400	-0.975598	-2.149195	-1.166833	3.521127	-0.058641	-15.575255	-80.264297	131.099648			
13590	9.881915	0.380970	-1.845513	-2.204874	2.845261	-0.418957	-10.500586	-79.372281	125.951236			
13591	9.369153	1.092685	-2.428821	-2.998831	3.195253	-1.114003	-6.484740	-78.366886	121.525902			
13592	9.250849	1.685423	-1.978913	-3.298724	2.746165	-1.215771	-3.455507	-77.285943	117.820815			
13593	8.279447	1.070224	-1.885287	-2.562599	2.944956	-2.196554	-1.337270	-76.177554	114.894195			
13594	7.921069	1.662936	-2.002115	-3.084064	2.923593	-2.639468	0.141153	-75.107667	112.698351			
13595	8.091246	2.661648	-2.983105	-4.353351	3.651815	-2.801315	0.891334	-74.004764	110.864065			
13596	7.449837	2.273905	-2.785525	-3.818350	3.669225	-3.458009	0.762051	-72.833939	109.572131			
13597	7.254361	1.299821	-2.497171	-2.744680	3.892824	-3.659620	0.167895	-71.720395	108.627069			
13598	7.033036	0.411882	-2.580260	-1.860638	4.349094	-3.989317	-0.781609	-70.625464	108.003299			
13599	6.273912	-1.246033	-2.258886	-0.053815	4.424464	-4.670975	-1.996889	-69.595067	107.569386			
13600	5.636924	-2.533222	-2.117279	1.340973	4.486176	-5.257409	-3.212298	-68.679164	107.351177			
13601	5.073818	-3.165436	-2.212555	2.045774	4.549095	-5.840376	-4.328935	-67.836620	107.184390			
13602	4.749339	-3.607132	-2.051616	2.587202	4.388154	-6.094212	-5.290272	-67.064897	107.080930			
13603	4.446716	-3.990392	-2.109578	3.022474	4.402100	-6.401987	-5.976558	-66.403585	106.941874			
13604	4.252074	-3.880552	-1.983922	2.983375	4.189753	-6.553833	-6.323993	-65.866967	106.753354			
13605	3.776854	-3.667568	-1.805136	2.878123	3.802377	-6.943456	-6.389228	-65.457454	106.463248			
13606	3.263114	-3.273979	-1.430761	2.619264	3.193337	-7.291587	-6.167043	-65.196432	106.119414			
13607	2.781912	-2.892756	-1.095606	2.359943	2.633342	-7.620980	-5.744043	-65.052172	105.664618			
13608	2.590309	-2.530417	-0.917574	2.057419	2.334949	-7.746367	-5.286781	-65.068402	105.306484			
13609	2.740853	-2.345604	-0.864863	1.873322	2.315403	-7.600971	-4.782762	-65.240618	104.933997			
13610	2.978545	-2.223926	-0.640357	1.768472	2.183792	-7.296502	-4.271464	-65.598557	104.655123			
13611	3.221855	-2.093800	-0.465512	1.648031	2.090131	-7.002638	-3.670173	-66.158664	104.493683			
13612	3.837343	-1.069601	0.484630	0.750251	1.254502	-6.075398	-2.930604	-66.919302	104.435530			
13613	4.796766	0.327124	1.856753	-0.434329	0.038522	-4.677253	-2.258040	-67.850736	104.530885			
13614	6.256080	2.068361	3.400892	-1.915425	-1.315689	-2.771336	-1.750955	-68.916111	104.795675			
13615	8.943020	3.342248	4.463595	-3.114164	-1.815135	0.090603	-1.787390	-70.031639	105.247970			
13616	12.881338	3.571124	5.015792	-3.535283	-1.305523	3.958012	-2.506143	-71.052915	105.872876			
13617	16.804863	2.551613	6.101012	-2.679660	-1.083224	8.013631	-3.654841	-71.825951	106.373269			
13618	19.615420	0.637801	7.967730	-0.768195	-1.747450	11.282544	-4.907676	-72.222838	106.451541			
13619	19.122806	-1.390459	10.591502	1.580385	-4.060976	11.653598	-6.009945	-72.297138	106.162577			
13620	14.946878	-2.466421	11.496463	2.928115	-5.987530	7.998342	-6.735541	-72.043071	105.649461			
13621	9.475932	-2.611016	10.538413	3.256000	-6.681089	2.533569	-6.697651	-71.868683	105.218334			
13622	6.902740	-0.181955	9.358566	0.915659	-6.719730	-0.364407	-6.191244	-72.071410	105.036311			
13623	6.997822	1.066027	7.729609	-0.486146	-5.399216	-0.842510	-5.846665	-72.514924	105.046825			
13624	7.339097	0.583295	6.160382	-0.214969	-3.804974	-1.001994	-5.560970	-72.946966	104.962431			
13625	6.769154	0.006462	3.929373	0.096806	-1.822643	-2.201534	-5.119110	-73.430405	104.653194			
13626	6.306048	-0.330516	1.915847	0.191378	-0.051488	-3.216773	-4.254166	-74.118588	104.075877			
13627	7.554318	-0.081869	0.590285	-0.298210	1.399315	-2.371295	-3.083090	-75.126020	103.465810			
13628	10.307997	-0.574676	-0.722838	-0.149305	3.257426	0.009221	-1.821420	-76.478511	103.144852			
13629	13.637838	-1.106008	-1.256199	0.143420	4.351247	3.219085	-0.657308	-78.086379	103.229746			
13630	14.306368	-0.703633	-2.035207	-0.398464	4.787719	3.833386	1.164186	-79.714088	102.874315			
13631	12.903061	1.853914	-1.940461	-2.736845	3.452523	2.607714	3.889092	-81.331553	101.674949			
13632	16.482715	7.111962	-1.059055	-7.571184	1.227689	6.451285	5.016848	-83.224712	101.337938			
13633	26.882337	10.928308	1.850228	-10.645602	-1.991673	17.172315	0.157310	-84.846192	104.756723			
13634	31.646970	7.240967	9.880674	-5.824897	-8.310137	22.566841	-8.018292	-84.447895	107.470046			
13635	23.149318	-3.778151	18.480251	4.522010	-15.093341	15.535448	-13.380587	-80.998102	103.802698			
13636	-1.259292	-30.824042	3.385080	30.725626	-4.265416	-9.101641	-15.782710	-78.695643	102.249131			
13637	-3.076815	-13.618017	-5.685266	14.018072	4.408313	-13.172132	-15.920815	-78.751235	103.970079			
13638	-1.932957	-7.052011	-15.226726	7.547865	14.469876	-14.167018	-15.536212	-79.011028	104.887925			
13639	-4.211602	-7.277990	-19.489209	7.314131	18.552316	-17.076246	-10.926702	-80.169585	102.836556			
13640	-0.502023	-5.083061	-16.142813	4.133025	16.178843	-12.594004	-6.551304	-82.475054	101.698610			
13641	5.555865	0.875994	-11.466297	-2.402564	11.825024	-5.635966	-10.030449	-84.093607	108.775273			
13642	14.329650	12.194708	5.593204	-11.443883	-6.613153	4.695149	-17.694107	-86.117997	120.150636			
13643	18.568766	9.979091	1.199947	-10.012494	-2.361281	8.626040	-14.557311	-87.137205	116.909987			
13644	16.636769	2.597275	-0.327943	-2.961526	0.491966	6.759053	-16.964127	-87.555298	117.423190			
13645	13.600269	0.562626	-0.885773	-0.963708	1.242752	3.737023	-22.754847	-87.949062	121.606534			
13646	9.557834	1.043572	-0.845642	-1.336359	0.939015	-0.300143	-29.804021	-88.268990	128.102789			
13647	7.499050	1.360975	-1.861085	-1.766657	1.772574	-2.377121	-48.536310	-88.663797	147.412297			
13648	7.546958	1.775651	-2.781803	-2.372860	2.496303	-2.330469	-79.047735	-88.690398	179.290689			
13649	8.141689	3.915286	-2.917455	-4.597688	2.083034	-1.772361	-103.614283	-88.223253	-155.097875			
13650	10.292684	4.368288	-2.234437	-5.046037	1.151807	0.347208	-114.241687	-87.465196	-144.790855			
13651	10.439562	1.254662	-2.123214	-2.036267	1.549324	0.604576	-117.725339	-86.850233	-142.194237			
13652	9.241634	-0.820420	-1.828776	0.080591	1.594707	-0.491997	-121.355837	-86.415607	-139.457349			
13653	8.546473	-2.687873	-1.680209	1.993547	1.683115	-1.078744	-127.060766	-86.136853	-134.808982			
13654	8.349296	-4.181717	-1.727286	3.534745	1.814376	-1.187615	-135.036340	-85.934946	-128.208122			
13655	8.426021	-4.828694	-1.397644	4.301116	1.367014	-1.100950	-143.772311	-85.608590	-121.169690			
13656	8.616667	-4.987491	-1.271247	4.538038	1.011542	-0.917968	-149.727175	-85.109840	-116.946624			
13657	8.665065	-5.443388	-0.856082	5.050657	0.414238	-0.881648	-153.096247	-84.575555	-114.467921			
13658	8.275038	-5.325748	-1.205202	4.928014	0.689184	-1.237611	-154.843568	-83.949875	-111.952270			
13659	8.473035	-2.977682	-0.785505	2.569358	0.099404	-1.171841	-155.018791	-83.153595	-109.825264			
13660	9.163004	-1.618128	-0.775850	1.138136	-0.157749	-0.546626	-154.005428	-82.282811	-108.387439			
13661	9.710255	-0.324967	-1.226518	-0.292954	-0.049643	-0.024479	-152.333024	-81.545018	-107.418616			
13662	9.369038	1.406656	-1.744823	-2.141625	0.055118	-0.420698	-151.057055	-80.931958	-106.305859			
13663	8.861560	3.297450	-3.508176	-4.403268	1.231938	-0.823974	-151.831447	-80.138160	-104.267248			
13664	10.062156	2.542971	-2.511030	-3.506670	0.080678	0.272673	-152.206702	-79.584364	-103.504065			
13665	9.781765	1.026463	-2.489794	-2.027766	0.363758	0.121631	-152.936622	-79.099612	-102.514820			
13666	10.060579	1.482539	-1.690853	-2.271337	-0.669205	0.220463	-153.626828	-78.529661	-101.339288			
13667	10.516185	2.463846	-1.206871	-3.096298	-1.579934	0.484540	-154.268837	-78.020175	-100.380807			
13668	10.327470	2.021500	-0.815833	-2.545966	-1.890071	0.254781	-154.939644	-77.617152	-99.780938			
13669	9.849405	0.946698	-0.826086	-1.485275	-1.574549	-0.122289	-155.693491	-77.227959	-99.223371			
13670	9.493863	0.177090	-1.098182	-0.789574	-1.116659	-0.352244	-156.460150	-76.799530	-98.608729			
13671	9.011834	-0.348646	-0.892668	-0.198482	-1.146955	-0.825133	-157.192198	-76.313399	-98.020916			
13672	8.930187	-1.526964	-1.215554	0.869367	-0.619672	-0.734308	-157.743916	-75.768228	-97.445897			
13673	8.827241	-1.952036	-1.168493	1.303253	-0.620113	-0.811997	-158.123542	-75.215583	-96.850595			
13674	8.987204	-2.130559	-1.209192	1.464872	-0.662497	-0.637400	-158.381739	-74.641381	-96.297421			
13675	9.291315	-2.172125	-1.078405	1.535197	-0.939395	-0.380313	-158.605683	-74.075581	-95.813649			
13676	9.449140	-2.092224	-0.799920	1.535816	-1.347159	-0.319041	-158.876615	-73.540028	-95.386797			
13677	9.493136	-1.979764	-0.515929	1.513569	-1.734692	-0.378461	-159.192917	-73.028426	-94.991330			
13678	9.458409	-1.736138	-0.209359	1.375494	-2.151175	-0.539102	-159.487901	-72.527335	-94.611264			
13679	9.306441	-1.495024	0.105806	1.246400	-2.534086	-0.819328	-159.682505	-72.032167	-94.236788			
13680	9.123163	-1.247832	0.265393	1.069734	-2.760865	-1.089590	-159.682053	-71.518972	-93.877109			
13681	9.179281	-0.765008	0.254387	0.614905	-2.969505	-1.111392	-159.400403	-70.976552	-93.541719			
13682	9.532596	0.087261	0.155097	-0.223985	-3.311290	-0.874766	-158.741004	-70.401267	-93.293755			
13683	9.959019	1.052408	-0.124578	-1.226579	-3.582957	-0.541128	-157.659556	-69.829503	-93.143304			
13684	10.120809	2.595795	-0.587940	-2.827546	-3.834770	-0.495406	-156.510003	-69.226261	-92.943111			
13685	10.798050	4.733443	-0.847539	-4.916445	-4.688487	-0.139709	-155.873964	-68.753667	-92.860916			
13686	10.546167	3.511430	-0.674724	-3.711050	-4.423816	-0.290880	-155.701009	-68.539876	-93.018694			
13687	10.421821	1.762673	-0.686129	-2.096952	-3.817211	-0.157444	-155.523244	-68.353879	-93.145191			
13688	10.782892	1.451054	-0.954573	-1.921323	-3.648294	0.300959	-155.230737	-68.174152	-93.189218			
13689	10.932779	1.431410	-1.136178	-1.979030	-3.571085	0.492468	-155.105081	-68.056501	-93.223704			
13690	10.912140	0.604757	-0.683187	-1.046975	-3.689106	0.444096	-155.179523	-68.012981	-93.284649			
13691	11.317665	0.194871	-0.231215	-0.510383	-4.096910	0.729410	-155.420132	-67.998177	-93.317557			
13692	12.137767	-0.286269	-0.130454	-0.047168	-4.327415	1.531721	-155.735074	-68.045712	-93.408610			
13693	12.450132	-0.856414	0.124462	0.563152	-4.465858	1.827487	-155.971917	-68.160368	-93.531657			
13694	12.400854	-1.095368	1.060012	1.110999	-5.163017	1.510453	-156.055874	-68.316923	-93.640244			
13695	12.365200	-1.358525	2.125325	1.722443	-5.965636	1.173896	-156.045649	-68.518507	-93.769847			
13696	13.056220	-1.758447	2.550929	2.211497	-6.418154	1.762304	-155.907407	-68.825388	-94.063867			
13697	14.116427	-2.305951	2.043292	2.485450	-6.104123	3.045263	-155.344636	-69.275958	-94.688744			
13698	14.254856	-2.478858	1.328612	2.338793	-5.345614	3.493807	-154.195192	-69.842691	-95.613574			
13699	14.471544	-2.785425	0.504205	2.253665	-4.432345	4.069318	-152.597286	-70.458944	-96.731892			
13700	14.067320	-3.404087	1.241495	3.011853	-4.551968	3.649158	-150.679988	-71.274800	-98.447785			
13701	13.568178	-4.701210	2.185288	4.444286	-4.582724	3.233808	-148.650786	-72.502886	-101.303115			
13702	12.310600	-7.625600	0.781134	6.616600	-1.795673	2.966265	-146.220105	-73.978952	-104.919243			
13703	13.048912	-8.964225	-1.873362	6.803370	1.151073	4.557893	-142.265973	-75.271482	-108.510665			
13704	14.480315	-4.440361	-2.321376	2.113818	0.252199	5.360723	-137.295915	-76.469298	-111.906703			
13705	14.449503	-1.589806	-3.725760	-1.226473	0.997383	5.109905	-132.142089	-77.656450	-115.316898			
13706	14.227333	0.640572	-4.888435	-3.867186	1.610648	4.649861	-126.789824	-78.840628	-119.156552			
13707	13.671954	0.665374	-5.338591	-4.155266	2.386653	4.075987	-121.285519	-79.987431	-123.330257			
13708	12.912579	-0.316268	-4.521682	-2.967208	2.429491	3.323806	-115.324413	-80.984091	-127.617854			
13709	12.821124	0.047008	-3.175209	-2.774050	1.325653	3.032799	-107.446613	-81.891229	-133.793695			
13710	11.591780	0.650565	-1.967682	-2.673018	0.350926	1.649917	-98.831088	-82.642866	-141.584994			
13711	10.989853	-0.472734	-3.092543	-2.238359	2.161949	1.181626	-90.006943	-83.143698	-150.592452			
13712	10.788354	-1.044949	-3.005336	-1.692913	2.617927	0.994152	-80.254477	-83.415148	-161.221135			
13713	10.599558	-1.742837	-2.830171	-0.966612	3.043035	0.826793	-69.961871	-83.441371	-172.757194			
13714	9.941526	-2.902060	-3.055858	0.056377	4.001562	0.216001	-60.010108	-83.259581	176.369774			
13715	9.825282	-3.041751	-2.302054	0.537717	3.580544	0.085552	-51.076807	-83.019972	167.406502			
13716	10.016832	-1.460783	-2.323842	-0.925759	3.097638	0.057203	-41.654175	-82.627749	158.654388			
13717	9.243102	0.194420	-2.102741	-2.225204	2.298571	-0.887633	-33.605580	-82.119276	150.951113			
13718	9.405752	0.399943	-2.393176	-2.562481	2.650172	-0.825884	-27.124372	-81.485838	144.345451			
13719	8.485474	-0.357112	-2.472741	-1.807739	3.157797	-1.750218	-21.896566	-80.855677	138.886694			
13720	8.352771	0.739808	-2.292518	-2.666520	2.633579	-1.968984	-17.217505	-80.220426	134.031663			
13721	7.844717	1.064067	-2.416657	-2.928001	2.678391	-2.548859	-13.419687	-79.529834	129.894606			
13722	7.206123	1.293969	-2.384899	-3.019470	2.593913	-3.221545	-10.503509	-78.862852	126.456263			
13723	7.078854	1.070838	-2.494849	-2.821047	2.893771	-3.398054	-8.360535	-78.232210	123.668641			
13724	6.687512	0.737361	-2.829435	-2.577631	3.378654	-3.878753	-6.754402	-77.652448	121.341031			
13725	6.423676	0.598821	-3.014043	-2.455537	3.649966	-4.213245	-5.623220	-77.098187	119.482491			
13726	6.311712	0.684315	-3.222772	-2.558884	3.867253	-4.410110	-4.902691	-76.618034	117.962861			
13727	6.145427	0.464054	-3.394156	-2.352943	4.153890	-4.644524	-4.701381	-76.168530	116.817954			
13728	6.104208	0.386929	-3.322296	-2.195783	4.186214	-4.703676	-4.890301	-75.705566	115.927516			
13729	6.053006	-0.195894	-3.581830	-1.673159	4.692432	-4.844041	-5.424677	-75.229319	115.237203			
13730	5.980786	-1.016894	-3.416532	-0.768736	4.862578	-4.889250	-6.193977	-74.756954	114.742861			
13731	5.626130	-1.624869	-2.939293	0.055216	4.570315	-5.117817	-6.873797	-74.361644	114.346007			
13732	5.426003	-2.083468	-2.871326	0.586815	4.612859	-5.295628	-7.508745	-74.055652	114.063580			
13733	4.970670	-2.456309	-2.479487	1.145526	4.246439	-5.624102	-7.929339	-73.834679	113.714297			
13734	4.467072	-3.022123	-2.228611	1.849229	4.030805	-6.019604	-8.378477	-73.733803	113.460393			
13735	4.205610	-3.787487	-2.101904	2.682604	4.023970	-6.198641	-8.758288	-73.771170	113.263734			
13736	4.032210	-3.767756	-1.660641	2.815391	3.532998	-6.234447	-8.882736	-73.973032	113.045039			
13737	4.435657	-3.340603	-1.215376	2.482641	3.081017	-5.731572	-8.963388	-74.356854	112.926197			
13738	5.273846	-2.951941	-0.464914	2.209104	2.447906	-4.726343	-9.094431	-74.902976	112.937137			
13739	6.702178	-2.370711	0.818106	1.815116	1.377463	-3.029171	-9.336015	-75.594996	113.083078			
13740	8.411051	-1.435711	2.293118	1.106206	0.052610	-1.046973	-9.680382	-76.377938	113.378325			
13741	10.171320	-0.232382	4.169656	0.244153	-1.762608	1.037535	-9.862107	-77.194695	113.595227			
13742	13.225113	1.034369	7.369317	-0.467491	-4.636034	4.629141	-9.873191	-77.878747	113.540194			
13743	16.318515	0.819552	10.940927	0.318551	-7.516835	8.354981	-9.840711	-78.221102	113.058834			
13744	18.059003	-0.229403	13.800006	1.736700	-9.737000	10.651735	-9.992405	-78.186400	112.285015			
13745	15.639458	-1.682184	13.942282	3.138895	-9.995281	8.409366	-10.053913	-77.713692	111.008575			
13746	11.069282	-2.099038	12.048841	3.302538	-8.933855	3.655208	-9.704858	-77.116442	109.551799			
13747	8.622905	-1.076485	9.977242	1.980903	-7.571280	0.855433	-9.311112	-76.696034	108.361799			
13748	8.974239	-0.840911	8.489657	1.419060	-6.059621	0.891765	-8.910396	-76.483527	107.471361			
13749	10.052136	-0.672531	7.258992	0.981874	-4.636013	1.664855	-8.401577	-76.411916	106.799095			
13750	10.584737	-0.587232	6.043123	0.710901	-3.341883	1.901714	-7.673314	-76.383398	106.065921			
13751	10.225475	-0.534933	4.393046	0.492271	-1.827114	1.167498	-6.622259	-76.364757	105.052246			
13752	9.568564	0.135191	2.795271	-0.302874	-0.521783	0.138442	-5.222228	-76.334580	103.685258			
13753	8.856186	0.966317	1.687356	-1.186681	0.276348	-0.827805	-3.717226	-76.281966	102.156084			
13754	8.322397	2.100244	1.038970	-2.322593	0.626306	-1.508118	-2.348734	-76.269128	100.717534			
13755	8.590614	2.845874	0.316341	-3.126752	1.283662	-1.411905	-1.243607	-76.382743	99.399537			
13756	9.641643	2.206631	-1.245253	-2.696064	3.101674	-0.730206	-0.148397	-76.756101	98.139388			
13757	10.603175	1.615432	-3.594315	-2.401860	5.573600	-0.267042	1.780044	-77.588415	96.591571			
13758	12.239214	1.506835	-5.022916	-2.505820	7.087345	1.177157	4.551019	-79.098758	94.885475			
13759	16.710934	1.575515	-3.687552	-2.407799	6.153480	6.050329	7.248501	-81.193038	93.510381			
13760	23.804047	4.688344	0.348125	-4.742235	2.079138	13.891338	7.218131	-82.915790	93.455190			
13761	28.194943	3.944965	7.518140	-2.981856	-4.574358	19.121661	2.004351	-83.138502	95.394019			
13762	24.021871	-2.977957	16.812071	3.863426	-12.925665	16.381936	-4.953219	-80.355689	96.284903			
13763	4.048854	-16.709478	5.400028	16.549991	-4.676071	-4.437106	-8.943601	-77.902425	96.448276			
13764	-0.833954	-11.153400	-6.357203	11.423302	5.637864	-11.609700	-8.906901	-77.144753	96.993712			
13765	0.739427	-5.740804	-15.756697	6.013222	15.451211	-12.429598	-6.377155	-76.883399	96.483788			
13766	-9.819674	-8.323953	-28.022723	7.663161	25.403606	-25.516172	2.551209	-77.508629	90.783135			
13767	-8.143427	-2.614407	-18.583179	1.371780	16.659947	-21.603184	7.232206	-78.953991	86.833692			
13768	0.443300	-2.309502	-8.024011	1.614667	8.139639	-10.834475	8.185685	-80.708096	87.525647			
13769	17.468105	-1.133617	4.865413	1.702889	-2.227602	8.136725	5.243269	-83.284492	92.165053			
13770	23.558301	12.404939	11.231962	-11.247524	-10.451186	14.664402	-11.550318	-85.898644	108.307938			
13771	20.634591	0.572176	0.124480	-0.931331	1.196858	10.774369	-6.575612	-86.135878	101.932289			
13772	12.302684	-2.212314	-3.476023	1.758207	4.436337	2.252116	-4.177079	-86.389263	98.788909			
13773	9.117954	-1.028990	-2.386726	0.751659	2.977815	-0.842783	-2.826890	-87.031552	97.757649			
13774	7.668084	0.385622	-1.086080	-0.538919	1.387007	-2.202657	-3.837017	-87.769945	99.773639			
13775	7.426090	1.603458	-1.156791	-1.784146	1.203610	-2.435517	-12.689976	-88.427386	109.863659			
13776	8.119582	3.004522	-1.291288	-3.251723	1.029413	-1.751298	-45.251550	-88.878394	143.442489			
13777	9.946350	4.029698	-0.945460	-4.317564	0.390414	0.049635	-87.866732	-88.661335	-173.501316			
13778	10.223026	3.516826	-0.863350	-3.875293	0.252563	0.313562	-105.161483	-88.142007	-156.418851			
13779	9.377506	1.918432	-0.836557	-2.316343	0.397433	-0.496354	-114.319691	-87.677279	-147.949512			
13780	9.257976	-0.220771	-0.893108	-0.222761	0.679044	-0.536624	-121.623355	-87.318040	-141.630312			
13781	9.260311	-2.098930	-1.262316	1.608168	1.174329	-0.443271	-129.261183	-87.017794	-135.128231			
13782	9.418287	-3.119179	-1.180962	2.659071	1.064379	-0.240703	-136.929946	-86.731749	-128.581815			
13783	9.138226	-3.537703	-1.370176	3.112855	1.164145	-0.493184	-144.148892	-86.387628	-122.253945			
13784	8.906900	-3.532993	-1.369808	3.148835	1.051557	-0.720426	-149.918407	-85.920165	-116.844683			
13785	8.973385	-3.062580	-1.184297	2.698633	0.737560	-0.676147	-153.636139	-85.349785	-112.778741			
13786	9.195815	-2.148787	-0.679665	1.806069	0.084137	-0.518988	-155.648386	-84.752114	-109.872004			
13787	9.201737	-1.180288	-0.260159	0.864506	-0.478411	-0.584684	-156.384793	-84.211611	-108.142717			
13788	9.069034	-1.013300	-0.144051	0.704679	-0.666197	-0.737770	-156.759670	-83.707906	-106.970707			
13789	9.000774	-1.000581	-0.238096	0.674303	-0.633214	-0.800708	-156.971533	-83.242193	-106.144281			
13790	8.820152	-1.219234	-0.902357	0.802287	0.005509	-0.899111	-157.096969	-82.777090	-105.348369			
13791	8.707234	-1.232131	-1.886345	0.659034	0.925526	-0.890752	-157.050193	-82.244279	-104.306447			
13792	8.940272	-0.961919	-2.883887	0.167950	1.752703	-0.535351	-156.578450	-81.599272	-103.023985			
13793	9.534755	-0.041735	-3.493378	-0.979264	1.979970	0.098640	-155.502204	-80.942026	-101.676869			
13794	10.083528	3.141576	-2.977372	-4.086324	0.524643	0.357566	-154.109803	-80.513486	-100.921222			
13795	9.514094	4.934034	-2.572760	-5.733265	-0.398515	-0.407844	-154.157339	-80.037382	-100.293472			
13796	9.746755	2.786959	-2.117714	-3.549529	-0.405117	-0.092218	-155.289465	-79.486360	-99.841922			
13797	10.025967	1.092312	-1.445106	-1.731922	-0.741439	0.199885	-156.751329	-78.905986	-99.258092			
13798	10.074427	0.375537	-0.886186	-0.884739	-1.197614	0.197448	-157.963315	-78.418277	-98.661449			
13799	9.548475	-0.233125	-0.784381	-0.238451	-1.134982	-0.299677	-158.868562	-77.948277	-97.999940			
13800	9.298705	-0.775569	-0.799411	0.306607	-1.033628	-0.509814	-159.502911	-77.428933	-97.264588			
13801	9.183528	-1.177361	-0.785460	0.715531	-1.018135	-0.604478	-159.958648	-76.890955	-96.528210			
13802	9.098072	-1.639599	-0.841675	1.164959	-0.925386	-0.649851	-160.420481	-76.345993	-95.796600			
13803	9.090181	-2.117977	-0.939429	1.619114	-0.805619	-0.607876	-160.966603	-75.801283	-95.141626			
13804	9.057900	-2.461925	-0.745274	2.016993	-0.990310	-0.668709	-161.661894	-75.263113	-94.572637			
13805	8.832254	-2.482895	-0.258057	2.178296	-1.479522	-1.020345	-162.555247	-74.751739	-94.085879			
13806	8.771101	-2.438739	0.237430	2.269548	-2.037107	-1.231636	-163.603928	-74.256313	-93.687643			
13807	9.037411	-2.136830	0.812459	2.106727	-2.813119	-1.178565	-164.554200	-73.773838	-93.455602			
13808	9.017167	-1.728663	0.983920	1.742390	-3.140349	-1.305789	-165.044867	-73.307031	-93.366877			
13809	8.965594	-1.304655	0.362690	1.198951	-2.699155	-1.239931	-164.656843	-72.764472	-93.308886			
13810	9.676515	-0.125548	-0.162046	-0.081429	-2.741729	-0.530869	-163.235756	-72.069513	-93.249023			
13811	10.283960	1.343016	-0.530578	-1.615969	-3.054309	-0.019734	-160.890072	-71.355571	-93.206125			
13812	11.110109	2.896685	-1.564210	-3.433287	-2.990575	0.842594	-157.922682	-70.855378	-93.161540			
13813	11.248605	6.584911	-1.618749	-6.942954	-4.369946	0.444229	-155.495444	-70.777342	-93.245263			
13814	10.244385	6.380413	-2.618677	-7.083936	-3.265855	-0.238450	-155.253433	-70.547973	-93.132690			
13815	10.709546	2.747027	-1.904220	-3.444529	-2.845246	0.478393	-156.275650	-70.170112	-93.038295			
13816	11.017517	0.673133	-0.785348	-1.094964	-3.283219	0.698111	-157.678295	-69.850556	-92.796466			
13817	10.860115	-0.377460	-0.112171	0.142481	-3.534138	0.462848	-159.055645	-69.729245	-92.629420			
13818	11.005784	-1.359358	-0.010906	1.117604	-3.419907	0.676846	-160.395846	-69.685342	-92.563782			
13819	11.428135	-2.113017	0.010137	1.848670	-3.413828	1.141550	-161.535203	-69.721485	-92.606482			
13820	11.551345	-2.844348	0.271282	2.628194	-3.538192	1.240420	-162.280139	-69.755303	-92.659302			
13821	11.539051	-3.228055	0.797281	3.138528	-3.937999	1.089032	-162.401478	-69.743055	-92.658143			
13822	11.795970	-2.864445	1.183733	2.886968	-4.460264	1.165591	-161.808811	-69.668892	-92.627334			
13823	12.260805	-2.026151	1.484493	2.164108	-5.078860	1.419323	-160.827889	-69.627759	-92.632711			
13824	12.984494	-1.593530	1.187806	1.658681	-5.139681	2.161433	-159.666323	-69.706849	-92.817534			
13825	14.009845	-1.316881	0.881771	1.270732	-5.237641	3.215713	-158.418077	-69.937870	-93.231973			
13826	14.368596	-0.916595	1.093455	0.917338	-5.576750	3.474503	-157.069893	-70.321790	-93.906448			
13827	13.840682	-0.733942	1.192156	0.740670	-5.427788	2.974537	-155.701681	-70.827827	-94.801667			
13828	13.165763	-2.118724	0.464569	1.753919	-3.990019	2.798545	-154.332078	-71.430328	-95.867763			
13829	12.540725	-3.949885	1.443052	3.749349	-3.924060	2.249398	-152.765755	-72.277508	-97.495976			
13830	12.437723	-6.364935	2.944881	6.422537	-4.307189	2.190464	-151.026951	-73.477360	-100.039585			
13831	12.399644	-9.384724	0.438171	8.319205	-0.884049	3.302893	-148.298835	-74.931760	-103.391802			
13832	12.646641	-8.803098	-2.158595	6.767215	1.629811	4.101998	-143.741936	-76.259485	-107.132275			
13833	12.988526	-5.404715	-2.905189	3.069457	1.648580	4.122514	-138.294432	-77.357554	-110.303335			
13834	13.123494	-2.905482	-3.861291	0.110831	2.016453	4.025040	-132.504374	-78.297731	-112.864010			
13835	13.336518	-1.347533	-4.387432	-1.843875	2.080568	4.014372	-126.386075	-79.234440	-114.872909			
13836	13.405863	1.123547	-4.741159	-4.466123	1.355681	3.665695	-118.430036	-80.400162	-118.620391			
13837	11.250552	4.889697	-3.788860	-7.066164	-1.065116	0.853797	-110.977856	-81.538313	-124.104555			
13838	11.272761	1.420890	-3.101260	-3.884358	0.471753	1.295732	-105.741105	-82.229851	-129.740552			
13839	11.029510	-0.484762	-2.544835	-1.999089	1.338946	1.258315	-99.722126	-82.837785	-137.300389			
13840	10.026776	-1.856536	-2.701306	-0.814741	2.522764	0.397493	-92.120545	-83.302904	-147.004599			
13841	10.294165	-3.063839	-3.274983	-0.037181	3.818302	0.746542	-82.654969	-83.575457	-158.296439			
13842	9.983924	-4.315969	-3.774880	0.895815	5.066864	0.486672	-72.494062	-83.654642	-169.210928			
13843	10.076426	-3.874977	-3.437426	0.636430	4.748371	0.454226	-62.962745	-83.594643	-178.186026			
13844	11.362751	-0.562047	-1.879378	-1.700648	1.968480	1.420744	-53.993703	-83.439234	173.522242			
13845	10.919078	-0.360632	-2.077843	-1.967082	2.247954	0.899250	-43.992827	-82.899650	163.395901			
13846	9.930241	-1.649254	-1.904716	-0.684754	2.932162	-0.020517	-35.618975	-82.160970	154.578972			
13847	9.203242	-2.037087	-1.739217	-0.203091	3.138502	-0.758430	-29.062640	-81.435562	147.974290			
13848	8.628474	-1.362555	-1.362581	-0.556041	2.600124	-1.381073	-23.908367	-80.878545	143.120684			
13849	8.657435	-0.430141	-1.622520	-1.502118	2.501690	-1.490875	-19.231194	-80.368346	138.838925			
13850	8.237849	0.304451	-2.005345	-2.264826	2.541927	-2.041963	-15.071756	-79.838425	134.758034			
13851	7.804758	0.589126	-1.574800	-2.235335	2.095674	-2.440344	-11.671224	-79.238769	131.159122			
13852	7.718128	0.335643	-1.754616	-2.071788	2.484110	-2.581062	-8.988014	-78.620642	128.007678			
13853	7.495115	0.176363	-1.756779	-1.886777	2.645037	-2.831515	-6.844677	-77.960421	125.397883			
13854	7.358028	0.102465	-1.994985	-1.899927	2.970504	-3.052776	-5.327419	-77.298490	123.412848			
13855	7.023508	0.199362	-1.856778	-1.871890	2.839415	-3.390069	-4.328163	-76.669705	121.961958			
13856	6.946018	0.133421	-2.061799	-1.887822	3.117914	-3.549301	-3.927787	-76.064477	120.914180			
13857	6.724148	-0.584543	-2.006847	-1.186508	3.429539	-3.778354	-3.942996	-75.436481	120.173491			
13858	6.426499	-0.990433	-1.883398	-0.721757	3.503787	-4.065499	-4.113603	-74.828468	119.606751			
13859	6.126883	-1.053816	-1.714530	-0.545589	3.370869	-4.342027	-4.427727	-74.262143	119.162371			
13860	5.887581	-1.512883	-1.795799	-0.117393	3.623350	-4.613201	-4.910462	-73.713003	118.838578			
13861	5.155192	-1.681989	-1.369712	0.313537	3.170649	-5.215972	-5.395520	-73.213888	118.585156			
13862	4.866193	-2.097254	-1.596183	0.664500	3.480788	-5.561969	-5.906041	-72.831360	118.385605			
13863	4.310015	-2.353550	-1.416661	1.060599	3.284155	-6.042835	-6.206277	-72.562490	118.168542			
13864	3.796813	-1.944174	-1.187754	0.848564	2.791725	-6.482138	-6.397049	-72.449231	117.991252			
13865	3.637285	-1.990024	-0.950562	1.006613	2.550406	-6.560650	-6.663897	-72.486319	117.949318			
13866	3.720707	-2.128479	-0.639655	1.238786	2.334192	-6.377550	-6.936893	-72.650245	118.018042			
13867	4.172663	-1.977606	-0.331801	1.148607	2.101560	-5.850845	-7.328502	-72.996312	118.220165			
13868	5.099008	-1.776344	-0.135730	0.911405	2.054872	-4.901442	-7.815168	-73.492359	118.551378			
13869	6.256177	-0.764383	0.567264	0.061528	1.291287	-3.617998	-8.484113	-74.114064	119.090203			
13870	7.952902	0.677125	2.070729	-0.990251	-0.265599	-1.630826	-9.516159	-74.871421	120.001033			
13871	10.283983	2.482676	4.153239	-2.273376	-2.407047	1.059704	-11.052782	-75.679971	121.363318			
13872	12.651744	3.513487	6.913447	-2.658678	-4.974493	3.912766	-13.670208	-76.419984	123.450910			
13873	16.698558	3.749312	11.795888	-2.045199	-8.958450	8.831039	-17.208949	-76.850063	125.421841			
13874	20.695389	1.167027	17.896384	0.960142	-13.293622	14.107933	-21.173998	-76.733994	126.051336			
13875	17.820693	-7.963332	13.505963	8.185611	-7.639296	11.115258	-23.600623	-76.511693	125.043824			
13876	12.451946	-8.241103	8.853518	7.971611	-4.477363	4.943884	-23.006893	-76.636040	123.505041			
13877	9.367525	-3.264721	8.375279	3.448613	-5.626732	1.367677	-21.686533	-76.821738	122.369277			
13878	7.861841	-2.266794	8.408101	2.738997	-6.133980	-0.194226	-20.758481	-76.997558	121.684380			
13879	8.294365	-3.275346	6.688290	3.434618	-4.203079	-0.076429	-20.250523	-77.274882	121.473985			
13880	10.182538	-3.667276	3.798777	3.133299	-1.032884	1.172691	-20.315435	-77.822835	121.931258			
13881	13.706651	-4.219975	0.697509	2.750869	2.564225	4.044477	-21.265833	-78.724888	123.204403			
13882	15.922856	-3.893670	-3.037284	1.526598	6.228992	5.575144	-21.976515	-79.881710	124.564093			
13883	15.001032	-0.874855	-5.698128	-1.847028	7.737248	4.150910	-20.872820	-80.979106	124.980486			
13884	16.692372	1.957734	-4.801768	-4.568546	6.078765	5.925412	-20.006553	-81.951429	126.505804			
13885	23.403521	4.783143	4.176046	-5.296034	-2.870506	13.676562	-21.128817	-82.383208	129.137670			
13886	19.240710	4.861391	9.158213	-3.677334	-7.926821	10.220055	-19.352814	-81.160679	125.321642			
13887	7.270569	-1.682020	1.791371	1.387219	-0.273555	-2.269616	-18.357505	-79.458983	120.488042			
13888	1.008910	-4.753807	-5.330682	3.628612	6.225724	-9.505952	-18.463455	-78.395508	117.555987			
13889	-0.874409	-4.190673	-10.828077	2.696781	11.006750	-12.486336	-17.307303	-78.350765	115.296040			
13890	-3.024926	-5.511919	-18.522892	2.899819	18.301025	-16.076928	-9.499716	-78.854344	109.512640			
13891	-5.949936	-4.152596	-15.518817	1.149951	14.679579	-18.558721	5.987487	-79.206221	98.161964			
13892	-0.113117	1.112693	-9.648703	-3.504880	8.890056	-11.550727	10.733792	-80.827828	94.500594			
13893	15.608856	4.430912	1.151865	-4.241405	-0.253484	5.886443	3.422880	-83.537782	104.324520			
13894	25.983974	7.288834	5.602734	-6.478439	-5.407484	16.420716	-33.243065	-85.188865	140.451717			
13895	16.483638	-3.969918	-1.339415	2.370248	3.308773	6.700873	-33.480379	-84.800528	137.668648			
13896	8.383620	-3.032930	-2.243885	1.905159	3.393091	-1.483599	-33.294494	-84.611600	134.627133			
13897	6.796995	-4.255191	-1.796299	3.395288	2.979865	-2.948090	-38.368843	-84.511705	137.723928			
13898	7.849910	-4.677549	-1.300527	3.841222	2.480165	-1.794973	-46.076855	-84.816798	144.756830			
13899	8.572637	-3.791433	-1.764097	2.818105	2.732057	-1.119557	-53.920811	-85.188967	153.563704			
13900	8.489143	-1.757819	-1.699128	0.768829	2.234233	-1.300457	-64.298017	-85.487127	165.921247			
13901	9.291742	0.664008	-1.699899	-1.738919	1.601965	-0.643579	-75.743989	-85.499704	179.633067			
13902	9.876929	2.413877	-1.004647	-3.366485	0.296658	-0.170852	-82.859291	-85.345813	-171.397439			
13903	9.164054	2.405051	-1.290264	-3.390843	0.415412	-0.882000	-88.922913	-85.295797	-164.498207			
13904	9.440959	1.981362	-1.048704	-2.939410	0.198627	-0.567295	-94.477456	-85.119720	-159.136764			
13905	9.923599	0.271713	-1.020895	-1.337286	0.564677	0.060823	-100.148580	-84.840972	-154.443914			
13906	10.275075	-0.558406	-0.512644	-0.435151	0.196844	0.479203	-105.309097	-84.546901	-150.542097			
13907	10.600025	-0.789903	0.032473	-0.115074	-0.381859	0.809258	-109.528568	-84.237958	-147.590641			
13908	10.450080	-1.117391	0.358084	0.265568	-0.707096	0.675869	-112.573736	-83.934644	-145.611993			
13909	10.171111	-1.224036	0.552580	0.405927	-0.933958	0.396015	-114.707526	-83.653077	-144.173329			
13910	9.678527	-1.308177	0.391143	0.475129	-0.790771	-0.081971	-116.430115	-83.360317	-142.629283			
13911	9.226118	-1.187454	-0.049244	0.295252	-0.406880	-0.523947	-118.254929	-83.042311	-140.365505			
13912	9.710952	-1.137499	-0.648908	0.063341	0.067975	-0.014295	-120.224006	-82.679431	-137.441825			
13913	10.046057	-1.075425	-1.370080	-0.211753	0.660461	0.359599	-121.571235	-82.365749	-134.774011			
13914	9.532283	-0.758037	-1.556663	-0.548920	0.751787	-0.169279	-122.583921	-82.100342	-132.281407			
13915	8.949157	-0.336211	-1.568783	-0.930606	0.642476	-0.791484	-124.181543	-81.787242	-129.279237			
13916	8.806153	0.523777	-1.812904	-1.820343	0.552932	-1.009913	-126.646753	-81.381878	-125.866658			
13917	9.161217	1.064966	-2.100754	-2.451031	0.515934	-0.691252	-129.082297	-80.924596	-123.244579			
13918	9.336786	0.132102	-1.896346	-1.513328	0.482428	-0.417704	-131.028833	-80.464889	-121.697684			
13919	9.441729	-0.630148	-1.520169	-0.677009	0.251619	-0.255905	-132.809945	-80.054262	-120.510273			
13920	9.351219	-0.971594	-1.349207	-0.286081	0.122904	-0.319938	-134.207280	-79.684835	-119.667532			
13921	9.289186	-1.297997	-1.379142	0.026459	0.181678	-0.334198	-135.258887	-79.353521	-119.006178			
13922	9.306142	-1.414735	-1.509275	0.099379	0.271810	-0.283804	-136.024887	-79.031879	-118.379432			
13923	9.341758	-1.377192	-1.508785	0.053329	0.199632	-0.252427	-136.557244	-78.717108	-117.743162			
13924	9.457378	-1.208587	-1.546402	-0.140633	0.117333	-0.155553	-136.947232	-78.402549	-117.102080			
13925	9.528029	-1.127017	-1.549339	-0.238312	0.032161	-0.096934	-137.350350	-78.089247	-116.424699			
13926	9.587126	-0.997510	-1.467423	-0.352339	-0.147847	-0.070251	-137.913083	-77.770528	-115.700801			
13927	9.458030	-1.052043	-1.338357	-0.252280	-0.288448	-0.210334	-138.684088	-77.464053	-114.953772			
13928	9.252609	-1.250289	-1.187002	0.005147	-0.399001	-0.409315	-139.664509	-77.137354	-114.142879			
13929	9.220129	-1.513585	-0.941684	0.340489	-0.620835	-0.448571	-140.799494	-76.786993	-113.257890			
13930	9.174331	-1.628610	-0.767739	0.517609	-0.819939	-0.513795	-142.035705	-76.402263	-112.308306			
13931	9.264565	-1.678036	-0.587678	0.621578	-1.077250	-0.461437	-143.262804	-75.984206	-111.375592			
13932	9.457432	-1.539995	-0.378020	0.541640	-1.438567	-0.347276	-144.363242	-75.534145	-110.520024			
13933	9.522654	-1.362677	-0.239542	0.411427	-1.711876	-0.352516	-145.244971	-75.089600	-109.768049			
13934	9.361572	-1.330373	-0.393359	0.358319	-1.616817	-0.494928	-145.905343	-74.635478	-109.057094			
13935	9.362285	-1.248728	-0.582091	0.231657	-1.537036	-0.478135	-146.324634	-74.167273	-108.354081			
13936	9.394800	-1.091270	-0.740272	0.033964	-1.513740	-0.447429	-146.535898	-73.684339	-107.655171			
13937	9.520458	-1.001637	-0.942848	-0.124393	-1.458336	-0.305394	-146.505894	-73.207402	-106.995487			
13938	9.700823	-0.813341	-1.270094	-0.426654	-1.332037	-0.095499	-146.244983	-72.746868	-106.404785			
13939	9.938731	-0.419981	-1.598972	-0.940022	-1.283693	0.136150	-145.777828	-72.319913	-105.920237			
13940	10.113305	0.280243	-1.794510	-1.700505	-1.440130	0.217837	-145.267780	-71.938210	-105.518472			
13941	10.040439	0.969443	-2.011798	-2.432409	-1.509132	0.066734	-144.915508	-71.623578	-105.178354			
13942	10.043360	1.456024	-1.823625	-2.827955	-1.897975	-0.080536	-144.964267	-71.359257	-104.871164			
13943	10.147371	0.989567	-1.202448	-2.178956	-2.387863	-0.068746	-145.331604	-71.128641	-104.631956			
13944	10.201363	0.442812	-0.961621	-1.581030	-2.486948	0.010954	-145.890780	-70.921027	-104.351852			
13945	10.337397	0.085720	-1.006474	-1.263566	-2.412940	0.210443	-146.431866	-70.745102	-104.112243			
13946	10.526532	-0.435708	-1.137790	-0.826326	-2.230601	0.513676	-146.897970	-70.565806	-103.939649			
13947	10.851538	-0.969841	-1.139259	-0.345378	-2.207766	0.911154	-147.222165	-70.411845	-103.830296			
13948	10.996533	-1.342027	-1.010486	0.037925	-2.291165	1.072850	-147.364133	-70.272381	-103.770589			
13949	11.601007	-1.546708	-0.975050	0.190886	-2.486386	1.663714	-147.313235	-70.149748	-103.709536			
13950	12.591085	-1.762314	-1.127334	0.252401	-2.631315	2.674285	-146.958876	-70.049342	-103.701184			
13951	13.455160	-1.908074	-1.390964	0.206299	-2.642091	3.588565	-146.257362	-70.005166	-103.764072			
13952	13.616110	-1.643673	-1.525373	-0.133936	-2.644161	3.730473	-145.308754	-70.027527	-103.875692			
13953	13.406053	-1.681347	-1.339832	-0.049794	-2.692465	3.494912	-144.270156	-70.150682	-104.048745			
13954	12.414587	-1.896552	-1.066013	0.304750	-2.474512	2.542014	-143.347341	-70.414515	-104.298347			
13955	11.244644	-2.447807	-0.815295	0.984893	-2.041359	1.499280	-142.650783	-70.800963	-104.688182			
13956	10.380734	-3.111327	-0.568684	1.749706	-1.659111	0.767888	-142.181926	-71.295156	-105.269085			
13957	9.641560	-3.533671	-0.418730	2.251190	-1.325249	0.126985	-141.767237	-71.894583	-106.169439			
13958	9.230098	-3.894605	-0.235762	2.680686	-1.158947	-0.226838	-141.216025	-72.543998	-107.460030			
13959	8.701279	-4.237462	0.244352	3.206632	-1.257211	-0.764779	-140.403197	-73.189383	-109.185484			
13960	8.269126	-5.466007	-0.406697	4.136316	-0.108380	-0.796029	-139.405878	-73.798887	-111.151701			
13961	8.921855	-6.788755	-0.187977	5.361766	-0.025720	0.034774	-137.777563	-74.468639	-113.569478			
13962	9.120684	-7.108957	0.733353	5.894608	-0.741310	0.135384	-134.752667	-75.244388	-117.070485			
13963	8.288790	-7.952999	-0.631784	6.261575	1.124466	-0.227418	-130.864766	-75.933178	-120.604375			
13964	9.552953	-6.123850	-0.275516	4.399559	0.218165	0.647961	-126.064989	-76.464884	-124.318561			
13965	9.596577	-4.638174	-1.524350	2.443436	1.166094	0.608087	-120.648344	-77.006411	-128.279332			
13966	10.021385	-3.525567	-3.266063	0.546419	2.570098	0.986060	-115.125718	-77.493209	-131.851418			
13967	10.760473	-2.791481	-4.623165	-1.013417	3.632385	1.620648	-108.668428	-77.844460	-135.818034			
13968	9.754664	-0.538775	-2.170284	-1.998362	0.805289	-0.039798	-102.862927	-78.242725	-139.552367			
13969	12.367056	-1.746035	-3.868763	-2.272914	2.642905	2.789105	-98.161037	-78.541413	-142.812466			
13970	10.155701	-0.212019	-0.334877	-1.612232	-0.747481	0.194062	-93.060818	-78.858072	-147.261539			
13971	11.378251	-2.769807	-3.743099	-1.375307	3.487899	1.895744	-88.591821	-79.068946	-151.448802			
13972	10.774945	-2.634560	-3.392978	-1.298193	3.357264	1.214163	-82.440580	-79.239117	-156.905015			
13973	10.128563	-2.055139	-3.132824	-1.633354	3.059561	0.414477	-77.521160	-79.363338	-161.011835			
13974	10.910748	-1.488270	-3.859515	-2.700792	3.471670	0.995010	-72.814619	-79.433826	-164.861330			
13975	10.731522	-0.803486	-3.911935	-3.340298	3.286540	0.634963	-67.871602	-79.447520	-169.124795			
13976	10.217495	-0.940132	-3.670180	-3.064631	3.295783	0.111807	-63.350808	-79.456898	-173.062171			
13977	10.032348	-0.402096	-3.344029	-3.333748	2.839119	-0.178545	-59.189726	-79.473221	-176.691916			
13978	9.822813	0.250588	-2.212635	-3.225152	1.638620	-0.412760	-55.372187	-79.443364	179.813936			
13979	9.424580	0.488353	-1.918577	-3.190397	1.362166	-0.828973	-51.883753	-79.404299	176.370133			
13980	8.958857	0.574409	-1.581826	-2.985972	1.129239	-1.274465	-48.798843	-79.361578	173.118866			
13981	8.681975	0.939261	-1.417050	-3.131434	0.873393	-1.584834	-45.974254	-79.349142	170.091687			
