// General information: 
//  MT Manager version: 2022.0.0 
//  XDA version: 2022.0.0 build 7085 rev 119802 built on 2022-11-08
// Device information: 
//  DeviceId: 00B492A8
//  ProductCode: MTW2-3A7G6
//  Firmware Version: 4.6.0
//  Hardware Version: 2.0.0
// Device settings: 
//  Filter Profile: human(46.1)
//  Option Flags: Orientation Smoother Disabled, Position/Velocity Smoother Disabled, Continuous Zero Rotation Update Disabled, AHS Disabled, ICC Disabled
// Coordinate system: ENU
PacketCounter	Acc_X	Acc_Y	Acc_Z	FreeAcc_E	FreeAcc_N	FreeAcc_U	Roll	Pitch	Yaw	Vel_E	Vel_N	Vel_U
44365	9.425746	0.183258	-1.425280	0.651966	-0.526439	-0.314930	156.160663	-77.393136	-68.795188			
44366	9.446626	0.150957	-1.425272	0.660289	-0.515163	-0.294732	156.697925	-77.517517	-69.150817			
44367	9.565402	0.636377	-1.516674	0.170760	-0.424446	-0.117696	157.170938	-77.567256	-69.199285			
44368	9.727555	1.683074	-1.480734	-0.874153	-0.469081	0.120411	157.573688	-77.573839	-69.036883			
44369	9.504939	2.583965	-1.545477	-1.795437	-0.358817	-0.011826	157.832224	-77.600445	-68.810923			
44370	9.315431	2.755393	-1.745458	-1.988372	-0.133385	-0.146011	158.246669	-77.660699	-68.936244			
44371	9.175221	1.932512	-1.857079	-1.198812	0.000091	-0.329502	158.902426	-77.763601	-69.420204			
44372	8.988103	1.224292	-2.149264	-0.529204	0.325691	-0.511180	159.595382	-77.836336	-70.000644			
44373	9.091317	0.976876	-2.132001	-0.302204	0.286390	-0.433010	160.373469	-77.860060	-70.627447			
44374	9.326902	0.844224	-2.087441	-0.179341	0.187208	-0.221340	161.089202	-77.839518	-71.163960			
44375	9.311026	0.800135	-1.908448	-0.160532	0.004097	-0.275824	161.781384	-77.826727	-71.624209			
44376	9.263732	0.875992	-1.663760	-0.263536	-0.238955	-0.366758	162.570201	-77.801960	-72.127101			
44377	9.306741	0.960150	-1.437295	-0.366898	-0.486335	-0.366422	163.365556	-77.754327	-72.590614			
44378	9.253130	1.351797	-1.317703	-0.778975	-0.621474	-0.421680	164.066712	-77.676974	-72.909481			
44379	9.282848	1.929628	-1.394777	-1.368126	-0.595346	-0.346230	164.668865	-77.571335	-73.116931			
44380	9.234840	2.434333	-1.454045	-1.884819	-0.576006	-0.355517	165.088951	-77.465798	-73.207204			
44381	8.974025	2.659615	-1.509236	-2.133424	-0.505380	-0.588941	165.466790	-77.367448	-73.381025			
44382	8.863878	2.565208	-1.622094	-2.058227	-0.392485	-0.680907	165.939697	-77.253921	-73.831279			
44383	8.988095	2.138006	-1.846444	-1.644913	-0.201481	-0.537997	166.556944	-77.149234	-74.601206			
44384	9.012192	1.343399	-1.924439	-0.871252	-0.116164	-0.541487	167.208798	-77.052937	-75.528845			
44385	9.101242	0.567846	-2.133274	-0.114518	0.075559	-0.448552	167.805045	-76.938434	-76.446429			
44386	9.008476	0.255085	-2.074541	0.177531	0.023177	-0.566646	168.387098	-76.808715	-77.298699			
44387	9.072392	0.210554	-2.164523	0.210625	0.067897	-0.485914	168.878699	-76.626439	-78.000768			
44388	8.981714	0.339948	-2.282748	0.065466	0.167305	-0.540940	169.306417	-76.438721	-78.638351			
44389	8.672795	0.502965	-2.313148	-0.121353	0.233536	-0.826495	169.765942	-76.260817	-79.289736			
44390	8.448339	0.607008	-2.334265	-0.245272	0.273186	-1.034487	170.195920	-76.053824	-79.859482			
44391	8.613676	0.844734	-2.368768	-0.482419	0.228924	-0.855300	170.511192	-75.808452	-80.297487			
44392	8.836665	0.927910	-2.419582	-0.559493	0.184855	-0.622763	170.729355	-75.561501	-80.698448			
44393	9.098073	0.411335	-2.488807	-0.032920	0.151122	-0.372654	170.900720	-75.319891	-81.151070			
44394	9.562061	-0.542450	-2.294067	0.931968	-0.193338	-0.010446	171.178574	-75.126926	-81.782267			
44395	9.955181	-1.708329	-2.315929	2.097026	-0.322625	0.330571	171.661821	-74.984351	-82.800621			
44396	10.384618	-2.973921	-2.897521	3.363271	0.056805	0.853377	172.337432	-74.926709	-84.196643			
44397	10.376778	-4.148134	-3.679238	4.540527	0.725795	1.016805	172.864993	-74.965657	-85.430255			
44398	10.123710	-4.722967	-3.311804	5.072524	0.375950	0.670254	173.340666	-75.021159	-86.234639			
44399	9.784763	-4.728564	-2.747391	5.019033	-0.091037	0.209787	173.942214	-74.965843	-86.643042			
44400	9.615116	-3.845598	-2.638503	4.105860	-0.103876	0.053003	174.460983	-74.802960	-86.521600			
44401	9.624661	-2.698546	-2.583444	2.937129	-0.111029	0.084349	175.004554	-74.606759	-86.215044			
44402	9.715919	-1.749882	-1.971549	1.959562	-0.705346	0.036717	175.553044	-74.427210	-85.855814			
44403	9.696335	-1.161897	-1.834877	1.365113	-0.836954	-0.005972	175.829115	-74.249983	-85.271659			
44404	9.755423	-0.630876	-1.783308	0.843507	-0.923999	0.045362	175.939340	-74.062382	-84.433254			
44405	9.908483	0.106172	-1.710010	0.129556	-1.082047	0.183597	175.964044	-73.875792	-83.451319			
44406	9.686452	0.834538	-1.771615	-0.581288	-1.030544	-0.001352	175.750431	-73.690082	-82.331399			
44407	9.533839	1.712634	-2.559928	-1.475439	-0.328968	0.091607	175.286859	-73.522760	-81.164933			
44408	9.253168	2.636567	-2.264886	-2.360859	-0.642794	-0.235877	174.912562	-73.397015	-80.343181			
44409	9.071816	2.782802	-1.713850	-2.459415	-1.159858	-0.561467	174.878983	-73.260252	-80.294440			
44410	8.933005	1.617335	-2.420532	-1.359956	-0.368244	-0.523543	175.184549	-73.107123	-80.972150			
44411	8.936461	0.077490	-2.968857	0.127297	0.252294	-0.399902	175.508547	-72.983023	-81.844196			
44412	8.931254	-0.968431	-2.931248	1.164997	0.261340	-0.438693	175.717663	-72.868804	-82.536918			
44413	9.197690	-1.297242	-2.584052	1.518720	-0.155180	-0.292865	175.706720	-72.782346	-82.868620			
44414	8.924774	-0.967863	-2.089417	1.207654	-0.593661	-0.694407	175.520982	-72.579695	-82.889490			
44415	9.188992	-0.824552	-3.020129	1.044218	0.171830	-0.162889	175.534198	-72.340549	-82.780241			
44416	8.816826	0.221116	-2.254980	0.029671	-0.533593	-0.725085	175.276786	-72.127795	-82.314754			
44417	9.290512	0.776624	-2.630400	-0.504261	-0.387474	-0.146707	175.057628	-71.879745	-82.034387			
44418	9.404795	0.544430	-2.637740	-0.256305	-0.435253	-0.042884	175.007003	-71.729392	-82.064431			
44419	9.070955	-0.388953	-2.550372	0.668592	-0.384894	-0.413607	174.986671	-71.618282	-82.236673			
44420	8.760043	-1.093582	-2.664274	1.354930	-0.164877	-0.692953	175.053125	-71.481538	-82.376834			
44421	8.859732	-1.345143	-3.037755	1.597894	0.143456	-0.487544	175.024828	-71.276242	-82.258389			
44422	8.962693	-0.885713	-3.182630	1.145019	0.191797	-0.331362	174.945213	-71.033748	-81.887156			
44423	9.060556	-0.117307	-2.487230	0.426713	-0.580731	-0.443898	174.836156	-70.733808	-81.481356			
44424	9.534726	-0.058256	-2.880992	0.383832	-0.413825	0.131946	174.832681	-70.454749	-81.253767			
44425	9.006108	-0.593145	-3.142688	0.881322	0.000130	-0.296310	174.934602	-70.192568	-81.120117			
44426	8.437675	-0.505888	-2.996927	0.777413	0.005852	-0.878075	174.930742	-69.884964	-80.744737			
44427	8.643155	0.210909	-2.377984	0.125654	-0.750819	-0.878284	174.913041	-69.492985	-80.297705			
44428	9.262254	0.509619	-2.491105	-0.125066	-0.946631	-0.255359	174.889548	-69.103170	-79.871090			
44429	9.089926	0.854352	-2.434100	-0.452877	-1.030957	-0.431151	174.715310	-68.763239	-79.461956			
44430	8.871188	0.953169	-2.218721	-0.521621	-1.217083	-0.714581	174.409121	-68.403899	-79.128261			
44431	8.795042	0.316839	-2.743399	0.084721	-0.702535	-0.621485	174.468931	-67.952686	-79.071553			
44432	8.848392	0.066413	-2.481219	0.374359	-1.011402	-0.686278	174.444506	-67.477829	-78.828029			
44433	9.281832	0.297335	-2.402377	0.207885	-1.344163	-0.317336	174.276035	-67.007317	-78.535665			
44434	9.144395	0.140154	-2.629234	0.359421	-1.140439	-0.372232	174.204432	-66.542529	-78.420162			
44435	8.669900	-0.154605	-2.796983	0.621410	-0.839689	-0.761580	174.072102	-66.105594	-78.310645			
44436	8.508334	-0.198592	-2.817615	0.670895	-0.819785	-0.910577	174.010487	-65.640946	-78.201411			
44437	8.697460	-0.213660	-2.801201	0.723114	-0.980200	-0.754320	173.952520	-65.159119	-78.057768			
44438	8.897093	-0.113816	-2.833984	0.660676	-1.116659	-0.565051	173.886973	-64.682689	-77.874079			
44439	8.751600	0.179378	-2.767989	0.385897	-1.220730	-0.721766	173.803053	-64.209417	-77.641664			
44440	8.665046	0.701488	-2.762246	-0.111440	-1.325285	-0.788514	173.670954	-63.692405	-77.332232			
44441	8.930743	1.226146	-2.619134	-0.559589	-1.713806	-0.600173	173.487407	-63.128477	-77.043575			
44442	8.939273	1.316206	-2.738298	-0.621347	-1.709179	-0.548068	173.250459	-62.558523	-76.860808			
44443	8.828434	0.733290	-3.093698	-0.049820	-1.358336	-0.528205	172.964225	-61.977213	-76.896464			
44444	9.252549	-0.365885	-3.380527	1.099463	-1.262598	-0.098394	172.633186	-61.377811	-77.060473			
44445	9.670975	-1.157909	-3.062842	1.987131	-1.748879	0.048411	172.324637	-60.836251	-77.246106			
44446	9.662685	-1.549032	-2.255361	2.450133	-2.505027	-0.401283	172.091327	-60.339267	-77.389563			
44447	10.216546	-1.506342	-1.755723	2.516653	-3.301768	-0.195340	171.878069	-59.819410	-77.415377			
44448	11.372586	-1.046428	-1.522451	2.227220	-4.199002	0.682824	171.734489	-59.368159	-77.260565			
44449	10.677513	0.117542	-0.430825	1.076406	-4.965270	-0.410778	171.631832	-59.104286	-77.043563			
44450	9.386266	1.321387	-1.967583	-0.316362	-3.126263	-0.655954	171.251648	-59.194701	-76.861451			
44451	10.900466	2.213287	-0.200430	-0.947981	-5.469698	-0.172011	171.126080	-59.259498	-77.070388			
44452	10.344534	1.425141	1.317250	-0.204554	-6.405271	-1.463682	170.615393	-59.393433	-77.371629			
44453	9.053165	0.419059	-0.159625	0.576985	-4.399866	-1.908948	169.690432	-59.265647	-77.702681			
44454	9.658217	-0.821935	-3.211722	1.878084	-2.033630	0.016266	168.737824	-58.955107	-78.015579			
44455	11.476317	-1.117455	-3.717503	2.438782	-2.569842	1.772722	167.689782	-58.718274	-78.047340			
44456	13.064493	-0.928351	-3.069275	2.459767	-4.002815	2.792458	167.066556	-58.461584	-78.023128			
44457	8.100155	-0.682788	-4.740627	1.818410	-0.050310	-0.580001	166.056978	-58.513095	-77.294093			
44458	15.880911	-0.934862	-3.257787	2.983176	-5.291436	5.246879	165.477723	-58.271523	-76.523544			
44459	20.786365	0.361567	2.007739	2.135875	-12.401817	6.856615	165.254285	-57.926148	-76.108690			
44460	18.023364	0.525062	-0.692933	1.843109	-8.629790	5.926570	164.466128	-58.430725	-75.538019			
44461	17.612271	-1.534625	0.517934	3.783355	-9.175304	4.826377	163.847930	-59.734350	-75.080887			
44462	16.289691	-3.070335	4.805053	4.869314	-11.884478	1.715096	163.112044	-61.703098	-74.451886			
44463	12.796656	-5.069857	9.285154	6.133944	-13.957008	-3.237717	162.352843	-63.385191	-73.800674			
44464	13.662001	-4.529476	7.111203	5.841819	-12.197715	-1.162833	161.998678	-64.151706	-73.179078			
44465	14.892520	-3.521711	7.536736	5.043540	-12.916191	0.122918	161.844708	-65.238531	-72.489641			
44466	12.305822	-3.072833	1.361948	4.556108	-6.020507	0.469434	161.479227	-66.104230	-71.749554			
44467	14.046857	-1.612249	-2.769212	3.459804	-2.674068	3.915192	161.183312	-67.059542	-70.615443			
44468	13.577199	0.952051	-0.191357	0.835889	-4.705289	2.932399	160.123628	-68.228640	-69.070659			
44469	13.979285	-0.480447	-1.471505	2.327476	-3.304169	3.658588	159.270422	-69.336082	-68.074503			
44470	14.541386	0.108570	-3.942163	1.806376	-0.909748	5.117406	158.318572	-70.307622	-67.134888			
44471	14.433179	2.215217	-6.077770	-0.318529	1.338652	5.943698	157.432239	-71.254565	-66.347756			
44472	13.807947	3.623627	-6.033509	-1.844918	1.677541	5.483403	157.110356	-72.161234	-66.070676			
44473	14.063617	4.749811	-5.653387	-2.994350	1.449989	5.718974	156.552501	-73.078372	-65.800201			
44474	13.418819	3.811225	-6.189017	-2.194660	2.422249	5.093823	156.063201	-74.072432	-65.601507			
44475	13.050770	3.284217	-5.360823	-1.778953	1.994142	4.424562	155.348731	-75.157897	-65.241138			
44476	12.126390	1.373133	-5.957054	-0.033830	3.082433	3.412760	154.823349	-76.339457	-65.097135			
44477	11.361206	0.066202	-5.478854	1.113108	3.054660	2.374297	153.919289	-77.675403	-64.428495			
44478	11.769850	0.630330	-5.332171	0.503483	3.120449	2.731590	152.793739	-79.134999	-63.318181			
44479	11.902747	-0.001746	-6.396403	1.008780	4.493817	2.890091	152.372113	-81.001220	-62.465514			
44480	11.171553	0.478681	-6.265993	0.249318	4.861025	2.044051	151.204007	-83.163010	-60.575541			
44481	10.690539	-0.457802	-3.627320	0.968540	2.719145	1.109994	145.698452	-85.390085	-54.465367			
44482	10.058133	1.273217	-2.756792	-0.892975	2.227598	0.415581	130.510799	-87.009666	-39.135227			
44483	10.462179	0.726139	-4.818939	-0.470175	4.593885	0.764319	103.451541	-88.235672	-12.089355			
44484	9.945396	0.316137	-4.649182	-0.176627	4.713764	0.105296	43.485887	-88.359129	47.758041			
44485	9.110026	0.102466	-4.292738	-0.065768	4.598673	-0.853204	10.255161	-87.271233	80.754374			
44486	8.732864	0.153007	-4.043860	-0.202678	4.548716	-1.333179	-2.558068	-85.923429	93.378305			
44487	8.187865	-0.260156	-4.463687	0.111884	5.127249	-2.019900	-9.168252	-84.530133	100.012500			
44488	7.725878	0.682124	-4.343363	-0.926865	5.116588	-2.603225	-12.890926	-83.137032	104.013562			
44489	7.283031	0.705541	-4.623859	-1.056080	5.488779	-3.204020	-15.147627	-81.783551	106.668463			
44490	7.123000	1.455297	-5.069468	-1.926026	6.007990	-3.588134	-16.192317	-80.476547	108.284190			
44491	6.768030	1.734526	-5.115860	-2.304816	6.090271	-4.104828	-16.397869	-79.178625	109.127780			
44492	6.075151	1.865163	-4.557295	-2.476489	5.494007	-4.829168	-15.909754	-77.946140	109.432017			
44493	5.630313	2.082632	-3.876428	-2.716806	4.789935	-5.258767	-15.177567	-76.770171	109.450696			
44494	4.812980	2.123004	-2.780388	-2.687670	3.595525	-5.907536	-14.492840	-75.679700	109.364186			
44495	4.402224	2.014760	-2.117987	-2.539634	2.912988	-6.208671	-14.145689	-74.708183	109.419846			
44496	4.192200	1.493132	-1.856761	-2.011508	2.702961	-6.363193	-14.353780	-73.897870	109.709799			
44497	4.232237	0.919840	-1.901143	-1.470488	2.855125	-6.340234	-15.032051	-73.218828	110.203035			
44498	4.260770	0.350511	-2.232857	-0.948226	3.271526	-6.397942	-15.939654	-72.665896	110.821500			
44499	4.162850	-0.126253	-2.706839	-0.506747	3.768461	-6.616743	-16.958202	-72.201844	111.488781			
44500	4.107749	-1.159552	-3.332946	0.479225	4.459314	-6.777635	-17.872956	-71.904535	112.194907			
44501	4.235869	-1.143974	-3.348102	0.428333	4.517918	-6.671684	-18.299760	-71.701617	112.866427			
44502	4.233859	-0.465064	-2.954927	-0.252250	4.083392	-6.629037	-18.642863	-71.626983	113.549405			
44503	4.620569	-0.469697	-2.323473	-0.286207	3.593354	-6.074424	-18.794192	-71.606528	114.124992			
44504	4.760255	0.159110	-1.501493	-0.892043	2.776779	-5.758858	-18.825364	-71.662012	114.625194			
44505	5.592778	0.596214	-0.772034	-1.390351	2.253882	-4.790979	-18.661689	-71.806569	114.978525			
44506	7.061736	1.666388	0.353444	-2.538492	1.438785	-3.160189	-18.196308	-71.980376	115.012171			
44507	8.935962	2.387547	2.939170	-3.207248	-0.613529	-0.673356	-17.226891	-72.039377	114.575281			
44508	10.437457	2.687153	5.756119	-3.320381	-2.911891	1.579832	-16.040902	-72.009712	113.866287			
44509	12.606100	2.800400	7.992748	-3.351128	-4.406728	4.329083	-14.870131	-71.871582	113.097522			
44510	12.709791	1.826803	9.306454	-2.135973	-5.413967	4.938960	-13.697688	-71.679786	112.494028			
44511	12.682729	2.446721	11.298850	-2.330360	-7.357499	5.514936	-12.609071	-71.594577	112.226122			
44512	10.735077	2.559612	12.342680	-1.883977	-8.888187	4.028673	-11.605621	-71.370219	112.009553			
44513	8.617303	2.086839	12.787606	-0.953644	-9.798179	2.238063	-11.119637	-71.223816	112.135466			
44514	7.741225	1.365816	12.155168	-0.187579	-9.309454	1.270589	-11.359163	-71.190109	112.506949			
44515	7.472614	-0.385973	10.229248	1.213941	-7.257251	0.506461	-11.943646	-71.350919	113.010456			
44516	8.898403	0.164306	8.957968	0.256986	-5.818930	1.391203	-12.464904	-71.684988	113.357243			
44517	9.626672	0.863349	6.332505	-0.971164	-3.371561	1.196736	-12.934686	-72.168519	113.616329			
44518	12.884577	1.952709	6.809920	-2.345312	-3.225232	4.339929	-13.198464	-72.689893	113.680870			
44519	9.551814	2.617086	3.697927	-3.059678	-1.425619	0.205590	-12.508426	-73.197664	113.301120			
44520	6.342472	5.495360	-3.902681	-6.756465	4.207050	-5.090167	-10.804082	-74.555709	112.371196			
44521	12.566993	10.624584	-4.735183	-12.387687	5.249823	0.778979	-6.612025	-76.508834	108.292650			
44522	23.173813	10.375075	1.728200	-11.275083	1.431348	12.956881	-2.419628	-77.178828	102.644695			
44523	18.017433	1.615086	7.580889	-1.460328	-3.539278	9.423010	-7.698960	-76.268770	105.679433			
44524	12.595062	-12.332062	8.469371	12.134790	-3.767776	5.050386	-17.815212	-75.890550	113.753593			
44525	10.745058	-13.464968	-2.777805	11.928980	6.454179	1.164451	-24.669770	-76.300793	120.076668			
44526	11.021207	-1.076086	-9.714963	-1.050835	11.770546	-1.017654	-24.796764	-77.053212	120.641394			
44527	8.678788	4.894886	-6.390624	-6.452606	7.248832	-3.035318	-21.459643	-77.858437	119.016685			
44528	6.701481	9.228380	-1.762895	-9.951159	1.557471	-4.180812	-15.659031	-78.869477	114.400270			
44529	4.998749	10.943625	-2.995799	-11.570071	2.197358	-5.936958	-13.137941	-79.907517	110.472588			
44530	4.599073	3.953606	-4.644821	-4.691778	4.842356	-6.222095	-22.151067	-80.716527	116.784475			
44531	6.780902	-3.228125	-6.843060	2.284347	7.807048	-3.727455	-44.730058	-81.174061	135.924342			
44532	10.508256	-20.854061	-20.657413	19.711019	21.359780	1.444191	-65.067986	-79.960975	152.133773			
44533	12.216773	-22.923159	-10.787047	21.345219	10.777883	4.996015	-60.571721	-79.164084	147.305533			
44534	2.346907	-6.095878	0.529973	5.625575	-0.449816	-6.482110	-60.866957	-79.680607	150.532118			
44535	4.550355	0.171297	-0.996217	-0.847551	1.290767	-5.415065	-70.472636	-81.671262	162.355113			
44536	12.379102	2.016855	-4.294430	-3.726437	4.458768	2.101337	-86.452169	-83.752614	-179.949631			
44537	14.396027	2.667745	-4.743289	-4.436168	4.444997	4.237785	-92.322429	-84.780854	-172.655149			
44538	9.944753	2.432523	-1.522059	-3.423981	1.165887	-0.114818	-91.398068	-85.168475	-172.441764			
44539	9.418865	1.431359	0.445997	-2.150409	-0.714522	-0.548355	-91.041552	-85.184411	-171.929328			
44540	8.846668	0.774088	2.076734	-1.235862	-2.285731	-1.070641	-94.033811	-85.133111	-168.370103			
44541	8.358002	0.289484	1.997081	-0.695739	-2.217672	-1.534709	-103.438008	-85.121660	-158.746296			
44542	8.917718	0.289228	1.017272	-0.825741	-1.415864	-0.983509	-117.422746	-84.838855	-144.642577			
44543	9.543280	0.455510	0.136752	-1.098504	-0.806047	-0.355446	-130.764134	-84.219773	-131.347892			
44544	10.461944	0.615428	-1.668250	-1.510537	0.674205	0.669401	-139.107846	-83.526219	-122.995883			
44545	10.556565	0.748419	-0.697653	-1.474066	-0.474637	0.679611	-143.055062	-82.994104	-119.020253			
44546	9.572962	0.429422	0.083665	-0.975088	-1.206962	-0.356222	-145.685007	-82.519832	-116.590629			
44547	8.790759	-0.005932	-0.539564	-0.574982	-0.542939	-1.041011	-148.526923	-81.931025	-114.128528			
44548	8.713260	-0.233408	-1.829194	-0.498550	0.652510	-0.944443	-151.312931	-81.233962	-111.818115			
44549	8.866619	-0.632864	-2.928186	-0.220356	1.633151	-0.599953	-153.773759	-80.517080	-109.900750			
44550	8.761785	-1.041436	-3.419623	0.168979	2.049045	-0.575875	-155.874890	-79.840179	-108.329529			
44551	8.566630	-1.156440	-3.618336	0.313622	2.168000	-0.701324	-158.062982	-79.214853	-106.544137			
44552	8.455355	-0.645354	-3.353249	-0.117369	1.772831	-0.868642	-160.344541	-78.634576	-104.422819			
44553	8.824507	0.080384	-2.623462	-0.737976	0.817255	-0.672278	-162.744275	-78.010590	-102.087845			
44554	9.622133	0.187718	-2.306633	-0.793556	0.211328	0.049614	-165.031566	-77.281209	-100.004951			
44555	10.421077	-0.605425	-2.503080	0.002462	0.153307	0.920690	-166.732788	-76.577276	-98.769277			
44556	9.889282	-2.018182	-2.914047	1.434598	0.636867	0.574676	-167.666418	-75.938530	-98.515294			
44557	8.493172	-3.972157	-3.869017	3.393130	1.873554	-0.439541	-168.270162	-75.265075	-98.502845			
44558	7.964611	-4.693119	-4.223570	4.134938	2.256110	-0.806574	-169.186052	-74.588467	-97.628967			
44559	8.939417	-2.451020	-3.663069	1.924372	1.240203	-0.112358	-170.412789	-73.886059	-95.942221			
44560	9.200004	-0.754906	-2.311206	0.356639	-0.340110	-0.309671	-171.604102	-73.156472	-94.158434			
44561	9.346693	0.269041	-2.379959	-0.614028	-0.527568	-0.198149	-173.002708	-72.261398	-92.117519			
44562	9.943812	1.254406	-2.259071	-1.513942	-1.068106	0.292777	-174.406122	-71.412026	-90.054560			
44563	9.622093	2.087403	-1.890430	-2.220296	-1.550700	-0.159775	-175.628878	-70.651418	-88.259647			
44564	8.930246	2.336285	-1.475515	-2.351706	-1.877276	-0.962371	-176.697434	-69.890523	-86.879093			
44565	8.878805	2.433257	-1.323502	-2.370519	-2.135150	-1.076212	-177.575314	-69.084667	-86.148142			
44566	8.951410	1.944595	-1.313231	-1.851976	-2.228571	-1.024260	-178.052005	-68.251346	-86.374416			
44567	8.794574	0.471610	-1.721951	-0.430272	-1.768861	-1.025387	-178.260604	-67.363567	-87.307211			
44568	9.014038	-1.206021	-2.400017	1.179778	-1.257940	-0.566589	-178.330615	-66.402383	-88.544549			
44569	9.407098	-2.953748	-3.074585	2.883298	-0.905392	0.063250	-178.522179	-65.494544	-89.539525			
44570	9.450395	-3.664814	-2.363789	3.621332	-1.734890	-0.210490	-178.935750	-64.781614	-89.806350			
44571	8.538222	-2.642192	-0.967754	2.647963	-2.757888	-1.676332	-179.365804	-64.076535	-89.353528			
44572	8.237768	-1.754387	-1.842628	1.784899	-1.950881	-1.606522	-179.884573	-63.310894	-88.189923			
44573	9.205638	-0.572791	-1.817608	0.689852	-2.555201	-0.792240	179.642766	-62.406380	-86.786218			
44574	9.796169	0.960608	-2.219256	-0.751714	-2.675179	-0.112737	178.998601	-61.738583	-85.335406			
44575	9.427445	1.998420	-2.663706	-1.740036	-2.280473	-0.234772	178.448570	-61.312876	-84.328351			
44576	9.013429	2.040169	-2.071898	-1.712072	-2.668627	-0.888345	177.942871	-60.959460	-84.029231			
44577	9.238781	0.848841	-2.000021	-0.489723	-2.815386	-0.762333	177.637014	-60.417904	-84.393276			
44578	9.963037	-0.995630	-3.380705	1.329334	-1.958032	0.486837	177.379049	-59.815824	-84.934615			
44579	10.160363	-2.089666	-3.827257	2.429385	-1.726488	0.834569	177.038469	-59.437657	-85.291975			
44580	9.580330	-2.259069	-3.286266	2.607478	-1.967153	0.037018	176.607485	-59.204787	-85.316395			
44581	9.118667	-1.369789	-2.900663	1.734603	-2.147956	-0.548927	176.198807	-58.835055	-85.097648			
44582	9.653749	-0.216734	-3.633439	0.645291	-1.890035	0.309295	175.662462	-58.470666	-84.666290			
44583	10.193200	0.917520	-3.606076	-0.401898	-2.259628	0.792932	174.959453	-58.394532	-84.173801			
44584	9.961839	1.642931	-2.175824	-1.083751	-3.376920	-0.112515	174.198166	-58.373849	-83.850969			
44585	10.843401	1.466004	-2.019930	-0.807820	-3.960194	0.554215	173.169803	-58.268695	-83.625250			
44586	12.258119	0.647397	-2.408147	0.158258	-4.361886	1.910298	172.072003	-58.201388	-83.472076			
44587	13.506155	-0.607191	-1.903525	1.513192	-5.455778	2.611197	171.221221	-58.178718	-83.349292			
44588	14.490322	-0.320465	0.046842	1.222125	-7.632760	2.447883	170.414723	-58.172594	-83.033876			
44589	15.959716	0.487502	0.770254	0.503971	-8.970284	3.409378	169.237903	-58.378327	-82.668100			
44590	16.795445	-0.431534	1.926552	1.390669	-10.312517	3.517704	168.079997	-59.075936	-82.450289			
44591	18.383723	-1.575772	4.436822	2.350573	-13.085919	3.727790	166.990461	-60.539550	-82.180071			
44592	16.297792	-2.521803	5.875527	2.951238	-13.017818	1.514060	165.637161	-62.571662	-81.360681			
44593	12.475843	-1.754697	6.393192	1.900955	-11.369208	-1.644809	164.618352	-64.031260	-80.186473			
44594	14.727539	-0.380409	3.294912	1.183154	-9.254996	2.054940	164.374296	-64.791146	-78.913022			
44595	15.185662	1.838901	2.633684	-0.732471	-8.507737	3.148506	163.115410	-65.892256	-76.813124			
44596	15.169047	2.315045	1.990371	-0.991747	-7.598832	3.629099	160.935804	-67.130882	-74.887920			
44597	14.610689	-1.588952	-1.667885	3.217277	-3.863818	4.097443	158.757783	-68.400717	-74.031020			
44598	15.459484	-5.604157	-6.052851	7.807985	-0.087205	5.873677	156.941595	-69.660265	-73.429751			
44599	14.873556	-4.620700	-6.802866	6.925477	1.170959	5.663466	155.601943	-70.953402	-72.685513			
44600	14.790261	-2.917935	-7.152742	5.280179	1.988096	5.890459	155.134249	-72.034865	-72.504158			
44601	14.632611	-2.245100	-7.181973	4.555113	2.364890	5.820281	155.214459	-72.816132	-72.785689			
44602	13.111149	-1.629673	-7.006714	3.748562	2.846233	4.382318	155.182730	-73.395889	-73.100586			
44603	12.600718	-1.525604	-7.146126	3.580395	3.236937	3.930481	155.844040	-73.925412	-73.991361			
44604	12.536585	-1.618647	-7.817534	3.658311	4.013149	4.022298	157.382156	-74.718831	-75.321572			
44605	12.349723	-3.162438	-7.841922	4.990188	4.163630	3.669132	158.544045	-76.135532	-75.656657			
44606	9.679799	-3.083701	-4.896958	4.218984	2.324409	0.383986	157.661419	-77.750115	-73.500665			
44607	9.037270	-1.255599	-3.880192	2.176005	1.955088	-0.339492	156.163139	-78.902011	-70.446958			
44608	10.572165	-0.033078	-7.063660	1.183478	5.135322	1.758215	155.067009	-79.950709	-67.577982			
44609	11.637461	1.140990	-8.117976	-0.113514	6.350813	2.925749	153.160456	-81.578143	-63.772203			
44610	10.829339	1.251734	-6.400880	-0.586062	5.154425	1.714445	147.665305	-83.840580	-56.491407			
44611	9.559534	1.820825	-4.078392	-1.403817	3.361761	0.089045	133.024629	-86.014481	-40.523464			
44612	8.634231	1.760147	-2.230331	-1.423557	1.916068	-1.042545	100.705754	-87.166215	-7.588526			
44613	8.675800	1.893700	-2.576202	-1.631852	2.527336	-1.069862	68.026186	-87.199004	25.391866			
44614	9.150014	1.347308	-4.011586	-1.229583	4.227426	-0.743965	41.080240	-86.652116	52.587499			
44615	8.196192	0.889114	-3.848193	-0.888702	4.252322	-1.818919	24.320723	-85.739492	69.477554			
44616	8.275560	1.197603	-3.785192	-1.286953	4.345880	-1.831466	13.845736	-84.719010	80.282405			
44617	8.038639	1.349413	-4.234512	-1.584858	4.910538	-2.213817	7.043634	-83.637984	87.474195			
44618	7.327472	0.801735	-4.520497	-1.171214	5.289850	-3.073843	2.672383	-82.506902	92.239916			
44619	6.702564	0.246921	-4.356280	-0.696686	5.210589	-3.785719	-0.114076	-81.386528	95.446237			
44620	6.471169	-0.160305	-4.497280	-0.389256	5.459910	-4.141480	-1.838377	-80.247859	97.649450			
44621	6.442876	0.187733	-3.814684	-0.746934	4.853283	-4.157296	-3.022745	-79.137968	99.227548			
44622	6.765271	0.298976	-3.845580	-0.939348	5.031915	-3.943939	-3.915549	-78.044942	100.436912			
44623	6.243517	0.919841	-2.759482	-1.479823	3.889101	-4.323959	-4.788871	-77.068503	101.623882			
44624	6.710903	1.904403	-2.854035	-2.546939	4.037121	-3.979836	-5.744682	-76.230774	102.813046			
44625	6.462774	2.290022	-2.548916	-2.935086	3.702431	-4.228338	-6.886511	-75.438968	104.010075			
44626	6.485810	2.369286	-2.816718	-3.094704	4.015164	-4.343355	-8.160749	-74.748640	105.243891			
44627	5.766495	2.293100	-2.387180	-2.962518	3.484304	-4.986521	-9.639022	-74.104685	106.501382			
44628	5.196819	1.694262	-2.214623	-2.339671	3.287176	-5.511279	-11.086714	-73.607365	107.733984			
44629	4.804927	1.327080	-2.057674	-1.953678	3.106231	-5.860882	-12.465321	-73.193996	108.869220			
44630	4.584479	1.207643	-2.280584	-1.859006	3.292438	-6.154715	-13.635509	-72.900006	109.877178			
44631	4.370052	1.137145	-2.439035	-1.802933	3.401433	-6.418725	-14.545134	-72.722897	110.772101			
44632	4.745565	0.963764	-2.575055	-1.705807	3.655435	-6.096763	-15.126972	-72.637667	111.518724			
44633	5.114805	1.214341	-1.760667	-1.941227	2.941908	-5.533371	-15.409761	-72.633285	112.146488			
44634	6.131041	0.179100	-1.487915	-1.027008	3.080744	-4.400678	-15.670930	-72.726298	112.709182			
44635	7.533761	-0.050875	-0.385507	-0.860605	2.429904	-2.723001	-15.509354	-72.810883	113.075193			
44636	8.709211	0.579000	1.142981	-1.446307	1.193984	-1.211839	-15.002408	-72.796740	113.288307			
44637	8.512677	1.231059	1.964572	-1.951100	0.249437	-1.212009	-14.583266	-72.805823	113.444647			
44638	8.761762	0.285255	2.399124	-0.963585	0.043852	-0.775262	-13.828842	-72.923815	113.735929			
44639	9.978120	2.769768	5.486481	-2.991803	-3.048840	1.100065	-13.097697	-73.123849	114.130088			
44640	10.973830	1.480104	7.085725	-1.508519	-4.086811	2.590756	-13.306991	-73.205305	114.580426			
44641	11.040968	-0.366006	9.726668	0.758312	-6.196077	3.516926	-13.602917	-73.171257	114.966201			
44642	11.305228	-1.788512	11.977783	2.492610	-7.944684	4.510123	-13.943613	-73.024477	115.265373			
44643	10.772032	-3.570988	12.736160	4.405880	-8.403881	4.363392	-14.158515	-72.867556	115.582546			
44644	9.514251	-4.300865	11.973475	5.156392	-7.825980	3.014932	-14.137832	-72.796720	115.932408			
44645	8.667575	-2.990686	10.527233	3.767756	-6.944645	1.696848	-14.147238	-72.879717	116.281647			
44646	8.813057	-1.503137	8.440065	1.943112	-5.282060	1.118374	-14.104590	-73.061192	116.403825			
44647	8.215753	-0.289187	6.322127	0.468797	-3.746830	-0.153872	-13.686037	-73.345392	116.135515			
44648	8.562739	0.612805	4.546640	-0.740345	-2.233518	-0.387691	-12.855591	-73.782248	115.597274			
44649	9.229569	1.307938	1.816024	-1.968302	0.267761	-0.525812	-11.737139	-74.507395	114.977957			
44650	15.275240	4.173413	2.886125	-5.047494	-0.121764	5.470603	-10.060272	-75.494775	113.902716			
44651	15.056196	7.109908	-0.343834	-8.381676	1.910383	4.450704	-6.674458	-76.236217	111.698874			
44652	12.906162	9.568933	-1.339801	-10.587500	1.458700	2.257534	-2.137018	-76.892836	108.536699			
44653	14.815277	8.988325	6.353407	-7.871848	-5.308920	6.014355	-0.338546	-76.830737	107.308874			
44654	13.299284	1.543770	9.984468	0.300108	-6.861789	5.411018	-4.138964	-76.552227	110.410723			
44655	14.471299	-6.548806	6.278921	6.669730	-0.982732	5.880215	-8.979021	-76.722915	114.477737			
44656	13.952972	-2.217930	-3.645497	-0.147435	6.866765	3.060444	-10.172656	-77.339737	115.992855			
44657	13.115443	6.431772	-5.796787	-8.943999	6.168328	1.542399	-8.345993	-77.821191	115.025983			
44658	8.162711	8.068662	-3.724173	-9.483026	2.647322	-2.836662	-7.277661	-77.944556	114.762157			
44659	3.670762	9.120933	-4.534256	-10.316100	2.214815	-7.384288	-9.087674	-78.770597	115.798904			
44660	1.488606	8.227338	-10.722483	-10.798256	8.223643	-10.592891	-14.139870	-79.933532	118.094047			
44661	3.121779	1.957116	-8.625228	-3.948534	8.358995	-8.236006	-27.562796	-80.248619	127.912888			
44662	5.590400	-4.647738	-9.407361	2.636641	10.589285	-5.099964	-46.824698	-79.846498	142.726293			
44663	9.464601	-22.197488	-18.714296	19.433223	20.940930	0.941379	-63.678642	-78.457544	154.410149			
44664	8.885241	-33.902213	-11.857500	31.748995	13.206590	3.843455	-61.004221	-78.223345	151.287601			
44665	3.577931	-9.761491	-1.684190	8.944460	2.390866	-4.794106	-62.455437	-79.452405	156.102351			
44666	8.054311	-3.829163	-8.314865	1.849362	9.073342	-1.880610	-67.835889	-81.650161	164.233381			
44667	14.326388	0.007941	-6.567821	-2.691169	6.878437	4.108818	-72.248080	-83.831157	172.228064			
44668	13.040158	5.353047	-2.522116	-6.906144	1.498647	2.640765	-72.091563	-85.762115	175.728364			
44669	10.479859	8.277818	-2.664510	-9.271361	0.539925	0.146068	-60.824477	-87.563508	166.764980			
44670	9.300147	8.203133	-1.570543	-8.591198	-0.738130	-0.763481	-33.532260	-88.493467	141.065683			
44671	8.321206	8.117759	1.350792	-7.429010	-3.691283	-1.557725	-25.947739	-89.019193	134.677790			
44672	8.196011	5.654946	1.670732	-4.893216	-3.380122	-1.653458	-114.336432	-89.453734	-136.811676			
44673	8.907673	3.135166	-0.664137	-3.236269	-0.557303	-0.934142	-154.501896	-87.852233	-97.430038			
44674	11.194908	0.328480	-5.943921	-2.210033	4.987933	1.632503	-150.289496	-86.139986	-102.822389			
44675	10.431863	-2.127588	-3.188042	0.896536	2.873221	0.885443	-141.109053	-84.907051	-113.701291			
44676	9.140682	-4.747283	-3.464724	3.316744	3.701736	-0.149184	-135.403172	-83.752844	-121.376064			
44677	8.587550	-7.587233	-3.539002	6.050058	4.232835	-0.362223	-132.650097	-82.884345	-125.324969			
44678	6.904004	-6.251853	-1.289045	5.332400	1.796941	-2.279516	-136.028746	-82.435601	-121.837136			
44679	6.931366	-2.539916	-0.721948	1.887933	0.394784	-2.650680	-145.348594	-81.766708	-111.341946			
44680	8.376126	-0.283803	-3.257307	-0.856567	1.971253	-1.082050	-156.095997	-80.790788	-98.657161			
44681	10.272615	2.923954	-3.739236	-3.923689	1.040531	0.749786	-166.314520	-80.105245	-86.433722			
44682	10.935660	6.262795	-2.872122	-6.538532	-1.106690	1.280853	-175.698101	-79.709160	-75.731788			
44683	10.007777	7.450851	-1.591784	-7.038056	-2.633626	0.273474	179.517631	-79.454006	-70.682486			
44684	7.974750	5.040599	0.272753	-4.218646	-3.257840	-2.023718	179.697231	-78.965272	-71.771959			
44685	7.510256	1.699310	0.438768	-1.076664	-2.363989	-2.550855	-178.148839	-77.740051	-75.709081			
44686	8.935850	-1.051362	-3.850370	0.450162	1.899486	-0.223127	-175.461904	-75.941148	-80.654278			
44687	11.556738	-5.588908	-7.706084	4.081942	5.624055	3.448983	-171.817637	-75.057405	-86.252771			
44688	8.599725	-7.063044	-4.576525	6.157868	3.430492	-0.061049	-170.683973	-75.078925	-89.366485			
44689	7.435641	-8.008963	-3.273412	7.365785	2.480441	-1.461713	-170.880578	-74.907402	-89.913332			
44690	6.995533	-5.411328	-1.286200	5.159673	0.213228	-2.518436	-172.126911	-73.903010	-87.899729			
44691	8.025117	-2.560370	-1.810599	2.344585	-0.167550	-1.523679	-174.092909	-72.192057	-84.314755			
44692	9.429342	-0.326021	-3.739057	-0.059334	0.536522	0.321388	-176.242008	-70.481572	-79.976466			
44693	10.646162	3.331952	-3.475444	-3.283113	-1.240796	1.331420	-178.912920	-69.508941	-75.328018			
44694	10.400859	5.721779	-2.633476	-5.132196	-2.755118	0.860384	178.263751	-69.182155	-71.440040			
44695	9.642139	5.366821	-0.376681	-4.100151	-4.478069	-0.590410	177.045428	-69.098723	-70.071827			
44696	8.607165	3.023085	1.320601	-1.507815	-4.984246	-2.206794	177.289407	-68.618855	-70.931406			
44697	9.535803	1.259097	1.517598	0.271290	-5.091732	-1.517137	178.133070	-67.467646	-72.960548			
44698	11.244864	-1.067486	-2.205619	1.734502	-2.031225	1.381407	179.258536	-66.109547	-75.394603			
44699	11.680458	-3.435045	-3.154511	3.798818	-1.045525	2.131176	-179.657331	-65.586118	-77.326160			
44700	8.636734	-2.847717	-1.060017	3.339116	-1.921156	-1.506927	-179.856295	-65.506718	-77.626666			
44701	7.206123	-2.041389	-0.505576	2.546147	-2.048958	-3.054749	-179.845100	-64.992032	-77.270691			
44702	7.341079	-1.378808	-1.497066	1.757275	-1.453013	-2.544055	179.960832	-63.866906	-76.243192			
44703	9.068211	-0.695910	-5.017466	0.610151	0.569361	0.540647	179.201874	-62.670807	-74.619031			
44704	11.195804	1.110710	-3.624413	-0.448495	-2.163198	1.799087	178.323325	-62.136661	-73.131431			
44705	8.631909	1.572777	-2.837324	-0.964035	-1.889958	-0.838732	177.925656	-61.635098	-72.530797			
44706	9.179599	1.212180	-4.692690	-0.902680	-0.552766	0.513691	177.580363	-60.944291	-72.444069			
44707	9.409163	1.026315	-4.838220	-0.649290	-0.573114	0.781796	176.909259	-60.435997	-72.268786			
44708	8.416396	1.102798	-4.314068	-0.679971	-0.631702	-0.336357	176.186249	-59.909918	-72.029196			
44709	9.069417	0.838674	-4.341245	-0.252482	-0.929177	0.231009	175.651346	-59.264861	-71.936770			
44710	10.049969	0.249434	-3.574983	0.685829	-1.991274	0.647147	175.215125	-58.722318	-72.012021			
44711	10.148144	-0.407265	-2.352352	1.602071	-2.984274	0.046886	174.804395	-58.313399	-72.289101			
44712	10.536536	-0.863826	-1.615740	2.246846	-3.765994	-0.058523	174.397324	-57.938876	-72.749812			
44713	11.270925	-0.965416	-1.721953	2.456973	-4.095700	0.585344	173.515353	-57.721687	-72.979827			
44714	11.218621	-0.346054	-2.159328	1.819764	-3.855276	0.792263	172.238335	-57.687639	-72.964485			
44715	11.322599	-0.087057	-2.021496	1.649871	-4.051431	0.824922	170.759681	-57.861280	-72.809896			
44716	11.342014	-0.581936	-1.086572	2.262263	-4.734842	0.317658	169.558302	-58.077110	-72.743091			
44717	11.935355	-1.322056	-0.139609	3.163341	-5.723898	0.259565	168.601772	-58.112415	-72.767972			
44718	13.505012	-2.318252	0.079314	4.411450	-6.613368	1.348309	167.704566	-57.910551	-72.739615			
44719	14.897995	-2.917062	-0.438919	5.238202	-6.860614	2.683100	166.802715	-57.745808	-72.387735			
44720	15.285907	-0.994175	1.023112	3.478548	-8.548698	2.455707	166.470626	-57.686193	-72.407871			
44721	15.532676	-1.749932	1.795872	4.256193	-9.264537	2.170817	165.870065	-57.821364	-72.548592			
44722	16.645654	-3.364790	1.220531	5.970463	-9.178704	3.225485	165.313694	-58.092394	-72.677570			
44723	18.421827	-4.128567	2.480725	6.963010	-11.014655	4.070879	164.902872	-58.753016	-72.531853			
44724	18.681768	-3.925070	4.052766	6.779556	-12.267320	3.765602	164.007607	-60.223731	-71.772943			
44725	16.631717	-3.415102	5.841229	5.954288	-12.470859	1.649127	162.682956	-62.628870	-70.427818			
44726	9.454845	-3.289539	4.458405	4.748357	-7.741571	-3.680698	161.849509	-64.530168	-69.050575			
44727	10.521386	-0.592806	3.242539	2.306552	-7.078330	-1.680065	162.002400	-65.115920	-68.028273			
44728	15.102620	0.545598	-0.902967	1.858083	-5.012249	4.351423	160.857505	-65.762214	-66.339338			
44729	15.214406	-0.320014	-2.415247	2.703531	-3.262019	5.001161	159.870048	-67.153975	-64.748313			
44730	13.808764	-0.034298	-2.884779	2.118882	-1.990144	3.991078	158.916604	-68.581070	-63.835168			
44731	13.700776	-0.187261	-5.464511	2.035006	0.785541	4.776464	158.172172	-69.634546	-63.565579			
44732	14.053731	1.082879	-6.907679	0.712496	2.128114	5.722967	157.790297	-70.334552	-63.543037			
44733	14.062431	2.657390	-7.878934	-0.954069	3.066865	6.205204	157.908769	-70.957746	-63.646931			
44734	14.281043	4.101740	-7.095577	-2.412927	2.292299	6.313020	158.142883	-71.755715	-63.791079			
44735	14.074510	3.723339	-7.645184	-2.251985	3.152049	6.168134	158.628122	-72.988763	-64.283166			
44736	12.694280	1.345789	-6.268065	-0.207647	2.700024	4.147927	160.010062	-74.506145	-65.550283			
44737	12.583524	-1.631662	-6.941041	2.434383	3.959198	3.882878	161.551568	-76.165738	-66.741184			
44738	12.317845	-2.683468	-7.222549	3.151829	4.769151	3.543724	162.674296	-78.032561	-66.960144			
44739	11.647853	-1.256672	-5.638002	1.537873	3.648713	2.570163	162.807238	-80.242689	-65.797890			
44740	11.107827	-0.617375	-5.925621	0.570611	4.395612	1.985894	160.989310	-82.496068	-62.734286			
44741	10.335193	0.225059	-4.725816	-0.350150	3.607355	0.959866	155.569889	-84.601317	-56.265102			
44742	10.128705	2.029384	-4.128870	-2.180837	3.089597	0.648925	145.840459	-86.249023	-46.104074			
44743	10.507000	1.340776	-5.642966	-1.862858	4.983541	0.944652	129.368756	-87.830747	-29.561550			
44744	10.034380	-0.046046	-5.237218	-0.586174	5.123266	0.262897	73.156861	-88.745030	26.729290			
44745	9.993136	0.934935	-5.099641	-1.671517	5.094017	0.086343	20.565187	-87.846193	79.466660			
44746	9.325494	1.237964	-4.638563	-2.022257	4.819771	-0.719535	4.075503	-86.295747	95.864191			
44747	8.530910	0.561897	-4.484582	-1.449694	4.952094	-1.653461	-2.730910	-84.839820	102.942879			
44748	8.579824	1.620936	-4.809560	-2.691554	5.256334	-1.781909	-6.429895	-83.417166	107.139679			
44749	8.261428	1.618443	-4.583194	-2.781341	5.151094	-2.223129	-8.721228	-81.981868	109.874154			
44750	7.734973	1.377951	-3.983937	-2.536167	4.683409	-2.796289	-10.056704	-80.599573	111.659594			
44751	7.533167	0.952131	-3.872062	-2.202553	4.758301	-3.093187	-10.790871	-79.230056	112.842561			
44752	7.258951	1.200260	-3.080798	-2.369765	4.018512	-3.342975	-11.263576	-77.900248	113.699583			
44753	7.249514	1.062663	-2.770876	-2.263113	3.864887	-3.386104	-11.814675	-76.654096	114.505298			
44754	7.075793	1.426452	-2.176557	-2.558898	3.284377	-3.527617	-12.599449	-75.548961	115.399090			
44755	6.890480	1.475510	-2.643492	-2.756809	3.764120	-3.907291	-13.599719	-74.521000	116.330108			
44756	6.230582	0.960909	-2.234420	-2.157374	3.415047	-4.481809	-14.784339	-73.584534	117.316824			
44757	5.572169	0.906471	-2.519391	-2.129124	3.591691	-5.253752	-15.984626	-72.711259	118.344201			
44758	4.678336	0.546446	-2.316981	-1.656997	3.292695	-6.075581	-17.344494	-71.971272	119.455520			
44759	4.523613	-0.157567	-2.531931	-1.025507	3.635699	-6.259040	-18.647061	-71.413168	120.610055			
44760	4.756742	0.127612	-3.225792	-1.500481	4.303262	-6.308563	-19.649424	-70.898560	121.575469			
44761	4.583610	0.512468	-2.727998	-1.785853	3.717330	-6.391266	-20.506348	-70.510339	122.414708			
44762	4.786995	0.825097	-3.028669	-2.206068	3.991826	-6.353290	-21.106704	-70.232844	123.095277			
44763	4.492257	1.598484	-2.775721	-2.878617	3.498226	-6.663708	-21.578753	-70.042267	123.674008			
44764	4.317530	1.492317	-3.066298	-2.815190	3.737116	-6.918057	-21.976605	-69.974794	124.226510			
44765	4.154826	1.885926	-2.634248	-3.105774	3.182184	-6.986674	-22.194607	-70.001503	124.774363			
44766	4.186559	2.813495	-1.586685	-3.825473	1.974305	-6.742115	-22.500962	-70.128073	125.296582			
44767	4.788690	2.421412	-1.001980	-3.460095	1.679306	-5.938876	-23.084959	-70.233991	125.618898			
44768	4.429782	0.454118	-1.201558	-1.528618	2.223001	-6.071766	-23.842378	-70.488581	126.036096			
44769	5.187124	-0.060534	-1.497404	-1.227617	2.800612	-5.362793	-24.200403	-70.838473	126.416136			
44770	6.080173	0.528424	0.159893	-1.657561	1.317102	-4.086353	-24.213908	-71.189044	126.661907			
44771	7.885441	0.783119	1.650188	-1.948035	0.282970	-1.961489	-24.134767	-71.591896	126.927561			
44772	11.001069	0.888446	3.936091	-2.154683	-1.148458	1.647838	-23.833756	-71.842202	127.064333			
44773	13.608735	0.563550	7.445411	-1.591258	-3.729550	5.170895	-23.744190	-71.816504	127.174890			
44774	15.240907	-0.759323	10.732844	-0.023522	-6.043001	7.837671	-24.352247	-71.445137	127.432584			
44775	14.096478	-3.447354	11.909591	2.839632	-6.698555	7.493219	-24.943737	-70.789182	127.723832			
44776	10.599847	-3.770987	13.529780	4.013154	-8.964389	4.787482	-25.392454	-70.383842	128.096280			
44777	8.689244	-3.637311	14.917890	4.455636	-10.799076	3.408621	-26.056100	-70.437025	128.528437			
44778	8.681755	-4.179251	13.973324	4.759677	-9.881105	3.141074	-26.694225	-70.868698	128.874918			
44779	8.196580	-2.606434	11.640904	2.955409	-8.265551	1.695280	-26.331133	-71.298033	128.570089			
44780	6.523053	0.798598	9.550754	-0.262982	-7.552424	-1.020939	-25.459722	-71.888444	128.086692			
44781	5.778541	2.633010	5.744966	-2.478124	-4.666696	-3.074210	-25.026279	-72.964773	128.227188			
44782	7.237923	3.570689	0.824068	-4.521948	-0.081829	-3.077959	-25.368719	-74.650143	129.131094			
44783	12.803613	5.767928	-3.625286	-8.357875	4.420845	1.183622	-25.272781	-76.867171	129.530878			
44784	9.864686	8.761535	-11.659815	-12.483686	10.417981	-3.060690	-21.836423	-79.525888	126.806524			
44785	13.854492	19.559022	-18.178235	-24.716223	13.931795	0.174472	-12.351686	-82.169945	118.142021			
44786	22.810841	16.843739	6.773839	-15.908039	-8.073372	13.245078	-10.116663	-81.794173	114.718850			
44787	15.661036	1.934207	13.422742	-0.198092	-11.097161	7.674289	-17.540468	-79.498571	117.928880			
44788	15.308208	-14.097260	13.706037	13.666696	-9.151481	8.882986	-38.387279	-77.568984	131.832055			
44789	6.998372	-38.123118	-20.884624	35.555516	24.152307	-0.296797	-52.652624	-77.605095	145.608466			
44790	12.503892	-1.289151	-6.559481	-1.286315	7.964555	1.846535	-49.202736	-80.012651	146.780110			
44791	15.833936	14.493511	-0.518433	-16.097430	-0.771917	4.362529	-37.375210	-83.573475	139.945954			
44792	15.896467	27.118768	-2.473562	-27.952448	-2.051227	4.625152	-9.351259	-84.278294	111.161237			
44793	4.317652	10.651056	-0.348119	-10.716226	-1.139537	-5.808107	-16.085658	-83.505940	114.723276			
44794	0.700682	-0.913165	-5.579581	0.180280	5.689087	-9.591844	-43.044620	-83.818447	138.739007			
44795	3.290668	-6.816754	-10.579329	5.666008	11.182253	-6.355528	-82.023108	-82.261271	174.641257			
44796	5.218199	-21.811247	-22.312588	20.589482	22.412693	-1.221574	-99.563623	-80.014255	-172.274496			
44797	13.189650	-17.964777	-11.332399	15.855908	10.467470	6.439540	-93.297226	-80.363010	-179.097861			
44798	2.551090	-5.832887	0.202000	5.318271	-0.345516	-6.324976	-91.570219	-80.396895	-178.656267			
44799	3.399726	-3.040821	-2.129179	2.438629	2.081341	-5.932089	-101.088183	-80.936045	-167.926556			
44800	10.187720	-4.150720	-4.422614	2.519501	3.976459	1.068743	-115.575948	-81.322088	-152.750285			
44801	14.045151	-4.364531	-5.466544	2.311787	4.488298	5.043451	-124.093660	-81.519277	-143.003040			
44802	11.093703	-1.289867	-2.313438	-0.109925	1.336161	1.513713	-128.930269	-81.760421	-136.816024			
44803	10.198624	0.054812	-1.017309	-1.152180	-0.038859	0.371584	-133.377648	-81.882361	-131.128917			
44804	9.491698	0.937758	-0.528101	-1.814363	-0.627102	-0.455146	-137.848431	-81.893148	-125.160172			
44805	8.898280	1.807201	-0.206009	-2.466079	-1.104409	-1.141862	-143.890450	-81.861131	-117.537364			
44806	9.289837	2.587876	-0.250396	-3.110251	-1.374019	-0.785264	-151.081605	-81.741963	-108.922494			
44807	9.512578	3.039579	0.157053	-3.311690	-2.040193	-0.613878	-158.112037	-81.391018	-100.855799			
44808	9.935108	3.624627	-0.428554	-3.851453	-1.798416	-0.119568	-163.266705	-80.781067	-95.323478			
44809	10.245704	3.046881	-0.871503	-3.297311	-1.445119	0.289564	-164.782322	-80.018789	-94.049637			
44810	9.583851	1.806747	-0.279717	-1.968568	-1.795629	-0.426982	-164.284151	-79.054998	-95.241321			
44811	9.631425	0.455574	-2.172892	-1.022865	0.120906	0.017396	-164.152445	-78.047686	-96.482645			
44812	9.403888	-0.709599	-3.829202	-0.149340	1.816401	0.201134	-163.928649	-77.353439	-97.610333			
44813	8.311271	-0.909238	-2.952721	0.226917	1.143680	-1.022772	-164.568613	-76.961690	-97.578268			
44814	7.940900	-0.604040	-2.473111	0.040693	0.654145	-1.499517	-166.260682	-76.491278	-96.150274			
44815	8.529667	-0.110883	-2.882906	-0.456546	0.758043	-0.851987	-168.449427	-75.831878	-93.994859			
44816	9.680098	0.233271	-3.328104	-0.797548	0.750152	0.367413	-170.516814	-75.211862	-92.034343			
44817	9.937538	0.121369	-3.351313	-0.615635	0.622337	0.638794	-171.874539	-74.752132	-91.084158			
44818	9.271434	-0.911137	-3.512668	0.447086	0.996268	0.083547	-172.613284	-74.360060	-91.009506			
44819	8.821104	-1.808227	-2.949769	1.440568	0.590005	-0.466108	-173.158221	-73.887193	-91.160075			
44820	8.282625	-2.409451	-3.702383	2.001215	1.406839	-0.750155	-173.788043	-73.227925	-91.099372			
44821	8.211053	-2.398908	-4.308571	1.979564	1.886424	-0.633285	-174.661893	-72.573972	-90.462791			
44822	7.875393	-1.470652	-3.493079	1.169442	1.028149	-1.212661	-175.652333	-71.848567	-89.364738			
44823	8.383530	-0.691394	-2.872408	0.496787	0.100385	-0.938351	-176.693184	-71.000930	-88.144202			
44824	9.298001	-0.063030	-3.141525	-0.086974	-0.131232	0.000533	-177.620599	-70.181013	-87.124117			
44825	9.424000	0.490672	-2.941045	-0.563510	-0.538565	0.040909	-178.361493	-69.492550	-86.396791			
44826	9.068047	0.848202	-2.621439	-0.851476	-0.846277	-0.411686	-179.060825	-68.923275	-85.846687			
44827	8.730615	1.035893	-2.255709	-0.975696	-1.164579	-0.864161	-179.671159	-68.389111	-85.518201			
44828	8.890483	0.611785	-2.294775	-0.520357	-1.231128	-0.708080	179.839579	-67.825983	-85.500305			
44829	8.930580	-0.544713	-3.018095	0.609576	-0.575610	-0.407514	179.430361	-67.327702	-85.765382			
44830	8.711032	-1.632375	-3.604128	1.686312	0.046589	-0.395139	178.879101	-67.093432	-86.028923			
44831	7.808546	-2.025272	-2.573513	2.127070	-0.586998	-1.637797	178.520554	-66.876634	-86.319564			
44832	7.459427	-2.206023	-2.476889	2.323684	-0.597491	-2.009646	178.007085	-66.396729	-86.246876			
44833	7.812649	-1.873390	-2.997854	2.027599	-0.364454	-1.488682	177.240842	-65.663885	-85.566288			
44834	8.676671	-0.286878	-2.791369	0.536794	-1.076071	-0.773288	176.378555	-64.807817	-84.568213			
44835	9.646137	0.695867	-3.268488	-0.336351	-1.216415	0.317493	175.410869	-64.080673	-83.635014			
44836	9.930641	0.680940	-2.790074	-0.225621	-1.863211	0.353074	174.719463	-63.664410	-83.163130			
44837	8.526439	-0.132783	-1.321834	0.570898	-2.595694	-1.602868	174.320165	-63.244516	-83.186892			
44838	6.549015	-1.614082	-2.628026	1.951233	-0.568615	-2.865012	174.076030	-62.696012	-83.392175			
44839	8.355534	-2.401674	-2.677125	2.854448	-1.417123	-1.292534	173.769906	-62.107310	-83.329505			
44840	11.670137	-2.209343	-2.292039	2.896469	-3.420741	1.422660	173.118027	-61.302857	-82.637859			
44841	10.035321	-1.173996	-4.208390	1.851866	-1.083981	0.920037	172.653756	-60.840728	-81.646900			
44842	8.241529	0.817094	-4.244770	-0.193120	-0.305334	-0.513364	171.889431	-60.533894	-80.308609			
44843	8.773386	2.217946	-4.139435	-1.461315	-0.774152	0.000091	170.979211	-60.118824	-79.044705			
44844	10.194693	2.901005	-3.675735	-1.909767	-1.976065	1.064148	170.223690	-59.726321	-78.233581			
44845	10.828326	2.439073	-3.275528	-1.309565	-2.659759	1.373964	169.651310	-59.447057	-77.987849			
44846	10.884949	1.290182	-3.264961	-0.116786	-2.653536	1.311686	169.119292	-59.385635	-77.975429			
44847	11.130518	0.725460	-3.225364	0.507176	-2.761241	1.453886	168.347274	-59.569425	-77.873928			
44848	11.553134	0.328005	-2.761924	0.990054	-3.281281	1.565465	167.137916	-60.046281	-77.429311			
44849	12.243753	0.425622	-1.325795	0.986133	-4.735414	1.520830	165.341225	-60.794044	-76.689481			
44850	12.899794	-1.207003	0.893972	2.595562	-6.844413	0.914669	163.832803	-61.494087	-76.297567			
44851	12.624199	-3.381456	1.968309	4.622671	-7.655143	-0.080870	163.121010	-61.463744	-76.350720			
44852	14.772328	-3.517888	-0.387874	5.220677	-6.653192	2.805737	162.171668	-60.945535	-75.908266			
44853	16.670496	-3.479219	-1.132317	5.570533	-6.939995	4.750867	161.429704	-60.891678	-75.134859			
44854	17.668599	-3.194162	2.293690	5.199463	-10.291329	4.140432	160.512282	-61.672763	-73.969103			
44855	17.682818	-4.543109	6.481805	6.265412	-13.774546	2.283826	159.539256	-62.874048	-72.712495			
44856	17.586135	-4.685072	9.740327	6.233045	-16.361581	1.119984	158.256995	-64.134352	-71.220326			
44857	14.769983	-3.946183	6.665646	5.467680	-12.101198	0.277317	156.801150	-65.376822	-69.623691			
44858	12.656221	-1.669886	2.084957	3.360171	-6.790025	0.671379	155.741877	-66.191130	-68.145950			
44859	14.924110	-0.331663	1.282943	2.527872	-6.643791	3.376185	154.648396	-67.164967	-66.336015			
44860	13.614117	-1.636483	4.023988	3.558136	-8.427049	1.165658	153.292608	-68.573586	-64.147039			
44861	12.721490	-2.995630	1.813902	4.919987	-5.694526	1.025014	151.680658	-69.940748	-62.132665			
44862	13.336387	-5.329069	-2.285439	7.457075	-1.629653	2.565138	150.030777	-71.189131	-60.625357			
44863	15.193038	-6.058302	-5.312143	8.505625	1.106999	5.092516	148.904883	-72.530611	-59.202884			
44864	15.038024	-3.779148	-4.966469	6.096079	1.175491	5.238260	148.195190	-73.859773	-57.866670			
44865	14.906496	-2.713779	-6.036856	4.871799	2.570892	5.538466	148.081030	-74.986434	-57.265302			
44866	15.961110	-1.199004	-6.108327	3.316889	2.623536	6.788919	149.101722	-75.902766	-57.715254			
44867	15.991066	-0.152404	-6.280687	2.022437	2.960062	6.989750	150.811022	-76.904808	-58.769003			
44868	14.915779	-0.937376	-6.402672	2.385900	3.537598	5.876013	152.799812	-77.983840	-60.118875			
44869	14.205575	-2.492755	-8.820016	3.431858	6.396940	5.454451	154.709290	-79.291564	-60.869836			
44870	14.052685	-0.881347	-7.072136	1.587257	4.969280	5.054453	153.261305	-81.004744	-58.143699			
44871	14.349499	0.926982	-7.042493	-0.481789	5.218343	5.315668	149.548992	-83.096030	-53.185809			
44872	13.929909	0.483838	-6.624405	-0.410738	5.420869	4.628942	144.753990	-85.498626	-46.779343			
44873	12.332076	0.381973	-1.625393	-0.084097	1.088746	2.582840	126.724898	-87.843998	-27.255360			
44874	11.696566	0.001908	-2.647885	-0.171628	2.561582	1.901252	70.487669	-88.919735	30.117803			
44875	13.738111	-0.122388	-4.634017	-0.680406	4.894380	3.817567	6.520191	-87.831955	95.006681			
44876	12.568300	-0.642146	-4.274994	-0.430180	4.964434	2.507952	-7.355198	-85.940823	109.827622			
44877	12.411621	0.318824	-4.696690	-1.782302	5.481278	2.144282	-12.364324	-84.068006	115.750857			
44878	12.146702	0.546661	-5.396696	-2.477275	6.364059	1.602582	-14.530825	-82.172305	118.867429			
44879	11.577313	1.210127	-5.325733	-3.384150	6.313815	0.795239	-15.415778	-80.266422	120.780660			
44880	10.374326	1.944671	-4.563845	-4.079666	5.419486	-0.527750	-15.928797	-78.414786	122.315614			
44881	9.699506	1.660526	-4.460780	-3.968023	5.448685	-1.369217	-16.162734	-76.613019	123.617866			
44882	8.580939	1.850461	-4.040082	-4.118154	4.905475	-2.577469	-16.375235	-74.902046	124.842386			
44883	7.806195	1.673394	-4.041499	-4.038045	4.887553	-3.498374	-16.466012	-73.275628	125.900759			
44884	6.850523	1.978659	-3.880303	-4.282765	4.475858	-4.566572	-16.481010	-71.733116	126.781111			
44885	5.723053	1.831828	-3.695580	-4.010420	4.118062	-5.723504	-16.406189	-70.285278	127.490251			
44886	4.731559	2.730920	-2.989200	-4.502256	2.907958	-6.642063	-16.415581	-69.013684	128.108175			
44887	4.449114	2.733548	-2.823864	-4.452523	2.691405	-6.954116	-16.560804	-67.891362	128.641252			
44888	3.867658	2.898868	-2.477983	-4.398331	2.166851	-7.475733	-16.855239	-66.876155	129.110581			
44889	3.523051	1.882527	-2.353812	-3.380070	2.370565	-7.702860	-17.166884	-66.013883	129.562768			
44890	4.214309	1.390506	-3.415166	-3.492390	3.708971	-7.488133	-17.426184	-65.286198	129.963643			
44891	4.034332	0.929885	-3.379259	-3.044876	3.817299	-7.640930	-17.671938	-64.608952	130.296255			
44892	3.693413	0.560180	-3.363260	-2.634146	3.852557	-7.945741	-17.997479	-64.032031	130.649185			
44893	3.476953	0.546273	-3.205991	-2.528568	3.658454	-8.113301	-18.327936	-63.559879	131.051545			
44894	3.262534	0.243643	-3.399051	-2.271368	3.876979	-8.375018	-18.750459	-63.189380	131.479268			
44895	3.166812	0.079799	-3.951916	-2.285677	4.379610	-8.695840	-19.106708	-62.903727	131.911749			
44896	3.044784	-0.161133	-4.096824	-2.093032	4.557288	-8.847828	-19.424745	-62.700107	132.325417			
44897	2.740192	1.599728	-2.742872	-3.155445	2.575962	-8.813335	-19.881174	-62.580342	132.734686			
44898	2.956335	-0.095591	-3.177915	-1.839219	3.723486	-8.547339	-20.627578	-62.544624	133.137728			
44899	2.864324	0.683202	-2.342005	-2.243235	2.665060	-8.390910	-21.153464	-62.580313	133.516352			
44900	2.804055	0.242273	-2.099053	-1.750381	2.617917	-8.260235	-21.894297	-62.709995	133.941040			
44901	3.111871	0.056917	-1.364784	-1.452999	2.162599	-7.630590	-22.645653	-62.952669	134.391019			
44902	3.717951	-0.272189	-0.481775	-1.078834	1.717969	-6.648200	-23.594687	-63.300163	134.888843			
44903	4.655604	-1.976053	-0.296341	0.225446	2.489111	-5.405823	-24.645092	-63.748378	135.472406			
44904	6.751647	-2.452677	0.899959	0.356655	2.221730	-2.931810	-25.472737	-64.231216	136.055814			
44905	9.934141	-2.412212	2.352303	-0.242870	1.814609	0.516239	-26.213972	-64.635885	136.630866			
44906	12.609402	-2.316097	4.071743	-0.659901	0.956622	3.588389	-26.986277	-64.969086	137.170595			
44907	13.765050	-2.525374	4.020255	-0.845734	1.287941	4.666292	-28.141647	-65.298973	137.803150			
44908	12.651472	-2.974236	3.074652	-0.361849	1.813218	3.413706	-29.802297	-65.796028	138.784722			
44909	11.714940	-4.086477	4.351915	1.286424	0.605097	3.258399	-31.489455	-66.397648	139.869527			
44910	10.798146	-5.122327	7.877359	3.477044	-2.639058	3.819412	-32.159653	-67.032379	140.526091			
44911	11.004097	-5.124445	11.096732	4.424270	-5.564152	5.017968	-31.347714	-67.611497	140.546071			
44912	9.830307	-2.240959	13.184719	3.059789	-8.666275	4.007904	-29.220543	-68.120324	140.071833			
44913	8.505792	1.617012	13.454717	0.502508	-10.584183	2.174486	-27.021808	-68.798970	139.671866			
44914	7.464293	3.609839	10.532639	-1.526335	-9.073121	-0.065029	-25.672108	-69.893532	139.793192			
44915	8.467338	4.052892	6.112973	-3.450928	-5.323549	-0.580709	-25.642208	-71.556257	140.727513			
44916	12.468494	4.365186	2.363344	-5.843644	-1.676995	2.150592	-26.241623	-73.675700	142.040286			
44917	14.081236	6.218659	-2.912375	-9.605638	1.960978	2.404909	-26.824436	-76.453775	143.372080			
44918	22.073565	11.906004	-4.702943	-16.198888	1.443161	9.845302	-25.049903	-79.837541	142.118303			
44919	36.802609	18.062800	6.034004	-18.214958	-9.497133	26.174764	-20.834020	-80.215285	137.770306			
44920	24.814750	7.252306	22.714467	-0.519965	-19.982685	18.191692	-20.256871	-77.181932	134.319241			
44921	1.720754	-17.294811	21.121743	23.124370	-12.242737	-1.863543	-27.695624	-75.212972	137.875912			
44922	4.220778	-22.352306	0.773977	20.083250	7.864785	-2.546368	-38.403815	-75.906942	148.654596			
44923	12.928035	-3.335106	-6.065020	-1.643092	8.297495	2.165740	-40.893642	-77.145836	152.949985			
44924	15.472723	11.165722	-9.436451	-16.558144	5.692131	2.291437	-35.446217	-78.492580	149.695964			
44925	12.463120	19.272162	-1.556059	-19.904704	-5.655295	0.232619	-25.567250	-78.912736	142.335426			
44926	1.992445	24.762176	3.355787	-20.948793	-13.762478	-9.493004	-28.909964	-78.539506	144.298401			
44927	-0.480259	6.354157	-3.438539	-7.001901	0.577949	-11.554075	-38.540242	-78.457598	148.855516			
44928	0.298812	-2.543034	-10.934384	-0.914715	11.155749	-10.678114	-53.255133	-78.240996	159.003407			
44929	3.961815	-15.187373	-16.257074	9.800298	19.689854	-4.654941	-71.166012	-76.838778	173.649001			
44930	20.261009	-26.235492	-11.188521	18.524524	16.269177	15.002341	-77.107462	-76.583530	175.636859			
44931	8.764572	-13.661209	-6.851869	10.066374	9.130974	1.397909	-75.042588	-76.694792	174.814795			
44932	4.390640	-4.740003	-4.803134	2.715879	5.652113	-4.763697	-77.559635	-77.675437	179.021947			
44933	10.648879	-2.623645	-4.499326	-0.577126	4.862292	0.982931	-83.046685	-78.901580	-174.090653			
44934	13.386144	-1.044582	-2.459300	-2.052434	2.290766	3.486381	-86.001646	-79.462678	-170.215127			
44935	8.488200	-0.674503	-2.351266	-1.424981	2.153978	-1.365059	-87.963993	-79.687156	-168.127014			
44936	8.433224	-2.511979	-3.097170	0.192944	3.248448	-1.070185	-91.292956	-79.746802	-164.833924			
44937	8.958153	-3.446085	-2.534281	1.164618	2.823691	-0.367235	-94.220265	-79.979449	-161.503863			
44938	8.712075	-1.665214	-1.785621	-0.248467	1.609121	-0.912720	-98.574888	-80.466012	-156.204201			
44939	9.304868	0.354969	-2.230869	-2.281153	1.363788	-0.613953	-104.458045	-80.987560	-149.150460			
44940	9.992151	2.425723	-1.851926	-4.097745	0.229298	-0.204946	-110.546592	-81.480024	-142.269362			
44941	9.968133	3.272093	-1.241998	-4.576900	-0.724187	-0.318593	-116.843043	-81.634654	-135.837335			
44942	9.343636	2.900223	-1.482681	-4.148895	-0.436725	-0.840068	-122.382549	-81.188781	-130.742697			
44943	8.961676	1.182854	-1.607148	-2.489554	0.090176	-0.976043	-126.804641	-80.369806	-127.219528			
44944	8.718514	-0.633592	-2.756789	-1.040099	1.570588	-0.842537	-129.956188	-79.554196	-125.056387			
44945	8.218029	-1.394316	-2.683228	-0.208773	1.632834	-1.212184	-132.918315	-78.908998	-123.054474			
44946	8.305513	-1.832722	-2.333554	0.342649	1.256685	-1.089878	-136.504199	-78.352563	-120.251171			
44947	8.748556	-1.973653	-2.805875	0.394688	1.523468	-0.548436	-140.421831	-77.780543	-116.843334			
44948	9.149781	-1.420729	-2.986030	-0.135306	1.362503	-0.180644	-144.122697	-77.226959	-113.507097			
44949	9.277072	-0.853523	-2.868599	-0.582694	0.973461	-0.131149	-147.433591	-76.664238	-110.649335			
44950	9.531274	-1.119911	-2.981665	-0.285284	0.943120	0.188147	-150.186556	-76.031875	-108.526791			
44951	9.096863	-1.867427	-3.090715	0.531719	1.142014	-0.106828	-152.512208	-75.380662	-106.981054			
44952	8.420231	-2.403840	-3.482810	1.105320	1.633649	-0.597688	-154.577504	-74.763884	-105.689027			
44953	7.931469	-2.690792	-2.965987	1.583363	1.178216	-1.149620	-156.512543	-74.160382	-104.459036			
44954	7.928008	-3.141810	-2.999942	2.084660	1.146716	-1.091370	-158.336387	-73.510729	-103.207635			
44955	8.262391	-3.521031	-3.348971	2.450969	1.297827	-0.637363	-160.391962	-72.799250	-101.531024			
44956	8.800090	-3.107505	-3.312216	2.091303	0.915651	-0.176560	-162.371100	-72.070515	-99.555722			
44957	9.011035	-1.813660	-2.740825	0.966702	0.009550	-0.269974	-164.367723	-71.259397	-97.271146			
44958	9.553166	-0.296696	-2.661438	-0.447221	-0.589113	0.080949	-166.422569	-70.402502	-94.848232			
44959	9.956227	1.329743	-2.441548	-1.918685	-1.314255	0.259255	-168.391755	-69.615666	-92.654418			
44960	9.585130	2.435777	-1.910426	-2.811630	-1.972213	-0.343761	-170.197691	-68.916788	-90.992283			
44961	9.069232	2.518463	-1.473038	-2.738782	-2.307904	-0.984605	-171.724772	-68.165562	-90.040460			
44962	8.669209	1.545857	-1.058652	-1.667725	-2.512790	-1.471884	-172.937737	-67.241311	-89.718802			
44963	8.530168	-0.213232	-1.987063	0.001054	-1.537216	-1.187593	-174.215514	-66.183839	-89.469974			
44964	9.304308	-1.607469	-2.679226	1.381466	-1.240158	-0.175104	-175.596082	-65.298699	-88.900976			
44965	8.983067	-1.337913	-0.772096	1.354470	-2.999538	-1.312798	-176.558363	-64.495174	-88.361335			
44966	9.243233	-1.287385	0.059657	1.420639	-3.995245	-1.499090	-177.453164	-63.580181	-87.883822			
44967	10.324130	-1.650404	-0.396570	1.794738	-4.187791	-0.394214	-177.947502	-62.689351	-87.736758			
44968	10.713391	-2.158495	-0.561735	2.305060	-4.332667	-0.031890	-178.075640	-61.900199	-87.876224			
44969	11.424455	-2.933087	-1.032118	3.050430	-4.327806	0.777418	-177.968922	-61.354831	-88.077125			
44970	10.122493	-3.497312	-1.537643	3.552814	-3.312784	-0.145065	-178.062525	-60.999148	-88.151191			
44971	10.406975	-3.804107	-1.321585	3.882976	-3.690068	-0.023492	-178.258224	-60.630005	-88.087964			
44972	10.210806	-2.878714	-1.410663	2.974397	-3.641303	-0.198596	-178.664139	-60.207671	-87.737626			
44973	10.228846	-1.783350	-2.045192	1.889057	-3.234700	0.084784	-179.150449	-59.785214	-87.194962			
44974	9.836496	-0.317562	-1.279612	0.513924	-3.850782	-0.680237	-179.719427	-59.394600	-86.606686			
44975	9.803673	0.745625	-1.534794	-0.507554	-3.742064	-0.606041	179.635066	-58.993636	-86.105780			
44976	10.046437	1.360871	-1.547265	-1.068615	-3.949193	-0.408513	179.051439	-58.644901	-85.847971			
44977	10.117819	1.543794	-1.851616	-1.230323	-3.782642	-0.202289	178.476800	-58.323171	-85.771544			
44978	10.352569	1.329187	-2.390990	-0.994180	-3.469942	0.268492	177.726207	-58.083316	-85.705759			
44979	10.593782	1.297353	-2.244874	-0.905928	-3.738616	0.392833	176.772792	-57.926694	-85.558256			
44980	10.754046	1.309948	-2.173652	-0.859029	-3.889424	0.493837	175.676493	-57.818426	-85.366980			
44981	11.130987	1.071742	-1.787282	-0.562254	-4.418089	0.599140	174.770788	-57.683386	-85.318554			
44982	12.123399	0.361639	-1.816459	0.216462	-4.941974	1.409478	174.101778	-57.484187	-85.403668			
44983	13.751619	-0.381282	-1.385026	1.036410	-6.211766	2.496268	173.250437	-57.405100	-85.335293			
44984	14.971612	-0.620527	-0.284903	1.298858	-7.803739	2.916412	172.353723	-57.480689	-85.206542			
44985	15.951386	-0.658175	0.249329	1.374281	-8.744552	3.475869	171.134352	-57.760379	-84.902067			
44986	16.972181	-0.822292	1.582389	1.492271	-10.314495	3.700868	169.940426	-58.450915	-84.685387			
44987	18.213716	-1.208524	3.893541	1.663608	-12.741197	3.723994	168.828038	-59.639591	-84.626375			
44988	19.889984	-2.486224	7.977984	2.422281	-16.806270	3.493680	167.868769	-61.972471	-84.519336			
44989	12.620490	-3.160747	10.401177	2.317556	-15.203699	-3.418795	166.534997	-64.558053	-83.932467			
44990	10.078695	-2.865173	5.694177	2.523069	-9.669223	-3.304971	165.725377	-65.440373	-83.109301			
44991	13.365841	-1.878113	2.098729	2.295699	-7.535622	1.346078	164.772781	-66.085948	-81.721493			
44992	15.280352	-2.544114	2.198286	3.175831	-8.245870	3.098729	163.991372	-67.122533	-80.411172			
44993	15.575775	-2.712516	1.079414	3.578752	-7.058528	3.916415	162.610551	-68.364822	-79.401328			
44994	16.776527	-4.320716	-3.947255	5.939548	-2.772818	6.701937	161.395789	-69.191168	-79.398503			
44995	18.476498	-5.228801	-8.702917	7.700646	1.066506	9.783836	160.789575	-69.846057	-79.841350			
44996	19.684737	-3.174279	-10.647597	6.051158	2.995668	11.758857	161.039183	-70.922316	-80.026254			
44997	17.184834	1.019030	-6.519089	1.005217	0.882350	8.546421	161.292957	-71.998712	-80.422791			
44998	16.405605	-0.264624	-10.105610	2.745436	4.613507	8.694298	161.946038	-72.935935	-81.425820			
44999	15.275416	-3.818757	-12.588113	6.454701	7.152029	7.894305	163.039159	-74.461521	-81.783641			
45000	13.388988	-2.849811	-6.838058	4.326885	2.831470	4.588054	163.185473	-76.141523	-80.481404			
45001	13.679327	-1.580477	-6.415359	2.856042	3.008820	4.800541	163.697734	-77.718897	-79.213938			
45002	14.037723	-0.716802	-8.404189	1.956659	5.463599	5.500269	164.199181	-79.585634	-77.695017			
45003	13.241802	-0.762597	-9.143429	1.620299	6.956624	4.624854	165.292557	-82.203183	-76.380967			
45004	11.930643	-0.677187	-4.229923	1.020671	2.959761	2.469043	162.732018	-85.307976	-71.321383			
45005	10.333052	2.476654	-1.475744	-2.263399	0.817955	0.640854	144.264783	-87.715623	-51.427711			
45006	11.712157	3.134478	-4.212809	-3.083476	3.883794	2.025390	81.387717	-88.791444	11.802373			
45007	11.870015	1.021739	-4.937165	-1.110157	5.129682	1.966644	19.857343	-87.644505	73.481448			
45008	12.006368	0.786050	-4.812310	-0.970956	5.426851	1.914153	5.783841	-85.807780	87.429491			
45009	11.477195	-0.296621	-4.452929	0.025158	5.476266	1.216227	-0.160152	-83.861838	93.459053			
45010	9.901221	0.320236	-4.210068	-0.686276	5.357865	-0.502828	-3.317016	-82.066361	96.963741			
45011	9.590438	0.462060	-5.184088	-1.017062	6.530696	-1.131069	-5.472950	-80.343150	99.587602			
45012	8.310945	0.395387	-4.926616	-1.038654	6.286121	-2.539576	-6.859002	-78.687995	101.593559			
45013	7.544566	0.212809	-5.115280	-0.984861	6.511742	-3.507729	-7.705826	-77.067437	103.202046			
45014	6.796410	0.212233	-5.225931	-1.098317	6.597854	-4.445861	-8.182933	-75.473551	104.470918			
45015	6.323273	0.554592	-4.714883	-1.487171	6.067829	-4.966379	-8.439896	-73.917895	105.498427			
45016	5.867302	0.921893	-3.811417	-1.823484	5.132125	-5.325452	-8.617536	-72.469193	106.322425			
45017	5.512979	1.453463	-3.398766	-2.351995	4.643872	-5.694732	-8.691419	-71.101970	106.912787			
45018	5.148392	1.716041	-2.948351	-2.582651	4.132516	-6.018688	-8.770473	-69.915307	107.399834			
45019	4.966801	2.296187	-2.716661	-3.153038	3.817410	-6.234059	-8.996664	-68.851471	107.847964			
45020	4.444315	2.118190	-3.185973	-3.017131	4.144226	-6.964774	-9.317099	-67.895072	108.259600			
45021	4.052932	1.912899	-3.625154	-2.851860	4.473464	-7.558441	-9.736463	-67.086238	108.706285			
45022	3.652733	1.822124	-3.922591	-2.767959	4.635482	-8.109886	-10.242670	-66.336045	109.162173			
45023	2.821264	0.776881	-3.073928	-1.531430	3.741250	-8.520519	-10.841492	-65.713067	109.649306			
45024	2.901286	0.978622	-3.128555	-1.754552	3.798478	-8.525827	-11.447092	-65.235456	110.188801			
45025	3.022672	0.592659	-3.139771	-1.394212	3.931804	-8.418784	-12.462899	-64.883156	110.798630			
45026	3.242547	-0.157682	-3.077388	-0.675010	4.094115	-8.141801	-13.580934	-64.668337	111.483523			
45027	3.549614	-0.389015	-3.245162	-0.509455	4.406331	-7.913509	-14.551396	-64.589161	112.189138			
45028	3.648945	0.597040	-2.856805	-1.458577	3.939092	-7.766058	-15.416518	-64.617968	112.866314			
45029	3.464236	0.928361	-3.201300	-1.785028	4.125292	-8.107769	-16.343328	-64.711317	113.498193			
45030	2.841071	0.930646	-3.165921	-1.672542	3.848219	-8.648793	-17.176243	-64.837713	114.081160			
45031	2.792404	1.049216	-2.502416	-1.719228	3.206900	-8.426871	-18.112578	-65.070669	114.705575			
45032	3.533668	0.168214	-2.365044	-0.971332	3.481601	-7.566923	-19.100387	-65.348461	115.428419			
45033	4.307146	-0.087544	-0.988692	-0.761908	2.528504	-6.268286	-20.144689	-65.604520	116.168618			
45034	5.423784	-0.964141	0.518930	-0.016625	1.631042	-4.525405	-21.523134	-66.054965	117.122376			
45035	7.815979	-1.847227	1.480753	0.441151	1.635937	-1.823787	-22.963845	-66.556594	118.113446			
45036	9.735458	-2.566714	3.232400	0.845393	0.655036	0.707312	-24.299827	-67.011882	119.104881			
45037	11.916555	-3.300883	4.945423	1.192942	-0.238480	3.449138	-25.334636	-67.369442	120.009801			
45038	14.225100	-4.104188	6.377936	1.566917	-0.828750	6.210203	-26.071335	-67.612761	120.822183			
45039	14.665087	-3.997655	7.915670	1.430940	-2.210750	7.121558	-26.484880	-67.732999	121.554626			
45040	13.162826	-3.401085	9.250970	1.220497	-4.046375	6.078978	-26.714560	-67.759733	122.230705			
45041	11.491087	-3.527425	10.507502	1.796430	-5.749862	4.972678	-26.700637	-67.825306	122.726883			
45042	10.664388	-3.885881	11.084127	2.442980	-6.509264	4.447302	-26.421275	-68.050690	123.014189			
45043	10.394761	-4.192887	10.652668	2.905584	-6.146940	4.075470	-25.653180	-68.366636	122.960091			
45044	8.788706	-3.621644	10.092190	2.827091	-6.188069	2.267051	-24.377867	-68.809395	122.819638			
45045	8.242352	-1.553232	9.487101	1.113609	-6.162769	1.193074	-23.314509	-69.656302	123.040056			
45046	8.226810	0.045814	6.976559	-0.519326	-4.237368	0.092972	-22.583731	-70.904405	123.632758			
45047	12.594001	1.606847	8.708576	-2.207065	-5.204184	4.507091	-20.941791	-72.085451	123.710209			
45048	1.440625	3.468944	-0.880614	-3.765157	0.306838	-9.030682	-18.977837	-73.573231	123.802718			
45049	3.692535	6.422501	-9.747258	-9.144223	8.110521	-9.143725	-18.735037	-76.684498	125.343021			
45050	7.731124	14.103271	-14.885593	-18.614789	10.790434	-5.693785	-11.565246	-81.265944	120.671195			
45051	40.686793	24.250253	6.145622	-22.966317	-8.712170	31.143040	6.851381	-82.668771	103.298196			
45052	25.340141	13.473795	18.986152	-7.604434	-18.325777	18.294872	1.273549	-79.412725	106.960304			
45053	6.690986	-7.542301	18.004089	11.589434	-13.583102	0.516225	-9.823320	-77.016381	113.590155			
45054	9.233481	-20.357760	-1.776248	18.497909	8.139958	-0.099954	-19.532031	-79.161150	122.262999			
45055	17.083798	-3.797423	-8.577584	-0.024718	11.605843	5.843624	-19.516092	-81.040696	125.503382			
45056	13.223769	10.976472	-2.171180	-12.112970	0.301786	2.563704	-8.249481	-82.015401	118.001513			
45057	10.849833	22.663254	2.659868	-20.924740	-8.924049	1.181801	3.992751	-82.094498	106.646917			
45058	6.753773	17.826182	1.807593	-16.551528	-6.695459	-2.899146	-5.226476	-82.578222	112.900460			
45059	3.987830	1.830294	-5.483329	-3.432454	5.184306	-6.549289	-26.650833	-83.379243	129.507424			
45060	3.971932	-5.185692	-14.364381	2.138571	15.301941	-6.632531	-60.563805	-82.980621	158.751224			
45061	1.749537	-20.654566	-23.042109	17.700601	25.181383	-6.274315	-80.681138	-80.295074	174.720786			
45062	13.043015	-24.763732	-9.960427	21.675225	11.512130	6.925367	-76.345428	-79.522662	167.661020			
45063	1.963533	-11.472564	-0.178024	10.925041	0.787349	-5.874075	-75.839656	-79.625745	169.555973			
45064	2.946162	-3.457587	-3.926408	2.573836	4.247081	-6.438201	-87.192339	-80.991332	-176.602325			
45065	9.320138	-3.400826	-9.054196	0.872611	9.079776	0.045281	-109.042310	-82.509727	-152.072582			
45066	17.045365	1.330968	-7.966894	-4.321430	6.459423	7.373433	-123.400515	-83.996231	-135.533870			
45067	10.275169	3.880189	-3.544981	-5.176003	1.923243	0.321810	-130.542769	-85.161313	-126.188264			
45068	7.849417	4.101363	-0.719935	-4.488299	-0.824820	-2.188688	-138.365950	-85.421993	-117.126209			
45069	9.562769	3.214760	0.369825	-3.347301	-1.919481	-0.483874	-143.587035	-84.690919	-111.449995			
45070	9.988298	1.992789	-0.746292	-2.475851	-0.758230	0.065850	-145.788711	-83.417421	-109.401389			
45071	10.664950	0.041442	-3.586971	-1.386860	2.202754	1.134062	-146.114993	-82.450462	-109.570208			
45072	9.853872	-1.078716	-1.638863	0.177797	0.579781	0.216264	-145.364967	-81.943570	-110.456671			
45073	8.432925	-0.715502	-0.020789	0.276777	-0.945766	-1.407021	-146.462516	-81.570026	-109.246822			
45074	8.497092	-0.326606	0.149025	-0.034907	-1.289714	-1.406507	-149.450315	-81.012395	-105.981167			
45075	9.105161	0.346989	-0.596357	-0.846343	-0.953655	-0.770995	-152.951962	-80.255656	-102.154578			
45076	9.653203	1.008295	-1.885215	-1.768958	-0.123577	-0.086006	-156.260688	-79.547241	-98.654035			
45077	9.533364	1.801838	-1.779622	-2.433586	-0.529522	-0.268333	-158.695277	-78.975538	-96.187923			
45078	9.010229	2.066812	-1.185526	-2.469872	-1.156843	-0.900779	-160.532338	-78.386687	-94.637221			
45079	8.901665	1.864314	-1.207184	-2.247061	-1.152691	-0.992602	-161.786320	-77.658767	-94.021118			
45080	8.858393	0.679904	-1.818246	-1.232763	-0.384492	-0.836565	-162.652490	-76.821407	-94.071375			
45081	9.282064	-0.772303	-3.025378	-0.083167	0.860902	-0.057873	-163.323258	-76.027067	-94.370479			
45082	9.461616	-1.703981	-3.311110	0.795653	1.151534	0.258496	-163.978112	-75.418113	-94.611432			
45083	9.083124	-2.107167	-3.062295	1.285295	0.972720	-0.131688	-164.691780	-74.904773	-94.664892			
45084	8.699487	-2.467470	-3.096623	1.685221	1.058911	-0.464106	-165.811574	-74.344189	-94.222515			
45085	8.775258	-2.697535	-3.617085	1.876812	1.451907	-0.234946	-167.074621	-73.726307	-93.469500			
45086	8.774186	-2.663725	-3.926859	1.856044	1.620052	-0.146719	-168.351617	-73.106481	-92.611319			
45087	8.527018	-2.814660	-4.228551	2.021432	1.880285	-0.279067	-169.362074	-72.473799	-91.949732			
45088	8.378410	-2.886546	-4.668454	2.078268	2.232375	-0.272233	-170.187514	-71.820029	-91.391710			
45089	8.289112	-2.530499	-4.621473	1.777975	2.048617	-0.372799	-170.993156	-71.112119	-90.632470			
45090	8.193404	-1.532794	-4.335129	0.875447	1.556766	-0.588623	-171.995190	-70.342425	-89.373818			
45091	8.096396	-0.127704	-3.948462	-0.402503	0.903690	-0.858480	-173.262855	-69.506595	-87.643997			
45092	8.168499	1.156321	-3.662172	-1.554588	0.281192	-0.925911	-174.602319	-68.636308	-85.798544			
45093	8.540391	2.092625	-3.364701	-2.337026	-0.421217	-0.702409	-175.839523	-67.804770	-84.268550			
45094	8.927292	2.469009	-2.716797	-2.511347	-1.344265	-0.589983	-176.701865	-67.078619	-83.513935			
45095	8.734418	1.571648	-2.149777	-1.496175	-1.734999	-0.973447	-177.246922	-66.387847	-83.503888			
45096	8.833152	0.386414	-2.007696	-0.275392	-1.813833	-0.933616	-177.709580	-65.662006	-83.786899			
45097	9.050289	-0.116362	-1.296306	0.344107	-2.586369	-1.049550	-178.175083	-64.851430	-84.122224			
45098	9.073535	-0.567188	-1.006433	0.833812	-2.931691	-1.188789	-178.614703	-63.936072	-84.481715			
45099	9.051999	-1.243839	-1.532477	1.459033	-2.527641	-1.019842	-179.188209	-62.973365	-84.703987			
45100	8.678392	-1.881443	-2.071623	2.053624	-1.959561	-1.147409	-179.816036	-62.213696	-84.673086			
45101	5.944615	-2.085674	-2.033461	2.173779	-0.796508	-3.610802	179.655009	-61.781938	-84.469986			
45102	10.038082	-1.411960	-0.303255	1.846594	-4.399135	-0.863703	179.452039	-60.916901	-84.472868			
45103	13.226943	-1.367785	0.293799	2.019332	-6.645413	1.530345	179.207462	-59.812881	-84.380544			
45104	11.325068	-2.672243	-3.653472	2.965350	-2.335016	1.784708	179.326526	-59.304483	-84.217354			
45105	9.022456	-1.569359	-2.316498	1.875865	-2.469625	-0.889930	178.978548	-59.045750	-83.616334			
45106	9.174462	-0.470971	-1.915022	0.879209	-3.052987	-0.982910	178.345158	-58.418496	-82.938047			
45107	10.941126	-0.015587	-2.316159	0.580013	-3.788998	0.693401	177.876566	-57.619561	-82.414643			
45108	11.582121	0.553574	-2.325077	0.125734	-4.290255	1.207060	177.423198	-57.142044	-81.984981			
45109	10.769159	0.916884	-2.131269	-0.230224	-4.117285	0.402615	176.968865	-56.853227	-81.719344			
45110	10.340729	0.815534	-2.584775	-0.153284	-3.547228	0.270471	176.466976	-56.479264	-81.599130			
45111	10.739389	0.625383	-3.266233	0.072592	-3.232635	0.954775	175.793424	-56.168616	-81.495043			
45112	10.798560	0.580428	-2.526334	0.207532	-3.904059	0.581697	174.889316	-56.055421	-81.458396			
45113	11.362760	0.368428	-2.032522	0.522245	-4.613619	0.761852	173.721486	-56.021158	-81.554632			
45114	13.270291	-0.685068	-1.833141	1.751023	-5.769745	2.169562	172.602533	-56.144066	-81.815755			
45115	14.464027	-1.483141	0.043222	2.602086	-7.945528	2.082987	171.665983	-56.439232	-82.074915			
45116	16.020458	-2.232907	0.871842	3.397577	-9.440585	2.904716	170.664091	-56.829468	-82.174958			
45117	17.006513	-2.671008	1.557220	3.831269	-10.459244	3.404855	169.667944	-57.578454	-82.108021			
45118	18.829510	-2.516512	4.648142	3.539153	-13.843996	3.539924	168.897012	-58.846781	-82.128395			
45119	18.844099	-2.702896	6.350623	3.464976	-14.964145	3.100881	167.948500	-60.975993	-82.045945			
45120	14.129446	-2.712520	5.122267	3.155605	-11.228495	0.045059	166.842486	-63.095802	-81.611765			
45121	12.741195	-1.761896	5.202847	2.121131	-10.350518	-0.819795	166.277660	-64.237012	-80.687268			
45122	13.707766	-0.541915	3.338046	1.284761	-8.849693	1.112803	165.485536	-64.809526	-79.079410			
45123	15.664547	-0.075961	2.070355	1.282377	-8.287042	3.579030	163.423989	-65.813842	-76.705951			
45124	14.403380	-1.327884	-0.693485	2.776577	-4.987237	3.495544	161.335100	-67.104022	-74.986094			
45125	14.693704	-2.742804	-3.120853	4.463208	-2.610641	4.554858	160.070947	-68.258040	-74.503384			
45126	15.043316	-3.366450	-6.921177	5.496764	0.981688	6.135878	159.289718	-69.095622	-74.692736			
45127	15.298128	-2.956934	-9.100053	5.360852	3.123472	7.131049	159.171263	-69.763333	-74.935354			
45128	15.829019	0.134648	-8.604661	2.242061	2.885261	7.829928	159.467131	-70.305960	-75.038957			
45129	15.188583	1.722810	-9.188705	0.556563	3.927982	7.575536	160.418600	-70.921936	-75.611367			
45130	14.256380	0.200496	-10.732145	1.930894	5.796860	6.953880	161.840266	-71.976215	-76.242310			
45131	12.871793	-0.525783	-7.348415	2.032314	3.297663	4.502949	162.008453	-73.520057	-75.372805			
45132	11.907777	0.186727	-5.012829	0.956570	1.729139	2.956114	161.694409	-75.016677	-73.765755			
45133	12.174132	0.490016	-5.691096	0.577419	2.671150	3.353874	161.356770	-76.462331	-72.064951			
45134	12.957997	0.718696	-8.599537	0.225379	5.745725	4.653887	161.454693	-78.483403	-70.472940			
45135	11.296769	0.105089	-6.563395	0.407460	4.606103	2.405462	160.929311	-81.266254	-68.058433			
45136	8.889295	0.548661	-2.144594	-0.203066	1.040536	-0.714286	157.125185	-83.865820	-62.932632			
45137	8.437330	1.147016	-2.124132	-0.909612	1.346723	-1.188922	150.238079	-85.504052	-55.632951			
45138	10.566125	0.386252	-6.422590	-0.475324	5.796351	1.105678	142.863893	-86.783623	-47.994367			
45139	11.242552	0.122588	-7.483398	-0.384282	7.148652	1.639155	114.640484	-88.203840	-19.654447			
45140	9.903784	0.462807	-4.039013	-0.554374	4.051699	0.080596	45.923118	-88.167162	48.847966			
45141	9.297234	-0.661394	-3.930376	0.491565	4.312189	-0.675876	17.590212	-87.062120	76.918680			
45142	9.875974	-0.386867	-5.488478	0.004077	6.100313	-0.294974	6.208483	-85.786610	88.617162			
45143	9.070903	1.605786	-5.408951	-2.107157	5.999224	-1.229022	0.667899	-84.408205	94.696748			
45144	8.088140	2.269390	-5.344637	-2.879622	5.952160	-2.369109	-2.670206	-82.913960	98.460126			
45145	6.448819	1.438291	-4.698291	-2.065955	5.341016	-4.074097	-5.003789	-81.466486	101.227612			
45146	5.872580	1.248564	-4.328289	-1.915463	5.024041	-4.726699	-6.336395	-80.078320	103.059987			
45147	5.579161	0.641518	-4.250456	-1.376422	5.067946	-5.119738	-7.235438	-78.708938	104.374279			
45148	5.273497	0.481803	-3.931701	-1.236563	4.808260	-5.471049	-7.869310	-77.450472	105.365702			
45149	5.508046	0.973939	-3.799157	-1.781825	4.741160	-5.333217	-8.421885	-76.315208	106.176319			
45150	5.681952	1.595423	-3.471624	-2.416926	4.451274	-5.205576	-9.078668	-75.286634	106.920374			
45151	5.621324	1.472327	-3.481033	-2.330482	4.529883	-5.348086	-9.906984	-74.400203	107.671338			
45152	5.515073	1.795238	-3.277810	-2.646318	4.321340	-5.487733	-10.751082	-73.626114	108.393688			
45153	5.169754	1.728355	-3.491021	-2.597457	4.490911	-5.941613	-11.707815	-72.974254	109.116272			
45154	4.758008	1.425389	-3.825819	-2.307070	4.777991	-6.472761	-12.796308	-72.400983	109.854777			
45155	4.215904	1.003337	-4.201053	-1.875174	5.066745	-7.121781	-13.864153	-71.935132	110.599023			
45156	3.800806	1.023906	-4.214854	-1.848582	4.977092	-7.560867	-14.831968	-71.572148	111.286301			
45157	3.393625	0.960022	-3.676565	-1.683332	4.367443	-7.800904	-15.869923	-71.401865	112.033565			
45158	3.521603	0.379061	-4.295790	-1.175996	5.065348	-7.823097	-16.832198	-71.411921	112.826640			
45159	3.567102	0.280630	-4.212701	-1.083544	5.005065	-7.733018	-17.580067	-71.585276	113.627449			
45160	3.986880	0.301276	-3.367832	-1.103282	4.305409	-7.060534	-18.059784	-71.881174	114.388807			
45161	4.619115	0.642295	-2.374314	-1.451896	3.468931	-6.173393	-18.481562	-72.271816	115.132405			
45162	6.049482	0.845804	-1.101605	-1.728990	2.581261	-4.439369	-18.960925	-72.697374	115.937507			
45163	7.983042	0.905700	-0.221164	-1.956873	2.188632	-2.330825	-19.589190	-73.139311	116.769326			
45164	11.542044	0.676061	2.171256	-1.943886	0.801065	1.761839	-19.709801	-73.247394	117.324706			
45165	15.173413	2.095187	8.026058	-3.161004	-4.056974	6.697567	-19.606965	-72.945748	117.498151			
45166	17.419093	1.277516	10.917325	-2.461090	-5.967372	9.746668	-20.626657	-72.149082	117.980111			
45167	15.208084	-2.604197	11.728515	1.434267	-6.562306	8.366604	-22.250135	-70.990595	118.920806			
45168	10.282959	-3.980744	12.512607	3.347083	-8.334215	4.240155	-23.323417	-70.077572	119.908756			
45169	7.999908	-2.578117	12.750133	2.225773	-9.334470	2.066846	-24.471466	-69.690489	120.954964			
45170	7.298491	-4.329172	11.077944	3.820175	-7.735678	1.155226	-25.584075	-69.641798	121.775522			
45171	6.670440	-4.138996	11.344937	3.693964	-8.247973	0.611261	-26.292580	-69.751591	122.258087			
45172	7.553146	-3.938265	10.247766	3.229123	-7.015138	1.047200	-26.395632	-69.895108	122.336631			
45173	6.517114	-2.506546	8.150476	1.899080	-5.517378	-0.805056	-25.727523	-70.047424	121.991768			
45174	5.690157	-0.934558	5.900140	0.413298	-3.840225	-2.522707	-24.877910	-70.543716	121.766907			
45175	5.863347	0.675320	1.874055	-1.481053	-0.269376	-3.806076	-24.697144	-71.679888	122.217514			
45176	9.024889	1.950109	-2.200178	-3.630524	4.084838	-2.052619	-25.371012	-73.333017	123.467396			
45177	12.296324	2.956739	-4.546724	-5.333157	6.674305	0.560817	-25.146937	-75.138249	123.933771			
45178	11.751286	4.589969	-8.285967	-7.287375	9.538170	-0.663482	-23.910194	-77.168371	123.790306			
45179	18.669838	5.416185	-3.905462	-8.123071	5.992615	7.252574	-21.687801	-78.701160	123.013971			
45180	23.154501	3.439783	11.261164	-3.749994	-7.540273	14.760476	-19.557272	-77.697740	121.164005			
45181	17.528767	-4.388477	13.139574	4.485113	-8.204726	10.476213	-20.848869	-75.129466	121.331622			
45182	7.643434	-14.575369	11.756430	15.084454	-6.674131	1.891061	-24.176873	-74.331108	125.130254			
45183	11.688722	-3.724378	-2.016085	1.470097	5.209575	1.379272	-21.685139	-75.871753	125.605296			
45184	15.101541	8.792366	-2.145651	-10.876070	2.509780	3.799991	-11.395721	-77.055759	119.375721			
45185	11.112406	17.815979	2.345920	-17.044815	-5.857189	1.206462	1.766039	-77.159113	109.036378			
45186	6.957284	24.313554	-0.564348	-23.459880	-6.471201	-2.912179	3.383607	-77.198338	106.651572			
45187	3.032115	8.322058	-2.981429	-9.030204	0.782635	-7.542144	-6.695698	-77.844686	112.999167			
45188	1.648359	-0.379669	-9.005010	-1.903738	8.959140	-9.957630	-21.310167	-78.548621	123.286823			
45189	0.545201	-5.909455	-14.214759	3.277997	14.991892	-11.108719	-39.774239	-78.273658	138.722350			
45190	2.998065	-12.765724	-7.867458	11.070932	9.813241	-5.959435	-56.273442	-76.885659	151.651019			
45191	15.298553	-18.979518	-7.897431	15.141545	10.791102	7.815411	-59.470857	-76.407066	150.380673			
45192	7.168414	-16.541228	-5.751845	14.671560	7.121075	-0.215171	-59.001552	-76.648960	150.863355			
45193	5.965305	-6.339094	-4.354082	4.895905	5.293858	-3.275727	-61.064404	-78.471426	155.069162			
45194	10.837864	-4.132780	-7.177668	1.621341	8.276866	0.907306	-64.337830	-80.511816	160.894552			
45195	12.141022	-0.312259	-3.109610	-1.871120	3.664582	2.029436	-65.784986	-81.971524	164.997454			
45196	11.244697	2.098380	-3.295787	-4.013200	3.229446	0.918966	-65.563127	-83.278240	166.437495			
45197	9.909101	3.354020	-2.968488	-4.920162	2.484826	-0.438932	-66.277701	-83.979354	168.153872			
45198	9.572002	2.608142	-1.951118	-3.912850	1.508193	-0.612368	-72.431806	-84.225302	174.678240			
45199	10.360700	1.085682	-3.572044	-2.856114	3.275074	0.306426	-81.366489	-84.131092	-176.403597			
45200	9.569462	-0.497097	-3.922364	-1.318454	3.823105	-0.281105	-87.858687	-83.986248	-170.188379			
45201	8.642841	-1.537927	-3.507368	-0.111011	3.545963	-1.050355	-93.952273	-83.981881	-164.126834			
45202	8.139995	-1.753230	-3.078590	0.260042	3.082813	-1.491720	-101.957020	-84.021927	-155.733035			
45203	8.764888	-1.947465	-3.555850	0.316616	3.437728	-0.793829	-111.870372	-83.995655	-145.172441			
45204	9.578082	-1.342171	-3.347302	-0.249594	2.908441	-0.003410	-121.154559	-83.843304	-135.270133			
45205	9.710238	-0.746826	-2.802354	-0.650281	2.086315	0.082869	-128.938665	-83.540146	-127.065985			
45206	9.434231	-0.410652	-2.601246	-0.850556	1.695819	-0.203390	-135.618174	-83.088540	-120.027261			
45207	9.405507	0.174946	-2.600554	-1.353865	1.409821	-0.250562	-141.899699	-82.551961	-113.351310			
45208	9.471365	1.064979	-2.357024	-2.078477	0.794418	-0.250122	-147.819139	-81.976946	-106.971173			
45209	9.563814	2.002436	-1.762935	-2.733706	-0.183092	-0.269384	-153.270682	-81.349165	-101.121467			
45210	9.847985	2.568054	-1.461992	-3.100000	-0.810524	-0.043068	-157.874711	-80.655867	-96.398563			
45211	9.846782	2.212392	-1.456873	-2.663824	-0.859319	-0.007589	-161.129355	-79.865867	-93.433752			
45212	9.498861	1.212912	-1.768874	-1.712859	-0.369370	-0.233726	-163.350280	-79.002843	-91.947648			
45213	9.217431	0.083353	-2.026845	-0.631425	0.078018	-0.396234	-164.918476	-78.115720	-91.398691			
45214	8.923051	-0.825935	-2.324249	0.232861	0.490986	-0.571051	-166.257320	-77.245437	-91.175424			
45215	8.890362	-1.559189	-2.373387	0.993716	0.548303	-0.549202	-167.661086	-76.386410	-90.796965			
45216	9.092221	-2.046068	-2.323699	1.542578	0.389214	-0.340578	-169.217547	-75.547355	-90.123523			
45217	9.253403	-2.237646	-2.073631	1.844428	-0.016928	-0.245675	-170.776183	-74.707310	-89.287307			
45218	9.035818	-2.004222	-1.827505	1.721533	-0.386915	-0.545159	-172.252055	-73.868542	-88.350833			
45219	8.748743	-1.382288	-1.450539	1.231547	-0.907412	-0.968865	-173.711723	-72.985134	-87.222987			
45220	8.717924	-0.403048	-0.936404	0.412330	-1.667083	-1.205108	-175.188772	-72.101814	-85.880601			
45221	8.889547	0.508887	-0.225699	-0.301569	-2.654393	-1.315909	-176.574478	-71.201589	-84.507393			
45222	9.516110	0.805671	0.169416	-0.440954	-3.399839	-0.897604	-177.723508	-70.300875	-83.431462			
45223	10.076754	0.470415	0.136031	-0.037777	-3.636976	-0.402582	-178.428775	-69.484355	-83.060583			
45224	10.251772	-0.649408	0.092414	1.086216	-3.619286	-0.260277	-178.724089	-68.791693	-83.378220			
45225	10.377224	-2.225569	-0.865739	2.515237	-2.697928	0.176430	-178.765175	-68.174778	-84.096331			
45226	10.046742	-3.813493	-2.510308	3.875200	-0.999021	0.471515	-178.783332	-67.684312	-84.659737			
45227	9.319806	-3.980644	-3.376442	3.937891	-0.009307	0.116919	-179.136683	-67.264500	-84.359952			
45228	8.838366	-2.478148	-3.107533	2.490072	-0.302816	-0.452019	-179.587406	-66.752585	-83.406481			
45229	8.508983	-1.160239	-2.830574	1.237924	-0.660275	-0.880058	-179.840403	-66.038731	-82.350714			
45230	8.646469	-0.357702	-2.451121	0.543143	-1.270119	-0.925178	179.878735	-65.229068	-81.319209			
45231	8.700052	-0.056986	-2.246655	0.328393	-1.631016	-0.982489	179.646750	-64.497572	-80.501649			
45232	8.110291	0.112344	-1.713643	0.239236	-1.974320	-1.764695	179.474980	-63.903536	-79.966178			
45233	8.276955	0.224024	-1.252665	0.248903	-2.552089	-1.840765	179.116482	-63.303955	-79.565299			
45234	9.047679	0.019113	-1.192022	0.560773	-2.998138	-1.211670	178.840721	-62.633132	-79.327030			
45235	9.668568	-0.268949	-1.477254	0.894625	-3.082753	-0.569805	178.653315	-61.924918	-79.077891			
45236	10.133740	-0.153561	-2.050187	0.786047	-2.926244	0.073537	178.374024	-61.248321	-78.676709			
45237	10.377601	0.090620	-2.601860	0.543676	-2.710993	0.522991	178.041393	-60.636948	-78.269053			
45238	10.153895	0.230821	-2.816654	0.407733	-2.533896	0.409870	177.563168	-60.129426	-77.973743			
45239	9.981695	0.041270	-2.972672	0.607222	-2.358253	0.313617	176.987308	-59.700533	-77.862740			
45240	10.290380	-0.374566	-3.517797	1.035511	-2.041357	0.825310	176.253228	-59.323586	-77.767985			
45241	10.527080	-0.399556	-3.361176	1.166701	-2.349463	0.929509	175.513757	-58.988604	-77.653012			
45242	10.726348	-0.295750	-3.592005	1.122640	-2.325141	1.204449	174.790153	-58.662156	-77.597470			
45243	11.876796	-0.432172	-4.270535	1.390656	-2.370249	2.513292	173.956402	-58.382807	-77.585701			
45244	12.879560	0.076453	-4.031208	1.121807	-3.169285	3.257709	172.289743	-58.373380	-77.326020			
45245	13.826246	-1.245744	-3.236690	2.725255	-4.157128	3.547040	170.056615	-58.621812	-76.844879			
45246	13.497000	-2.397908	-1.161488	3.962988	-5.652323	2.087479	169.025173	-58.784310	-76.773838			
45247	14.147362	-2.353381	0.800051	4.019510	-7.683839	1.638444	168.534924	-58.732516	-76.741112			
45248	16.351704	-1.489501	0.776964	3.441313	-8.849265	3.605518	167.809068	-58.668780	-76.477263			
45249	18.306553	-0.699039	1.881062	2.888956	-10.792753	4.827197	167.130852	-59.044150	-76.359861			
45250	18.807969	-1.717259	3.478750	3.881713	-12.200330	4.500347	166.119226	-60.198696	-76.087404			
45251	16.905643	-2.204375	4.714080	4.045684	-11.982644	2.552408	164.822696	-62.342994	-75.201484			
45252	10.804861	-1.205687	4.913961	2.335773	-9.072502	-2.425956	163.417568	-64.331373	-73.633900			
45253	10.675530	-0.349360	4.429548	1.604889	-8.380367	-2.008988	163.119411	-65.174659	-72.013086			
45254	12.451320	2.798170	4.856613	-1.075815	-9.486500	-0.050881	162.310084	-65.960140	-69.848708			
45255	12.102913	2.307217	2.721443	-0.483725	-7.184311	0.548514	159.973684	-66.892048	-67.469926			
45256	11.796710	0.798762	0.280046	0.993741	-4.476573	1.088982	157.980328	-67.942305	-66.193587			
45257	12.486063	-0.922139	-3.359578	2.812018	-0.991244	2.802606	155.992410	-68.874596	-65.549320			
45258	13.615996	-1.330117	-6.301733	3.491565	1.616391	4.749916	154.459362	-69.679946	-65.126437			
45259	14.319255	-0.145545	-7.224612	2.508612	2.465049	5.836046	153.097088	-70.484604	-64.240971			
45260	14.124060	3.208874	-5.908540	-0.887044	1.493057	5.733241	152.238082	-71.319538	-63.479903			
45261	13.755227	3.727173	-5.274735	-1.535667	1.215020	5.256559	152.123708	-72.150093	-63.681854			
45262	14.078544	1.363361	-8.676952	0.870686	4.576006	6.113703	153.209712	-73.043754	-64.761085			
45263	12.971343	0.002528	-7.085362	1.756777	3.533608	4.430620	155.528924	-74.300657	-66.199005			
45264	11.530938	-1.269866	-6.591671	2.578219	3.660488	2.755902	156.734354	-75.506164	-66.549502			
45265	11.807788	-1.192111	-6.120337	2.343387	3.407524	2.883458	156.298607	-76.705482	-65.229200			
45266	12.298164	0.538692	-6.853369	0.499190	4.289439	3.597814	155.416353	-78.211716	-63.396473			
45267	11.737357	-0.021513	-7.517652	0.763500	5.472014	2.982985	153.954831	-80.328168	-60.951659			
45268	10.591094	-0.308124	-5.681976	0.787635	4.323831	1.376902	149.869101	-82.879601	-55.838968			
45269	8.364271	1.269109	-0.068859	-0.719660	-0.715579	-1.414072	139.574005	-84.970824	-45.380460			
45270	9.170420	0.046491	-3.265470	0.248293	2.778220	-0.486514	131.605418	-86.219934	-37.644358			
45271	10.613162	-1.287374	-5.867560	1.381534	5.639357	0.911406	115.433616	-87.418270	-21.477049			
45272	9.893842	-0.613741	-5.378486	0.607350	5.373853	0.083666	77.032587	-88.095072	16.898033			
45273	9.204682	-1.425379	-4.840320	1.330537	5.134854	-0.754944	34.632971	-87.610569	59.342632			
45274	8.817600	-0.709913	-4.951983	0.494938	5.399265	-1.246831	15.481463	-86.595861	78.786883			
45275	9.454417	-0.262438	-5.842914	-0.124188	6.497436	-0.792978	5.801369	-85.255678	88.720485			
45276	8.751870	-0.330277	-5.408544	-0.144781	6.221090	-1.613461	0.743025	-83.864220	94.245930			
45277	8.766070	0.261808	-5.504362	-0.880998	6.449480	-1.760832	-2.208189	-82.525623	97.887701			
45278	8.526408	1.049026	-4.675014	-1.727376	5.681439	-2.041717	-3.926062	-81.186115	100.465021			
45279	7.919499	1.612314	-3.840239	-2.317165	4.839110	-2.652009	-5.038968	-79.873723	102.474017			
45280	6.962134	2.346300	-3.127622	-3.037294	3.982835	-3.594329	-5.892944	-78.653849	104.152109			
45281	6.322509	2.475627	-3.134629	-3.231495	3.920190	-4.324829	-6.729611	-77.546643	105.600785			
45282	5.713991	2.407259	-2.684719	-3.137722	3.428043	-4.908157	-7.688482	-76.571002	106.935430			
45283	5.269736	2.144492	-2.425387	-2.866612	3.174036	-5.345169	-8.948218	-75.724506	108.298843			
45284	4.981511	1.546563	-2.247237	-2.271225	3.083813	-5.618826	-10.557187	-74.998891	109.688135			
45285	4.945228	0.455747	-2.228493	-1.222796	3.278422	-5.643084	-12.438055	-74.390651	111.128926			
45286	4.885239	-0.050850	-2.188721	-0.736704	3.336543	-5.691612	-14.387742	-73.898118	112.532868			
45287	5.029257	-0.385415	-2.325948	-0.457747	3.573690	-5.585257	-16.380954	-73.526795	113.908608			
45288	5.298260	-0.350191	-2.944200	-0.607833	4.237999	-5.507760	-18.199939	-73.291753	115.228484			
45289	5.794685	0.227667	-2.900953	-1.248426	4.251063	-5.078175	-19.812712	-73.135572	116.452470			
45290	5.813093	0.547841	-2.878466	-1.582101	4.191441	-5.089713	-21.356292	-73.068005	117.699337			
45291	5.898497	0.748543	-2.476715	-1.777213	3.791416	-4.918477	-22.915409	-73.107145	119.094542			
45292	6.042001	1.254177	-1.566645	-2.244719	2.868514	-4.591020	-24.570453	-73.225392	120.667435			
45293	6.474981	1.155931	-0.851188	-2.184598	2.265836	-3.974934	-26.384833	-73.351366	122.380327			
45294	6.825175	0.504789	0.019968	-1.563714	1.550502	-3.332821	-28.259450	-73.460040	124.115336			
45295	7.616182	0.359566	0.667870	-1.539284	1.086784	-2.394417	-29.855830	-73.503636	125.791542			
45296	7.638830	0.952238	1.072651	-2.142867	0.593322	-2.365218	-31.629344	-73.471886	127.385701			
45297	7.849372	-0.000984	1.608176	-1.260413	0.198026	-1.902534	-33.580461	-73.418999	129.241604			
45298	8.139414	-0.073360	2.546204	-1.236423	-0.686016	-1.402065	-35.668999	-73.385268	131.378481			
45299	9.223503	0.147396	3.902043	-1.641289	-1.849033	-0.106677	-38.035186	-73.224328	133.491710			
45300	9.897781	-1.037407	4.619075	-0.701715	-2.312691	0.889406	-40.428621	-72.852823	135.231388			
45301	9.794114	-2.069218	6.061425	0.234468	-3.652242	1.302627	-42.350108	-72.307501	136.438659			
45302	9.074388	-3.568049	7.530544	1.719670	-5.108035	1.265740	-44.113689	-71.742821	137.474365			
45303	8.378696	-4.970192	8.327641	3.073089	-5.947607	1.115900	-45.696574	-71.282326	138.451801			
45304	7.746837	-6.310614	8.463564	4.374954	-6.164822	0.879479	-47.123744	-71.035024	139.504926			
45305	8.059884	-6.054139	8.750024	3.959542	-6.469282	1.171236	-48.652607	-71.106985	140.834985			
45306	8.284238	-4.846125	9.017697	2.685670	-6.859206	1.103791	-50.158020	-71.337667	142.129216			
45307	7.749667	-4.371759	8.021654	2.332926	-6.119281	0.218630	-51.397033	-71.699349	143.193151			
45308	6.007586	-3.285046	5.429597	1.728867	-4.041261	-2.260090	-52.046203	-72.216104	144.021435			
45309	4.891185	-1.850172	1.256659	0.621800	-0.280653	-4.477883	-52.967967	-73.021452	145.551223			
45310	5.061484	-0.065285	-2.857976	-1.223476	3.598817	-5.414858	-54.983123	-74.268179	148.410162			
45311	7.195877	1.695699	-6.039266	-3.577372	6.716273	-4.049986	-59.502858	-76.245955	154.060101			
45312	12.376899	4.510646	-9.176025	-7.633888	9.541235	0.594178	-70.527978	-79.361991	166.912920			
45313	31.264075	5.110686	-13.773531	-11.829933	13.471672	19.707554	-83.345727	-82.014371	-177.275211			
45314	37.610563	6.089011	-2.096393	-11.101466	1.050452	26.678456	-71.917213	-83.316762	173.736035			
45315	27.227043	3.108508	4.508638	-5.141538	-4.189092	17.154347	-51.501524	-82.927803	154.729320			
45316	21.969358	2.150739	7.704904	-2.713622	-6.426521	12.501399	-37.136582	-81.727357	142.010697			
45317	11.373834	5.261705	12.833205	-2.771778	-12.477392	2.768205	-23.207333	-80.007332	131.337684			
45318	-2.182366	9.241034	4.481025	-6.892944	-7.654321	-11.836778	-19.686702	-81.035515	131.942749			
45319	-1.245845	12.067803	-5.928811	-13.241286	0.613203	-12.384918	-26.625534	-83.708568	139.942594			
45320	5.128507	8.681395	-9.275459	-11.896855	5.520439	-5.854264	-45.087877	-85.671054	156.333550			
45321	5.672169	2.734728	-12.106171	-7.028083	10.533229	-4.730730	-82.306070	-85.324611	-169.838092			
45322	1.799336	-2.101411	-20.760651	-3.897521	20.466188	-7.707738	-100.122066	-83.033468	-155.684754			
45323	-1.113124	-6.123196	-13.269437	3.093289	14.324726	-9.805340	-97.463402	-81.087932	-161.057438			
45324	5.825490	-4.287945	1.121345	3.426545	-0.691082	-3.382177	-98.362069	-79.556350	-163.553698			
45325	13.327209	-9.920995	2.878988	7.732100	-2.472253	4.965798	-102.735135	-79.544396	-162.059161			
45326	7.505900	-9.196618	-6.194615	7.219539	6.426063	-0.546211	-111.101289	-79.967162	-153.921042			
45327	11.211371	-5.438437	-4.663082	3.246552	4.058787	2.434421	-123.371167	-79.997086	-140.556164			
45328	14.012764	-2.899050	-4.371920	0.565432	2.897791	4.855217	-132.662275	-79.743605	-129.746588			
45329	11.745008	-0.052532	-0.893778	-1.342691	-0.798169	1.862227	-137.429185	-79.600912	-124.178327			
45330	11.437695	-0.038327	-1.029446	-1.268043	-0.772330	1.574833	-140.155584	-79.013891	-121.383201			
45331	11.904975	-1.996702	-2.466524	0.361695	0.678186	2.483905	-140.220488	-78.283987	-121.430187			
45332	10.996642	-3.597757	-1.812249	2.060971	0.334125	1.710968	-139.014820	-78.081509	-122.944089			
45333	9.415511	-3.453033	0.043076	2.317348	-1.221908	-0.132103	-137.475778	-78.097643	-124.714786			
45334	7.836892	-2.914733	1.219807	2.106507	-2.164047	-1.920924	-136.968334	-78.047965	-125.494656			
45335	7.537264	-2.554764	1.108232	1.764090	-2.084918	-2.255833	-138.705868	-77.760891	-124.069056			
45336	8.372402	-2.411096	-1.104818	1.254238	-0.191590	-1.122510	-142.479376	-77.111731	-120.387573			
45337	10.006790	-2.436464	-5.044680	0.614040	3.168187	1.192002	-146.318277	-76.415010	-115.885314			
45338	10.539663	0.412170	-4.814373	-2.165893	2.332181	1.336347	-148.871532	-76.285110	-112.142770			
45339	9.219328	3.169731	-3.748611	-4.505476	1.107822	-0.454953	-151.756637	-76.616748	-108.339445			
45340	8.549889	5.031691	-3.200292	-6.076079	0.389446	-1.351703	-154.822916	-77.091696	-104.848738			
45341	8.523544	6.143413	-2.001775	-6.851482	-0.933249	-1.652734	-156.938866	-77.291277	-103.025909			
45342	8.279248	5.042768	-0.977971	-5.553269	-1.647361	-1.978204	-157.627034	-76.812437	-103.417882			
45343	8.402225	2.568763	-2.308505	-3.376355	-0.048615	-1.379285	-157.280866	-75.633914	-105.391737			
45344	9.301699	0.261883	-4.846301	-1.541083	2.332249	0.299679	-156.260971	-74.212604	-108.538105			
45345	9.734718	-3.059187	-7.087931	1.495512	4.440067	1.694128	-154.817090	-73.255585	-112.408181			
45346	8.676969	-5.989197	-7.821551	4.560843	5.312881	1.291543	-153.750140	-72.978502	-115.660220			
45347	7.405648	-7.256157	-7.329753	6.097279	5.009494	0.134543	-153.230713	-73.014230	-117.323258			
45348	7.120258	-5.637541	-4.663727	4.601297	2.475078	-1.041593	-153.862895	-72.801722	-116.841314			
45349	8.537855	-4.459847	-4.034373	3.268636	1.450344	-0.000811	-155.602212	-72.198138	-114.714275			
45350	10.402942	-3.253921	-4.900524	1.852068	1.692567	1.871855	-157.186405	-71.769612	-112.458315			
45351	9.804115	-1.167433	-3.929778	-0.079645	0.893339	0.776079	-158.424112	-71.704414	-110.737177			
45352	8.767509	-0.189464	-3.865994	-0.882629	1.108340	-0.334116	-159.519585	-71.682363	-109.550881			
45353	8.681290	0.185204	-3.662071	-1.199983	0.911575	-0.510064	-160.214910	-71.549621	-109.041483			
45354	9.064885	0.082820	-3.251076	-1.101667	0.377635	-0.252765	-160.735281	-71.394484	-108.956925			
45355	9.129807	-0.233935	-2.574558	-0.760695	-0.314174	-0.359697	-161.234642	-71.272375	-109.002105			
45356	9.012393	-0.354615	-1.961220	-0.607836	-0.886450	-0.645352	-161.762420	-71.144156	-109.002283			
45357	9.306619	-0.399251	-1.752553	-0.582231	-1.207258	-0.429330	-162.366258	-70.940792	-108.836099			
45358	9.637289	-0.253010	-1.729713	-0.751425	-1.365924	-0.143008	-162.988510	-70.708659	-108.589975			
45359	10.048909	0.027598	-1.482576	-1.066064	-1.761326	0.134194	-163.589825	-70.469260	-108.403508			
45360	10.220261	0.198986	-0.906452	-1.265383	-2.392245	0.086344	-164.060643	-70.226222	-108.478109			
45361	10.264822	0.007841	-0.426689	-1.111302	-2.909298	-0.022412	-164.456134	-69.956028	-108.810679			
45362	10.196558	-0.230120	-0.290195	-0.906326	-3.072633	-0.125368	-164.870693	-69.656086	-109.247864			
45363	9.838988	-0.358177	-0.556847	-0.756186	-2.761574	-0.376286	-165.405398	-69.344832	-109.541893			
45364	9.254592	-0.273705	-1.428626	-0.727903	-1.794003	-0.646730	-166.091816	-68.992567	-109.510792			
45365	8.867916	-0.040479	-2.645967	-0.810658	-0.562328	-0.611114	-166.875199	-68.616173	-109.197837			
45366	8.635990	0.180345	-3.531200	-0.901861	0.303773	-0.529576	-167.741588	-68.264223	-108.819294			
45367	8.495048	-0.041543	-4.148216	-0.569407	0.834405	-0.412989	-168.644842	-67.943882	-108.700633			
45368	8.902056	-0.818754	-4.173057	0.194970	0.538479	0.036314	-169.421800	-67.645061	-109.120056			
45369	9.329288	-2.091864	-4.309013	1.452297	0.224280	0.570898	-170.122318	-67.426050	-109.903852			
45370	9.254936	-3.007810	-4.056979	2.357576	-0.238571	0.460774	-170.793540	-67.356959	-110.758208			
45371	8.474197	-3.464665	-4.042026	2.945920	-0.156178	-0.249725	-171.608953	-67.331452	-111.261475			
45372	8.355158	-3.186746	-4.040506	2.737400	-0.134937	-0.390514	-172.585035	-67.174199	-111.135731			
45373	9.211786	-2.062483	-4.482111	1.672873	0.143902	0.501384	-173.702201	-66.871694	-110.367811			
45374	9.783491	-0.653268	-4.534404	0.302377	0.256520	0.982973	-174.833659	-66.634689	-109.327578			
45375	9.630061	0.687507	-4.011741	-1.016694	0.129354	0.591821	-176.038921	-66.556277	-108.341423			
45376	8.978461	1.572826	-3.436286	-1.844747	0.067309	-0.247827	-177.131154	-66.594859	-107.770446			
45377	8.166014	1.783501	-3.214883	-1.936382	0.238568	-1.072359	-178.036711	-66.634143	-107.690074			
45378	7.877126	1.628456	-3.292194	-1.683191	0.386368	-1.294651	-178.734978	-66.586949	-108.052185			
45379	8.702794	1.052087	-4.069174	-0.981622	0.585945	-0.215993	-179.447216	-66.444059	-108.586141			
45380	9.768723	0.262845	-4.425351	-0.217580	0.222092	0.910363	179.833076	-66.317786	-109.202404			
45381	10.570939	-0.612475	-4.468347	0.560736	-0.377033	1.660285	179.099006	-66.242627	-109.913542			
45382	10.955653	-1.511771	-4.615254	1.435200	-0.763548	2.060359	178.423544	-66.278999	-110.773302			
45383	10.797802	-2.226799	-4.442311	2.094426	-1.165389	1.829491	177.756477	-66.464512	-111.636881			
45384	10.427898	-2.453264	-3.996055	2.222480	-1.519791	1.299410	177.108854	-66.749298	-112.320359			
45385	10.145964	-2.147091	-3.501892	1.829445	-1.704525	0.843832	176.415334	-67.055691	-112.597097			
45386	10.202831	-1.121252	-3.254519	0.846272	-1.466829	0.821163	175.655125	-67.359005	-112.430789			
45387	10.286682	0.158906	-3.197991	-0.264323	-0.943151	0.916158	174.698504	-67.718786	-111.863484			
45388	10.038577	1.350978	-2.927553	-1.313486	-0.490854	0.637253	173.479595	-68.215760	-111.069704			
45389	9.606385	2.244733	-2.314411	-2.208291	-0.361389	0.070076	172.157248	-68.836838	-110.342986			
45390	9.391576	2.572364	-1.748265	-2.621148	-0.497032	-0.286106	171.001972	-69.512084	-109.999197			
45391	9.446178	2.676138	-1.633653	-2.683354	-0.435445	-0.238308	170.091704	-70.181432	-110.118756			
45392	9.608648	2.583874	-2.063864	-2.332042	-0.045063	0.077673	169.230835	-70.879183	-110.476829			
45393	9.633380	2.601581	-2.409259	-2.079529	0.376727	0.232496	168.188281	-71.607495	-110.694123			
45394	9.694934	3.214918	-2.544335	-2.413615	0.931134	0.390515	166.758418	-72.320745	-110.475036			
45395	10.068771	4.223664	-2.838412	-2.970434	1.752286	0.928674	164.600207	-73.096284	-109.527231			
45396	10.309838	4.990978	-2.388000	-3.665067	1.928442	1.130190	161.816287	-73.961842	-107.845850			
45397	10.248400	6.274361	-2.852453	-4.168020	3.223345	1.356940	157.885399	-74.906497	-105.018370			
45398	9.551060	7.410960	-3.638819	-4.228383	4.864812	1.042075	152.610904	-75.889210	-100.847400			
45399	8.839544	8.964091	-3.302157	-5.266559	5.904027	0.521194	146.887033	-76.629062	-96.161654			
45400	9.091015	10.722970	-3.296011	-6.252727	7.133387	1.072634	140.408572	-77.288114	-90.981427			
45401	8.170226	11.588127	-4.145832	-5.867873	8.776064	0.518900	133.199225	-77.861677	-85.701935			
45402	7.359176	11.881727	-3.945641	-5.669383	9.315596	-0.224125	127.366407	-78.390647	-82.397000			
45403	7.306225	10.460428	-4.920285	-3.365464	9.332581	-0.402787	123.853612	-78.805357	-82.264136			
45404	8.362665	7.964809	-7.510287	0.908562	9.157506	0.436872	121.576307	-79.356456	-83.781650			
45405	9.050583	5.596540	-8.174379	3.531624	7.571853	0.685732	117.693304	-80.034633	-83.684862			
45406	8.626087	5.333589	-6.992563	3.266116	6.690357	0.000417	113.247729	-80.708627	-83.037373			
45407	8.844199	4.735254	-6.566885	3.725766	5.830537	-0.021504	108.830341	-81.399185	-82.546060			
45408	8.513881	3.512916	-6.441971	4.601382	4.591831	-0.644810	103.692649	-82.141665	-81.376809			
45409	7.922394	2.495207	-6.349398	5.253449	3.495483	-1.477548	98.461188	-82.829684	-80.001354			
45410	7.578176	2.312525	-5.300109	4.582268	2.820712	-1.944655	94.066927	-83.460795	-79.295388			
