// General information: 
//  MT Manager version: 2022.0.0 
//  XDA version: 2022.0.0 build 7085 rev 119802 built on 2022-11-08
// Device information: 
//  DeviceId: 00B492A5
//  ProductCode: MTW2-3A7G6
//  Firmware Version: 4.6.0
//  Hardware Version: 2.0.0
// Device settings: 
//  Filter Profile: human(46.1)
//  Option Flags: Orientation Smoother Disabled, Position/Velocity Smoother Disabled, Continuous Zero Rotation Update Disabled, AHS Disabled, ICC Disabled
// Coordinate system: ENU
PacketCounter	Acc_X	Acc_Y	Acc_Z	FreeAcc_E	FreeAcc_N	FreeAcc_U	Roll	Pitch	Yaw	Vel_E	Vel_N	Vel_U
44365	9.690257	-1.574123	-1.625516	-0.052011	0.143827	0.137077	-135.056288	-77.771263	-79.832035			
44366	9.203973	-1.783699	-2.110821	-0.364429	0.693905	-0.234800	-134.599255	-77.830854	-80.360919			
44367	9.063692	-1.902395	-2.052455	-0.272032	0.793634	-0.363968	-134.033640	-77.900391	-80.924185			
44368	9.275445	-1.437053	-1.920571	-0.444411	0.309063	-0.247409	-133.582472	-77.950548	-81.288287			
44369	9.594022	-0.923644	-1.849750	-0.688590	-0.204611	-0.024741	-133.097801	-77.997872	-81.666315			
44370	9.570089	-0.802185	-1.824305	-0.757237	-0.309273	-0.071583	-132.523902	-78.022514	-82.147502			
44371	9.436802	-0.876329	-1.781911	-0.703389	-0.248101	-0.198113	-131.953893	-78.015680	-82.604651			
44372	9.359890	-0.773405	-1.591498	-0.625485	-0.426980	-0.317163	-131.431279	-77.988821	-82.995693			
44373	9.269649	-0.740259	-1.423808	-0.523809	-0.536785	-0.435105	-130.952560	-77.943591	-83.361635			
44374	9.133728	-0.817621	-1.391297	-0.470210	-0.475327	-0.561626	-130.518217	-77.876559	-83.705869			
44375	9.106958	-0.838103	-1.367175	-0.450483	-0.481497	-0.589160	-130.154654	-77.784426	-83.956822			
44376	9.087845	-0.551552	-1.064310	-0.371069	-0.893015	-0.697278	-129.793908	-77.677749	-84.183620			
44377	8.981222	-0.339952	-0.610937	-0.124477	-1.308273	-0.900670	-129.448508	-77.559996	-84.419243			
44378	8.999771	-0.260147	-0.237961	0.133533	-1.600651	-0.950395	-129.145205	-77.414302	-84.654942			
44379	9.187107	-0.340395	-0.077517	0.310537	-1.688858	-0.780740	-128.962857	-77.237437	-84.818512			
44380	9.536129	-0.485145	-0.006072	0.455585	-1.717179	-0.430961	-128.887889	-77.037246	-84.909895			
44381	9.919683	-0.578557	-0.075688	0.458546	-1.724194	-0.037343	-128.889960	-76.827422	-84.949368			
44382	10.482301	-0.649583	-0.082724	0.505010	-1.825341	0.517871	-128.874261	-76.640187	-85.007742			
44383	11.001560	-0.452266	0.005593	0.476386	-2.183386	0.968997	-128.743520	-76.497200	-85.177023			
44384	11.691174	-0.054371	0.393047	0.575192	-2.894647	1.506814	-128.360192	-76.445929	-85.622524			
44385	12.027733	0.323259	0.987511	0.830556	-3.602168	1.679938	-127.723543	-76.514293	-86.420591			
44386	12.232822	0.465639	1.447548	1.078558	-3.996400	1.798480	-126.793139	-76.692164	-87.647029			
44387	12.259724	0.518105	1.935866	1.370607	-4.275035	1.770116	-125.510012	-76.996454	-89.346269			
44388	12.194988	0.678952	2.509265	1.641709	-4.647344	1.640711	-123.794930	-77.431823	-91.568777			
44389	12.173544	0.923291	3.322303	2.032879	-5.216032	1.533809	-121.591630	-77.975353	-94.329290			
44390	12.316530	1.168650	4.292479	2.516282	-5.894995	1.606643	-118.677268	-78.636269	-97.848114			
44391	12.440438	1.421282	5.340102	3.018301	-6.607260	1.699425	-114.813090	-79.391303	-102.388449			
44392	12.484637	1.719440	6.215134	3.315163	-7.222921	1.775267	-109.729816	-80.205307	-108.208714			
44393	12.256388	2.002465	6.230507	2.928890	-7.245297	1.674926	-103.321001	-80.988552	-115.355599			
44394	11.842429	2.167436	5.626513	2.150357	-6.744941	1.433228	-95.549692	-81.680044	-123.795986			
44395	11.671012	1.947895	4.958414	1.569134	-5.930029	1.454810	-86.748559	-82.173359	-133.289359			
44396	11.997977	0.817288	4.381085	1.603723	-4.531146	2.049111	-77.368543	-82.362093	-143.482470			
44397	12.585966	-0.755631	4.606217	2.516663	-3.357777	2.937982	-68.448559	-82.220577	-153.059762			
44398	11.581932	-1.805421	2.915703	1.882622	-1.221279	2.055846	-60.772521	-81.923314	-161.210589			
44399	12.208728	-3.146316	0.905066	1.070331	1.260349	2.718625	-54.105795	-81.649397	-168.097578			
44400	12.533930	-1.993175	1.670903	0.711831	0.091253	2.967904	-46.463829	-81.294936	-176.012174			
44401	12.598534	-3.022033	0.966987	0.793419	1.531540	3.064141	-41.063164	-81.051729	178.375667			
44402	13.454438	-2.274602	0.785647	-0.010969	1.305329	3.792653	-35.494362	-80.885075	172.968669			
44403	13.988795	-0.838699	1.454684	-0.605269	0.030618	4.263302	-29.744749	-80.521958	166.919293			
44404	13.844798	-1.469912	1.166304	-0.422460	0.952310	4.119532	-23.558200	-79.910573	160.489247			
44405	12.153756	-1.302071	1.539528	-0.052003	0.747147	2.484172	-18.231788	-79.171443	154.770655			
44406	10.566011	-2.282484	-0.495969	-0.603411	2.946143	0.581968	-13.924211	-78.448467	150.168054			
44407	10.012402	-2.418319	-1.269864	-0.977717	3.701670	-0.166554	-10.437189	-77.749512	146.350307			
44408	9.964376	-2.034677	-0.741740	-0.879048	3.231658	-0.181499	-7.277398	-76.999054	142.929175			
44409	9.478814	-1.766572	-0.236388	-0.644224	2.797433	-0.605009	-4.471231	-76.188587	139.811984			
44410	9.011489	-1.433253	0.049788	-0.614598	2.459505	-1.047173	-1.870412	-75.308606	136.932755			
44411	8.526926	-1.457555	-0.606015	-0.973409	3.002548	-1.735869	0.357336	-74.381632	134.375644			
44412	7.711126	-1.256395	-0.861034	-1.150566	3.024047	-2.649521	2.501838	-73.502192	132.190140			
44413	7.029548	-0.083165	0.375528	-1.035879	1.340440	-2.979574	4.370782	-72.673639	130.398302			
44414	6.694505	0.770641	0.874053	-1.259674	0.439703	-3.149864	5.895899	-71.888303	128.965289			
44415	6.575387	1.330233	1.121936	-1.480497	-0.052262	-3.174259	7.211252	-71.234607	127.785092			
44416	6.666334	1.209195	0.896301	-1.573632	0.289064	-3.168507	8.290862	-70.651412	126.787696			
44417	6.694389	1.191647	0.757060	-1.670449	0.476832	-3.195304	9.159928	-70.081676	125.912782			
44418	6.534680	0.768208	0.196023	-1.725487	1.171042	-3.569167	9.920499	-69.526062	125.081699			
44419	6.541253	0.908980	0.221167	-1.817774	1.124856	-3.560233	10.653876	-69.024170	124.284845			
44420	6.700929	1.072529	0.522402	-1.770734	0.925890	-3.306340	11.253603	-68.562806	123.503958			
44421	6.710306	0.796894	0.548275	-1.562391	1.165024	-3.319215	11.744369	-68.118448	122.768943			
44422	6.764280	0.769296	0.838878	-1.365882	1.071682	-3.176681	12.165640	-67.685528	122.057385			
44423	6.586381	0.741175	1.038254	-1.184220	0.960203	-3.279457	12.476198	-67.275029	121.385690			
44424	6.495795	0.647047	1.180979	-1.011340	0.954580	-3.326204	12.719832	-66.865684	120.744428			
44425	6.799535	0.521374	1.518207	-0.768287	0.970722	-2.936811	12.958616	-66.490694	120.108131			
44426	6.910866	0.570196	1.830364	-0.631978	0.819463	-2.715905	13.195504	-66.144674	119.496307			
44427	7.039773	0.641557	2.106212	-0.541343	0.683016	-2.488319	13.421900	-65.786068	118.895120			
44428	6.863979	0.565912	2.470582	-0.225784	0.474396	-2.514602	13.675201	-65.462988	118.284039			
44429	7.285899	0.115036	2.384382	-0.025142	1.021486	-2.214093	13.929607	-65.167600	117.696772			
44430	6.906488	-0.423666	2.361411	0.444181	1.281183	-2.628224	14.178492	-64.891808	117.174486			
44431	6.494769	-0.947159	2.482476	1.003164	1.406595	-3.011442	14.454898	-64.731495	116.714887			
44432	6.357063	-1.262370	2.931209	1.558107	1.271117	-2.989612	14.796556	-64.649871	116.303339			
44433	6.314101	-1.167360	3.655643	1.956994	0.721033	-2.724347	15.234280	-64.646276	115.928026			
44434	6.404628	-0.675567	4.498391	2.109935	-0.108929	-2.246487	15.769604	-64.693074	115.553066			
44435	6.634429	0.213287	5.351305	1.958175	-1.147817	-1.594082	16.421108	-64.828666	115.122562			
44436	7.042206	1.266062	6.123583	1.622073	-2.177247	-0.794818	17.136474	-65.034349	114.640054			
44437	7.295177	2.105507	6.795335	1.431507	-3.073360	-0.203621	17.858935	-65.272074	114.129610			
44438	7.648949	2.359082	7.327118	1.585404	-3.466092	0.347560	18.529694	-65.492686	113.630324			
44439	7.977555	2.564042	7.814869	1.749297	-3.810699	0.850619	19.068659	-65.683492	113.197597			
44440	7.538868	2.165012	8.020790	2.291322	-3.884836	0.459241	19.270525	-65.958026	112.868867			
44441	7.958523	1.292690	7.900263	2.828764	-3.140647	0.654272	19.411693	-66.317985	112.559565			
44442	8.368160	1.158137	8.433972	3.228849	-3.332360	1.185882	19.436542	-66.707027	112.318715			
44443	8.955903	1.251033	8.668997	3.234794	-3.418642	1.796495	19.382917	-67.081811	112.144255			
44444	9.616065	1.690151	9.382936	3.260583	-4.029241	2.697228	19.229200	-67.391125	112.015816			
44445	10.042589	2.037514	9.718776	3.133073	-4.404525	3.235041	19.040360	-67.601747	111.858600			
44446	9.819499	2.001299	9.495144	3.024198	-4.362716	2.931181	18.898089	-67.703989	111.610286			
44447	8.972080	2.230839	8.943790	2.593534	-4.463743	1.969275	18.889345	-67.787702	111.203097			
44448	8.506731	2.241164	7.801270	1.919458	-3.864439	1.124808	18.979029	-67.861880	110.685373			
44449	8.020035	2.152342	6.336906	1.142787	-2.972547	0.135573	19.114074	-67.950043	110.171084			
44450	7.841490	1.867986	4.825438	0.466039	-1.806963	-0.605036	19.278536	-68.062203	109.680878			
44451	7.650736	1.631876	4.218751	0.312248	-1.312133	-1.027732	19.380577	-68.135562	109.305894			
44452	8.138997	0.725586	3.975146	0.824907	-0.430217	-0.773553	19.497422	-68.203377	108.924920			
44453	9.024907	-0.489356	3.902783	1.643488	0.652334	-0.127981	19.568925	-68.214119	108.748037			
44454	12.427824	-1.322926	8.655045	4.725711	-1.056027	4.597827	19.361199	-67.987440	108.950293			
44455	8.581569	-1.295289	5.010735	2.959049	0.211406	-0.240446	18.885135	-67.859331	109.256894			
44456	6.995670	-3.376019	-3.537714	-0.283243	7.025813	-4.974350	18.516059	-68.367849	109.491318			
44457	9.177470	-5.932406	-4.987933	0.635489	10.283092	-3.636130	18.548853	-69.380410	109.603805			
44458	11.046590	-4.229153	0.618158	2.428449	5.694944	0.285040	18.973474	-70.177659	109.717867			
44459	10.906004	1.826941	8.294158	2.384565	-3.675288	3.297505	19.418644	-70.433042	109.799318			
44460	11.024469	8.014463	11.290913	-0.544144	-9.635825	5.023396	19.649584	-70.606106	109.831838			
44461	12.495389	7.108570	6.409914	-2.927421	-5.170516	4.762890	20.042130	-71.027318	109.902218			
44462	12.397492	1.334422	2.404519	-0.886939	1.197783	2.798356	20.275197	-71.330192	110.054431			
44463	11.340990	-3.811044	1.952985	2.948395	4.354223	1.109875	20.244503	-71.854782	109.634121			
44464	11.311101	-8.304106	-1.723400	4.234090	9.683464	-0.422899	20.215365	-72.435272	108.948389			
44465	9.322147	-6.033771	-1.774692	2.728328	7.657185	-2.042130	21.261486	-72.942597	107.999941			
44466	7.936384	-1.619886	-1.142653	-0.143454	4.020529	-2.690193	23.826635	-73.731704	106.549614			
44467	8.720576	1.465035	-1.325766	-2.594788	2.284721	-1.566825	28.219065	-74.849549	104.036442			
44468	8.848400	3.211013	-2.702468	-4.645085	1.918390	-1.408016	34.797692	-76.019594	99.592795			
44469	9.751167	7.380588	-5.534795	-9.398769	0.984387	-0.280235	41.980563	-76.793182	93.498693			
44470	9.090957	7.131251	-4.105654	-8.014483	-0.123240	-0.533249	44.260538	-77.196200	91.355191			
44471	8.723801	3.041034	-0.251477	-2.306852	-0.085547	-0.863689	47.081476	-78.127992	88.417502			
44472	11.338138	2.116848	-1.782918	-2.647437	1.991290	1.378183	49.237324	-79.100796	85.914565			
44473	10.481416	0.381091	-2.023179	-1.534632	3.044060	0.310307	50.790067	-79.939104	84.004548			
44474	9.779599	1.106084	-2.112665	-2.078249	2.357443	-0.249767	52.308970	-80.598771	82.362615			
44475	9.362875	2.140412	-0.666571	-1.772190	0.451987	-0.360531	53.828928	-81.230412	80.583681			
44476	9.590526	1.428000	-0.660804	-1.225531	0.859410	-0.209980	55.884682	-82.036087	77.975201			
44477	10.120335	0.111348	-0.705602	-0.259917	1.715405	0.183247	58.258122	-82.979979	74.913991			
44478	10.056708	-0.790112	-0.774266	0.377008	2.198217	0.055654	60.572255	-83.917602	71.884117			
44479	9.348784	-1.652014	-0.950329	0.898700	2.674021	-0.698306	63.473734	-84.722164	68.277073			
44480	8.967170	-2.006635	-1.131285	1.069248	2.878327	-1.078444	68.873092	-85.309640	62.497012			
44481	8.894627	-1.153319	-0.843445	0.668542	1.982631	-1.050443	77.973583	-85.709654	53.616167			
44482	8.907731	0.397821	-0.421769	-0.137702	0.527020	-0.902852	91.326200	-85.871980	40.960416			
44483	9.019533	2.154949	-0.588537	-1.437067	-0.660600	-0.656402	106.081824	-85.767992	26.937718			
44484	9.609048	3.372420	-0.260510	-1.954222	-1.857904	0.010830	118.552704	-85.557747	14.733797			
44485	9.380437	1.731132	0.357270	-0.273902	-1.338177	-0.365524	130.966651	-85.257127	2.205432			
44486	9.850709	-0.041720	-0.352086	0.643160	0.230341	0.020544	142.036334	-84.745670	-9.077105			
44487	9.848728	-0.942671	-0.729205	1.114545	0.947825	-0.000734	151.163024	-84.167936	-18.261728			
44488	9.506049	-1.460314	-0.831656	1.444783	1.226741	-0.347234	157.902179	-83.579725	-25.035089			
44489	9.288951	-1.714700	-1.376379	1.285462	1.668437	-0.502396	163.048837	-82.969225	-30.080656			
44490	8.993598	-1.571976	-1.714990	0.953579	1.705421	-0.730957	167.765554	-82.293913	-34.254200			
44491	9.455806	0.153556	-1.443486	-0.021042	0.148533	-0.247382	171.390564	-81.538054	-37.127694			
44492	9.460206	1.233430	-1.959831	-1.097529	-0.391300	-0.143264	174.662440	-80.792148	-39.575494			
44493	9.085428	2.119937	-2.045756	-1.769653	-1.089038	-0.490474	177.606556	-79.962025	-41.631596			
44494	9.148825	3.628290	-1.987954	-2.697064	-2.399887	-0.443563	-179.698799	-79.034791	-43.830921			
44495	8.872763	2.985065	-1.489317	-1.874465	-2.415485	-0.840317	-176.765080	-78.004087	-46.707920			
44496	8.885422	1.521637	-1.908897	-1.110370	-1.256321	-0.752028	-174.425264	-76.835434	-49.320596			
44497	9.298929	0.208180	-2.626672	-0.588573	-0.097778	-0.166297	-172.110772	-75.639124	-51.843546			
44498	9.216829	-0.909664	-2.209918	0.521120	0.251660	-0.308806	-170.640902	-74.682759	-53.448123			
44499	9.053303	-0.477649	-1.336420	0.852532	-0.757682	-0.720179	-169.747975	-73.781927	-54.361861			
44500	9.283507	-0.273570	-1.754825	0.508714	-0.824694	-0.410744	-168.721850	-72.819281	-55.240861			
44501	9.588889	-0.181444	-1.800523	0.512011	-1.085922	-0.128771	-167.760902	-71.962209	-56.076082			
44502	9.265029	-0.232632	-1.411152	0.799929	-1.358671	-0.571541	-166.893869	-71.174596	-56.905873			
44503	8.976938	-0.398354	-1.666999	0.720843	-1.124028	-0.771750	-166.144106	-70.404119	-57.611731			
44504	8.757474	-0.176050	-1.581857	0.617411	-1.395421	-1.043599	-165.381139	-69.639258	-58.170358			
44505	9.242577	0.369513	-1.305438	0.559248	-2.228469	-0.758111	-164.684052	-68.789410	-58.471891			
44506	10.306527	1.082856	-0.623124	0.800730	-3.628864	-0.118707	-164.082744	-67.933311	-58.609671			
44507	10.749856	1.543407	-0.050096	1.038410	-4.585502	-0.023052	-163.584585	-67.175462	-58.751867			
44508	10.158878	1.177177	-0.205239	1.116222	-4.142830	-0.527193	-163.188296	-66.512170	-58.972162			
44509	9.789605	0.252316	-1.008501	1.150107	-2.969408	-0.497333	-162.668218	-65.858397	-59.250753			
44510	9.749404	0.071092	-1.401089	1.021907	-2.694645	-0.393957	-161.981331	-65.240596	-59.500290			
44511	9.765757	0.664952	-0.945724	0.972694	-3.499839	-0.674276	-161.204062	-64.668621	-59.776308			
44512	10.242793	0.920144	-0.519244	1.227775	-4.204781	-0.493756	-160.396626	-64.141662	-60.201732			
44513	10.350280	0.467656	-0.755285	1.393885	-3.876101	-0.275941	-159.567773	-63.663792	-60.723586			
44514	9.974299	-0.058210	-1.596026	1.057912	-2.964138	-0.214182	-158.704308	-63.238036	-61.187136			
44515	9.880633	-0.032965	-2.778784	0.162935	-2.382865	0.169508	-157.766954	-62.835086	-61.494057			
44516	10.388113	0.721845	-3.029707	-0.410488	-3.094040	0.573404	-156.960253	-62.557214	-61.720836			
44517	10.749458	0.491000	-2.469057	0.216598	-3.434663	0.677503	-156.393583	-62.375929	-62.015483			
44518	11.401861	-0.507436	-2.833447	0.706472	-2.807555	1.584973	-155.776730	-62.334610	-62.375795			
44519	11.626215	-0.208103	-1.607769	1.438170	-3.797425	1.201314	-155.134715	-62.272393	-62.602434			
44520	13.240714	0.282910	-2.181326	1.028331	-4.572982	2.764467	-154.461543	-62.129776	-62.768114			
44521	14.270479	1.274928	-1.251551	1.306904	-6.266219	3.066161	-153.815636	-62.077076	-62.994261			
44522	14.257330	1.269410	-0.836086	1.593816	-6.488306	2.873660	-153.236973	-62.128980	-63.298889			
44523	14.544828	1.534735	-0.250224	1.899979	-7.106026	2.831063	-152.672799	-62.258828	-63.537864			
44524	15.728769	2.239102	0.918522	2.566775	-8.697235	3.264811	-152.212489	-62.478298	-63.765903			
44525	17.094723	2.698056	2.056347	3.374711	-10.133666	3.958895	-151.920864	-62.856133	-64.113634			
44526	16.557040	2.491994	2.534587	3.658140	-9.913239	3.420324	-151.626299	-63.454736	-64.553982			
44527	15.619425	2.871249	3.323365	3.727330	-10.107947	2.319373	-151.205775	-64.278665	-65.049543			
44528	14.489760	2.364625	4.588025	4.661683	-9.766497	1.117545	-150.434829	-65.479771	-65.753970			
44529	13.723966	1.152331	5.721667	5.963771	-8.963140	0.507002	-149.623034	-66.874011	-66.880874			
44530	10.972706	-1.196639	0.884854	3.029317	-3.438700	0.267437	-149.035446	-68.128588	-68.088857			
44531	11.045923	-2.152739	-1.898044	1.322313	-1.044806	1.474667	-148.284327	-69.322894	-69.320470			
44532	11.816654	-2.358058	-2.715186	0.745074	-0.469486	2.507318	-146.962769	-70.696664	-70.619363			
44533	13.057183	-2.077916	-3.915330	-0.424654	-0.138258	3.968773	-145.518840	-72.033415	-71.651228			
44534	14.471976	-2.733453	-4.326416	-0.426218	0.472278	5.523911	-144.021944	-73.381831	-72.694613			
44535	14.306852	-2.970965	-3.633138	0.028055	0.630833	5.230576	-142.444546	-74.866152	-73.986409			
44536	13.235889	-2.684215	-3.517440	-0.334382	0.943809	4.106796	-140.924030	-76.362010	-75.326363			
44537	12.560571	-2.155413	-3.368503	-0.740515	0.905587	3.316771	-139.386974	-77.785002	-76.853817			
44538	11.816067	-1.761493	-3.669747	-1.394352	1.210411	2.547416	-137.683057	-79.155076	-78.803694			
44539	11.342028	-1.751319	-4.126157	-1.900204	1.821428	2.095248	-135.764902	-80.413919	-80.980091			
44540	11.249811	-1.024494	-3.415333	-1.875722	1.096295	1.786712	-133.410221	-81.673998	-83.513960			
44541	11.060040	-0.329496	-2.514010	-1.680029	0.286124	1.405283	-130.211643	-82.944722	-86.952490			
44542	10.705791	-0.200956	-2.503792	-1.852288	0.477391	1.015890	-125.549599	-84.254676	-92.011185			
44543	10.643116	-0.581449	-2.826451	-1.967707	1.237753	0.966578	-118.235519	-85.473797	-99.826684			
44544	11.061884	-1.293535	-2.568011	-1.415117	1.875816	1.372335	-105.344154	-86.628100	-113.368166			
44545	10.812257	-1.337486	-3.110816	-1.880126	2.549152	1.065259	-80.128361	-87.399247	-139.536435			
44546	10.281683	-2.844869	-4.033172	-1.663190	4.593568	0.492583	-47.487853	-87.447903	-172.934020			
44547	10.454098	-2.320665	-3.671500	-1.781979	4.221200	0.538759	-21.023279	-86.786943	160.244800			
44548	10.481224	-1.336367	-3.282560	-2.196590	3.487025	0.455015	-5.368952	-85.685228	144.304746			
44549	9.978264	-0.829490	-3.254855	-2.541204	3.323014	-0.151360	3.117670	-84.404914	135.399921			
44550	9.562786	-0.602457	-3.478121	-2.886558	3.520799	-0.692776	7.979335	-83.030618	130.060400			
44551	8.929220	-0.695727	-3.842545	-3.090257	4.005715	-1.483270	10.640556	-81.656128	126.770560			
44552	8.284759	-0.412393	-3.173612	-2.779447	3.493923	-2.135356	12.048165	-80.200656	124.634770			
44553	7.404153	-1.231757	-3.501952	-2.394032	4.374621	-3.199799	12.924842	-78.901740	123.016579			
44554	7.122620	-1.150353	-3.130252	-2.166611	4.171949	-3.507786	13.879545	-77.753109	121.496068			
44555	6.920300	-1.144187	-2.692267	-1.847733	3.962891	-3.703058	14.578395	-76.695151	120.257895			
44556	6.657781	-1.376185	-2.792640	-1.721495	4.257938	-4.074767	15.010992	-75.718982	119.233081			
44557	6.446403	-1.574263	-2.701184	-1.481625	4.384814	-4.343873	15.301680	-74.868208	118.354143			
44558	6.384697	-1.490579	-3.026937	-1.739741	4.627636	-4.549058	15.538991	-74.065673	117.549914			
44559	6.239699	-1.993033	-3.568224	-1.693558	5.386679	-4.938992	15.964070	-73.344971	116.722379			
44560	6.099191	-2.057809	-3.361190	-1.478628	5.315722	-5.091629	16.794436	-72.679419	115.815720			
44561	5.815456	-1.782376	-2.989715	-1.401376	4.852968	-5.293930	17.862473	-72.096826	114.881766			
44562	5.731404	-1.852786	-3.079256	-1.405917	4.984421	-5.460423	19.113885	-71.579247	113.967487			
44563	5.949218	-1.732332	-2.795786	-1.351988	4.810646	-5.203989	20.556992	-71.138725	113.095253			
44564	5.765894	-1.399833	-2.091228	-1.121522	4.089629	-5.165623	22.060091	-70.733326	112.327492			
44565	5.374755	-1.215924	-1.122199	-0.562873	3.232937	-5.245749	23.399766	-70.365416	111.630897			
44566	5.055183	-0.867141	-0.376397	-0.264673	2.438050	-5.292264	24.602019	-70.040150	110.976773			
44567	4.913939	-0.518354	0.068014	-0.181792	1.895058	-5.252454	25.715916	-69.768697	110.322370			
44568	5.058556	0.531861	1.333500	-0.037499	0.427590	-4.571909	26.620214	-69.585701	109.622482			
44569	5.454843	0.634554	1.388042	-0.098466	0.472131	-4.168931	27.242069	-69.490167	108.941662			
44570	5.700476	0.529487	1.408088	-0.018282	0.624938	-3.950302	27.860942	-69.500520	108.234462			
44571	6.665090	1.851314	2.420412	-0.321022	-0.618593	-2.517248	28.252508	-69.624865	107.507615			
44572	7.958807	1.282558	2.513944	0.032418	0.134076	-1.369442	28.671330	-69.730215	106.799714			
44573	9.803290	2.568426	5.104981	0.755543	-1.819435	1.362327	28.902292	-69.709902	106.222579			
44574	11.324412	2.205007	6.782100	2.036064	-2.152934	3.238004	29.247924	-69.628580	105.561692			
44575	12.309870	2.477053	8.269928	2.789382	-2.952042	4.663671	29.753249	-69.427638	104.877118			
44576	11.030625	2.846074	8.513854	2.828411	-3.732341	3.616004	30.391457	-69.128146	104.133204			
44577	9.393524	3.526625	8.716513	2.647840	-4.825008	2.285284	31.137149	-68.917524	103.297676			
44578	8.081280	4.284013	8.544996	2.117492	-5.645913	1.156208	31.782874	-68.874682	102.469155			
44579	7.530895	4.592300	8.182221	1.699714	-5.812345	0.583460	32.261379	-68.996339	101.704705			
44580	7.710680	4.120410	7.023197	1.228624	-4.699397	0.294914	32.425808	-69.181536	101.081920			
44581	8.228145	2.466017	5.538604	1.386296	-2.484922	0.003772	32.570744	-69.418284	100.530937			
44582	9.445117	2.841583	5.855685	1.244106	-2.569693	1.296883	32.668306	-69.632307	100.134334			
44583	10.492451	1.431956	3.563961	0.678692	0.220758	1.337844	32.319379	-69.773141	99.988121			
44584	10.167010	0.696377	0.965394	-0.484473	2.341514	0.140582	32.250255	-69.896940	99.884700			
44585	9.432611	0.280291	-0.893915	-1.346939	3.613942	-1.153773	32.395360	-70.170733	99.634418			
44586	10.557950	-2.268970	-3.734488	-1.356341	7.532481	-1.328229	32.590875	-70.690792	99.395619			
44587	11.843144	-4.788486	-3.924233	0.348277	9.584703	-0.506892	32.619921	-71.604150	99.530523			
44588	11.916891	-6.941970	-2.785318	2.701363	10.031815	-0.324796	32.518391	-72.818673	99.846191			
44589	16.868928	-6.324832	3.955537	6.483645	6.218324	6.296471	32.711165	-73.178530	100.030085			
44590	20.493031	5.094774	20.898610	9.390426	-11.807100	15.781183	33.290592	-72.302307	100.738197			
44591	14.648673	19.691053	16.950647	-3.294056	-20.287337	11.802368	35.711003	-72.161670	98.432080			
44592	18.070393	17.083412	7.527767	-8.224762	-10.935103	12.273372	34.304903	-72.242394	97.653979			
44593	15.424550	-1.163536	4.420463	2.990545	2.011788	5.864702	27.283508	-73.185943	100.176213			
44594	13.568172	-18.120104	-6.016684	10.623854	18.605666	-0.358500	19.045114	-74.106505	104.059301			
44595	1.706151	-23.504199	-14.020530	12.370074	24.113449	-13.986981	20.519269	-73.971848	101.356711			
44596	0.872477	-10.674080	-10.680257	3.213512	14.484219	-12.748691	26.242141	-74.776946	97.638781			
44597	1.461375	-5.534660	-9.804812	-1.140134	11.200989	-11.266409	33.184665	-75.678711	93.447800			
44598	2.422772	-0.449285	-5.437627	-3.012727	4.996976	-8.554050	42.179834	-76.650369	87.558176			
44599	8.255287	5.376914	-7.216312	-8.594421	3.603274	-1.924722	55.856310	-77.297049	78.173353			
44600	19.286011	24.688507	1.085598	-15.374016	-13.664073	13.838541	61.544100	-76.777660	75.747479			
44601	7.284220	15.243686	0.449433	-9.659987	-9.461533	0.325593	61.082901	-77.379269	74.657133			
44602	11.044582	2.001227	-4.577330	-3.991937	3.983640	0.917179	63.129907	-78.871687	71.204965			
44603	11.663725	-1.907283	-3.915180	-0.653684	6.083290	1.030226	63.095832	-80.283324	70.142939			
44604	8.811549	-4.400074	-2.901462	1.750810	6.393785	-1.972156	61.838789	-80.979368	69.905972			
44605	7.584629	-4.522055	-2.736369	1.980775	6.062713	-3.120769	63.456610	-81.479376	67.559124			
44606	8.168890	-2.620363	-0.960351	1.820629	3.487162	-2.128721	69.548893	-81.981136	62.032846			
44607	9.961964	0.240954	-0.699559	0.075490	1.516524	0.060468	78.933417	-82.195782	53.936199			
44608	11.452862	5.424826	-0.698744	-3.441008	-1.946422	2.247705	83.668213	-82.186419	50.000334			
44609	8.087451	4.937824	2.363452	-1.192550	-4.286154	-1.118972	88.056337	-82.508343	45.471258			
44610	8.155423	2.624522	0.300407	-0.917826	-1.339121	-1.395389	97.385173	-83.084426	35.608875			
44611	9.671352	0.806316	-1.124282	-0.377371	0.844913	-0.087019	108.284444	-83.530363	24.022084			
44612	9.217454	-0.705695	-1.505264	0.478713	1.924448	-0.659006	117.453251	-83.767568	14.088634			
44613	8.261108	-1.411812	-1.770437	0.775229	2.420227	-1.632611	124.747290	-83.716050	6.294567			
44614	8.689861	-0.903271	-1.498632	0.676431	1.782498	-1.155924	130.204153	-83.334874	0.772928			
44615	9.371387	0.358578	0.027894	0.875099	-0.294172	-0.480030	135.814169	-82.858504	-4.332937			
44616	9.362338	1.059204	1.226010	1.224799	-1.775714	-0.559433	142.356766	-82.275676	-10.241735			
44617	9.943664	0.986419	0.210233	0.771516	-1.136424	0.087016	148.102741	-81.588393	-15.824207			
44618	10.142838	0.289505	-1.739617	0.082666	0.612271	0.463678	152.563456	-81.108480	-20.357624			
44619	9.109436	-0.566040	-1.729229	0.600734	1.111364	-0.609676	156.294857	-80.757214	-24.087146			
44620	8.546420	-0.657663	-1.898669	0.491933	1.226498	-1.133318	159.811889	-80.297955	-27.321597			
44621	8.872601	0.297582	-2.292784	-0.394916	0.724148	-0.681059	163.078854	-79.704009	-29.956317			
44622	9.293740	1.895438	-2.077153	-1.302702	-0.698284	-0.216104	165.743543	-79.101667	-31.907327			
44623	9.596519	2.696893	-1.976259	-1.708469	-1.490081	0.093432	167.983187	-78.539297	-33.690113			
44624	9.229177	2.415187	-1.663091	-1.310164	-1.596486	-0.351710	170.240815	-77.953022	-35.843855			
44625	9.028933	0.967441	-2.415828	-0.787338	-0.149160	-0.450518	172.395491	-77.279959	-38.115465			
44626	8.653451	-0.693079	-2.824543	0.098415	1.228662	-0.767251	174.268827	-76.593816	-40.117891			
44627	8.276816	-1.684885	-2.418324	1.061190	1.577113	-1.234915	175.812620	-75.886915	-41.657679			
44628	8.315250	-1.736191	-2.480599	1.107643	1.535586	-1.168332	177.298815	-75.100947	-42.894822			
44629	8.581075	-1.036618	-2.247004	0.861879	0.716233	-0.952600	178.762900	-74.278025	-43.894955			
44630	8.900162	-0.053788	-2.471117	0.121573	-0.015407	-0.576592	-179.734896	-73.481237	-44.848171			
44631	9.321920	0.702200	-2.395893	-0.229719	-0.825634	-0.200433	-178.302466	-72.759808	-45.834943			
44632	9.165780	0.662342	-2.170394	-0.046616	-1.040841	-0.427908	-176.971534	-72.150939	-46.911739			
44633	8.875919	0.061292	-2.668119	-0.007628	-0.332579	-0.550250	-175.760305	-71.532235	-47.886124			
44634	8.986987	-0.016727	-3.038735	-0.160975	-0.178946	-0.328969	-174.596762	-70.891727	-48.651490			
44635	8.889185	0.386507	-3.153989	-0.511013	-0.499170	-0.399781	-173.449592	-70.198596	-49.253251			
44636	9.244039	0.857448	-3.208071	-0.752261	-1.037284	-0.074340	-172.423415	-69.442708	-49.679480			
44637	9.530583	1.286631	-2.944759	-0.734924	-1.738543	0.066290	-171.594700	-68.638155	-49.887239			
44638	9.686020	1.815879	-2.501387	-0.664409	-2.585827	-0.002325	-170.984339	-67.842231	-49.902970			
44639	9.843655	1.975097	-1.875979	-0.204830	-3.254120	-0.133605	-170.445888	-67.075827	-49.932707			
44640	9.235540	1.434819	-1.291816	0.487236	-3.123042	-0.922775	-169.897475	-66.369308	-50.057135			
44641	9.245236	0.716926	-1.068794	1.178323	-2.813426	-0.990802	-169.269764	-65.678162	-50.229497			
44642	10.258540	0.244456	-0.296468	2.360982	-3.313785	-0.387796	-168.487773	-65.009788	-50.452380			
44643	10.865547	0.495875	1.028580	3.372526	-4.527361	-0.458964	-167.722030	-64.476807	-50.629998			
44644	11.327242	0.567786	1.628769	3.937239	-5.128349	-0.353343	-166.818066	-64.048737	-50.881133			
44645	11.743639	0.240378	1.276296	4.036049	-4.879531	0.162278	-165.760510	-63.741327	-51.173531			
44646	11.334115	0.247637	0.772990	3.563639	-4.514687	-0.012737	-164.675231	-63.620921	-51.412231			
44647	10.908801	0.623596	0.075354	2.699940	-4.328165	-0.149678	-163.547907	-63.579787	-51.637537			
44648	11.026091	0.864072	-0.813051	1.911616	-4.142427	0.295145	-162.405681	-63.577072	-51.838238			
44649	11.971756	1.192400	-2.336613	0.789482	-4.028173	1.735249	-161.331754	-63.696447	-52.087601			
44650	12.166436	1.005305	-1.799164	1.299945	-4.198406	1.717817	-160.296466	-64.169214	-52.468302			
44651	13.654727	1.780224	-0.160762	2.480714	-6.088102	2.288038	-159.540320	-64.365568	-52.731002			
44652	14.945702	1.795159	-0.951914	2.148469	-6.186025	3.774798	-158.831594	-64.432214	-53.099743			
44653	15.078878	1.796078	-0.110727	2.799733	-6.634967	3.557020	-157.838244	-64.582420	-53.672763			
44654	15.466075	2.140504	0.899907	3.458175	-7.497688	3.469494	-157.010246	-64.895087	-54.023119			
44655	16.203649	3.244445	2.259324	4.075017	-9.222871	3.473429	-156.241988	-65.349650	-54.473710			
44656	16.457097	3.361496	4.085890	5.451552	-10.144621	3.078958	-155.678057	-65.960507	-55.005347			
44657	16.560413	3.678867	7.303722	7.757203	-11.788767	2.102302	-155.192514	-66.932961	-55.794651			
44658	14.677475	1.877527	7.680431	8.341435	-9.765859	0.816189	-154.465756	-68.370052	-57.234343			
44659	11.742002	-1.304046	2.387730	4.885688	-3.640573	0.586635	-153.632820	-69.681883	-58.862263			
44660	11.877369	-2.994814	-0.348311	3.381875	-0.822238	1.936427	-152.062841	-71.020902	-60.670893			
44661	11.743242	-1.698313	-1.776183	1.230425	-0.952336	2.083236	-150.010046	-72.447655	-62.434620			
44662	11.976109	-1.588103	-3.551333	-0.519260	-0.006650	2.768340	-147.945745	-73.863737	-64.188019			
44663	12.600112	-2.734263	-5.392092	-1.614767	1.927822	3.934297	-146.005192	-75.182218	-65.587615			
44664	13.760090	-3.078658	-5.478391	-1.657301	2.224640	5.057517	-144.022232	-76.542926	-66.740440			
44665	13.965348	-3.030185	-5.380933	-1.863441	2.344948	5.160078	-141.970645	-77.910215	-67.946278			
44666	13.770603	-2.763294	-4.949053	-1.907803	2.207641	4.789839	-139.842640	-79.271475	-69.383885			
44667	13.685865	-1.934299	-4.203957	-1.908874	1.410660	4.437726	-137.449190	-80.574692	-71.277188			
44668	13.205956	-1.153949	-3.589071	-1.980721	0.768035	3.755256	-134.485723	-81.824543	-74.028602			
44669	12.299727	-0.695240	-4.354875	-3.082483	1.086623	2.838105	-131.055716	-82.975288	-77.511791			
44670	11.301464	-0.305802	-4.444299	-3.519603	1.132856	1.758469	-126.768328	-84.110054	-81.993997			
44671	10.651738	0.695755	-3.390887	-3.211511	0.052970	0.916664	-121.185007	-85.293526	-88.101567			
44672	10.240234	-0.276609	-2.579194	-2.142295	0.778363	0.501865	-110.852141	-86.436493	-99.128087			
44673	10.024959	-0.521144	-2.430531	-1.992910	1.166455	0.254136	-92.476095	-87.420700	-118.052948			
44674	10.374177	-0.119196	-2.485957	-2.349437	1.080376	0.537406	-60.080425	-87.896874	-151.122677			
44675	10.198871	-0.630422	-2.999383	-2.602665	2.040653	0.309875	-26.098449	-87.562220	174.093762			
44676	10.263172	-1.005037	-3.528293	-2.918791	2.893917	0.281440	-5.059364	-86.711851	152.411781			
44677	10.396577	-0.027850	-3.378681	-3.385968	2.252075	0.334320	6.808765	-85.572158	139.968068			
44678	10.491140	-0.047791	-3.321855	-3.401196	2.515528	0.345923	13.158826	-84.229240	132.897700			
44679	9.888594	-0.780091	-3.577433	-3.224436	3.487014	-0.398450	16.581128	-82.846832	128.756578			
44680	9.440402	-1.416270	-4.265700	-3.436033	4.588938	-1.068934	18.772799	-81.571839	126.021334			
44681	9.254831	-0.716617	-3.949042	-3.601129	4.026584	-1.293629	20.010782	-80.386872	124.116568			
44682	8.627615	-1.138350	-3.682095	-3.101020	4.324106	-2.004284	20.205928	-79.192942	122.948825			
44683	7.952153	-1.020427	-3.671799	-3.103585	4.299961	-2.767494	19.784445	-78.028350	122.284087			
44684	7.337157	-0.742179	-3.188939	-2.836988	3.851464	-3.357537	18.961693	-76.889751	121.891718			
44685	7.011086	-0.395333	-2.217949	-2.287896	3.076088	-3.525230	17.977122	-75.824552	121.581620			
44686	6.875226	-0.387257	-1.559489	-1.803081	2.760072	-3.569287	16.868696	-74.788868	121.339608			
44687	6.501667	-1.198023	-1.643304	-1.279082	3.434855	-4.070553	15.924894	-73.847602	121.062923			
44688	6.497196	-1.535210	-1.649285	-1.048931	3.770216	-4.158048	15.231111	-72.952617	120.731323			
44689	6.298271	-1.992519	-1.694996	-0.725849	4.151591	-4.450959	14.990714	-72.141298	120.273187			
44690	6.278242	-1.807108	-1.586268	-0.775238	4.013949	-4.475569	14.981415	-71.388359	119.727075			
44691	6.081322	-2.566664	-2.159933	-0.583149	4.928249	-4.953947	15.354651	-70.764066	119.097973			
44692	6.140396	-2.057275	-1.856312	-0.752004	4.444238	-4.806130	15.981313	-70.250244	118.438377			
44693	6.163344	-2.341836	-1.669672	-0.424024	4.566380	-4.790044	16.774331	-69.877256	117.744428			
44694	6.269350	-1.967103	-0.661409	-0.030454	3.714144	-4.352309	17.674262	-69.582097	117.087832			
44695	6.392642	-1.334144	0.467958	0.266279	2.610984	-3.814643	18.462733	-69.383315	116.442185			
44696	6.521007	-1.547458	0.482112	0.423618	2.815967	-3.726523	19.013163	-69.239395	115.810744			
44697	6.366911	-2.176728	0.177831	0.711049	3.415165	-4.056097	19.519474	-69.162533	115.250231			
44698	6.327383	-1.208922	0.805371	0.465310	2.338962	-3.774592	19.982783	-69.177147	114.734628			
44699	6.204936	-1.387837	0.408717	0.363666	2.681977	-4.044751	20.181161	-69.236999	114.299232			
44700	6.134325	-0.904728	0.640954	0.201760	2.169837	-3.972281	20.204451	-69.352521	113.909638			
44701	7.330785	-0.877041	0.727160	0.085472	2.465748	-2.816180	19.965099	-69.453691	113.699400			
44702	7.672804	-0.871404	1.415255	0.499219	2.095799	-2.263344	19.560706	-69.490942	113.637748			
44703	8.017628	-0.877355	2.386684	1.095222	1.536327	-1.615827	19.152048	-69.534141	113.576486			
44704	8.414214	-1.391822	2.685888	1.616564	1.773977	-1.199336	18.834419	-69.604557	113.453410			
44705	8.680225	-1.263974	3.522538	2.029760	1.172682	-0.655339	18.632830	-69.687154	113.251380			
44706	8.841424	-1.075077	4.924278	2.765050	0.103324	-0.018872	18.396697	-69.715274	113.051374			
44707	8.891872	-0.599275	6.020033	3.084217	-0.981273	0.443526	18.192939	-69.744117	112.782333			
44708	8.886693	-1.425673	5.545849	3.411096	-0.138001	0.192694	18.416864	-69.713771	112.492833			
44709	8.774462	2.389338	8.860862	2.647996	-4.902486	1.596441	19.135998	-69.637033	112.102381			
44710	8.799781	3.524368	9.566530	2.251823	-6.082959	1.989967	19.248955	-69.533526	111.772774			
44711	9.001370	1.783517	8.309918	2.759406	-4.012803	1.569023	19.722495	-69.500881	111.375461			
44712	9.269681	2.901778	10.223805	3.150394	-5.945137	2.580983	20.485894	-69.508814	110.995805			
44713	9.268160	1.696063	9.080951	3.404990	-4.356742	2.047482	21.070988	-69.601482	110.610125			
44714	8.418756	0.705916	7.025367	2.991733	-2.570894	0.442518	21.781006	-69.767863	110.157269			
44715	7.350478	0.541963	4.544568	1.690622	-1.106446	-1.392850	22.578686	-69.993911	109.598725			
44716	7.492230	-0.463843	1.572386	0.535911	1.621614	-2.335789	23.526801	-70.322837	109.042465			
44717	10.280623	-2.090291	-0.358485	0.211959	4.843967	-0.502522	24.436196	-70.982880	108.612876			
44718	14.663933	-5.073802	-2.192786	0.761008	9.267609	2.801122	25.298628	-72.231237	108.633088			
44719	17.883032	-8.605182	-3.041464	2.374527	12.872752	5.410238	26.134508	-73.913324	109.338233			
44720	18.315744	-6.552457	1.306246	3.837472	8.446014	7.335060	27.693916	-74.726693	109.597953			
44721	18.620515	4.639187	13.307088	5.013240	-7.080818	11.867178	29.815165	-73.957260	109.776153			
44722	12.511178	24.302799	17.130565	-3.757129	-25.284582	9.861986	34.392625	-73.583047	106.698124			
44723	15.940247	22.357915	5.888279	-11.147530	-15.893845	10.478474	35.781396	-73.516371	103.561090			
44724	13.654523	1.755101	1.451430	-1.020463	1.497794	3.911211	32.391683	-74.210716	103.658260			
44725	14.545172	-8.236783	-6.149520	0.698971	13.535858	1.740456	27.150958	-75.285693	105.635916			
44726	5.432018	-19.315934	-9.040859	8.076143	20.442888	-8.725596	24.532268	-75.537859	106.662408			
44727	2.981333	-12.113881	-7.164326	4.156136	13.772516	-9.811096	29.321863	-76.249455	103.118358			
44728	4.800043	-3.149295	-5.132620	-1.430036	6.808689	-6.511926	35.744556	-77.360418	98.845637			
44729	5.513666	-0.107347	-6.720664	-4.858354	5.790884	-5.519668	44.106801	-78.374766	93.035850			
44730	6.177817	4.090326	-9.646980	-9.939659	4.423837	-4.376794	54.623248	-79.118795	85.758028			
44731	11.630601	13.653063	-5.848424	-12.885726	-4.631279	3.163056	59.382842	-79.212844	82.421692			
44732	8.992431	6.093211	2.062123	-1.936794	-4.321979	0.177903	60.671958	-79.801250	80.126105			
44733	10.846588	-0.289221	-1.815261	-0.841050	3.110940	0.705590	64.330593	-81.270979	75.383989			
44734	11.330999	-3.876590	-4.643729	-0.599544	7.431210	0.646404	65.194092	-82.767314	73.854504			
44735	8.103319	-4.382050	-2.385607	1.366864	5.771596	-2.371148	64.774943	-83.338974	73.530542			
44736	8.113492	-2.635031	-2.083293	0.482469	4.187524	-2.109247	70.982111	-83.849045	67.570745			
44737	9.209290	-0.718643	-1.759052	-0.418258	2.531940	-0.766525	83.616795	-84.178785	56.284794			
44738	11.631752	3.222795	-2.185053	-2.995097	-0.135187	2.081225	92.483215	-83.977806	48.589924			
44739	10.378776	4.335019	1.349841	-0.887648	-3.411911	0.953153	95.892663	-83.930895	45.954546			
44740	8.173293	4.456748	2.847550	0.142155	-4.682111	-1.278661	103.895128	-84.134765	38.217222			
44741	9.072737	2.972303	0.467698	-0.677793	-2.143670	-0.522388	116.576512	-84.294663	25.330142			
44742	9.802277	0.641139	-2.309573	-1.279589	1.248064	0.118636	128.670497	-84.206384	12.926337			
44743	8.871386	-0.637626	-2.230020	-0.447074	2.025820	-0.880964	136.628810	-83.965623	5.089438			
44744	8.425216	-0.019733	-0.634024	0.438274	0.443313	-1.386722	142.460912	-83.433622	-0.215349			
44745	9.126246	1.309512	-0.343012	0.037364	-0.890070	-0.629834	148.489135	-82.730127	-5.375311			
44746	10.205650	1.895713	-0.489080	-0.177286	-1.411136	0.481146	153.410722	-82.109556	-9.664712			
44747	9.955142	1.475356	-0.056450	0.467150	-1.445794	0.135913	157.769380	-81.663543	-13.650126			
44748	9.237731	0.706278	-0.325878	0.654122	-0.761926	-0.596899	162.404311	-81.168596	-17.976209			
44749	9.247617	0.086316	-1.577508	0.056191	0.338385	-0.437446	166.561774	-80.635339	-21.774257			
44750	9.189227	0.229616	-1.997464	-0.330383	0.338310	-0.418035	169.937370	-80.100212	-24.681075			
44751	9.431559	0.789982	-1.855447	-0.450273	-0.342348	-0.184621	172.850015	-79.544725	-27.044103			
44752	9.337935	1.407644	-2.144474	-0.996893	-0.803759	-0.213929	175.173580	-79.026886	-28.841745			
44753	9.356927	1.839249	-1.941005	-1.013754	-1.390016	-0.234524	177.351220	-78.490898	-30.452680			
44754	9.183154	1.910274	-2.256452	-1.283673	-1.377461	-0.350951	179.222246	-77.918298	-31.813193			
44755	9.016133	1.766612	-2.392653	-1.292429	-1.271483	-0.493444	-179.283623	-77.398002	-32.905865			
44756	8.746644	1.843430	-1.470738	-0.568354	-1.873404	-0.967824	-178.077825	-76.873469	-33.805239			
44757	8.874831	1.714945	-1.220096	-0.212513	-1.992075	-0.914493	-176.990914	-76.290443	-34.695179			
44758	8.739027	1.201053	-1.408554	-0.069225	-1.525321	-1.011272	-175.898167	-75.711630	-35.662864			
44759	8.410696	0.782670	-2.074900	-0.414813	-0.869456	-1.168108	-174.904098	-75.115152	-36.564725			
44760	8.370636	0.693220	-2.295748	-0.506803	-0.761766	-1.153555	-173.947128	-74.503584	-37.391111			
44761	8.805573	0.811081	-2.538196	-0.623635	-0.903143	-0.678531	-172.945466	-73.888669	-38.225296			
44762	9.184382	0.927600	-2.674243	-0.664548	-1.095772	-0.287898	-171.980933	-73.324453	-39.086656			
44763	9.385962	0.955712	-2.669499	-0.589291	-1.249601	-0.105660	-171.083138	-72.820630	-40.025293			
44764	9.119886	0.793101	-2.439883	-0.346392	-1.253398	-0.428505	-170.292457	-72.391834	-41.024746			
44765	8.871723	0.202053	-2.332209	0.020857	-0.835246	-0.675471	-169.368562	-71.888142	-42.123385			
44766	8.830606	-0.582225	-2.444202	0.365157	-0.203871	-0.641167	-168.314415	-71.291943	-43.245079			
44767	8.494302	-1.408912	-2.800661	0.470370	0.636190	-0.792996	-167.284361	-70.659685	-44.311948			
44768	8.306480	-2.425679	-2.976189	0.860624	1.509632	-0.828351	-166.175674	-69.982066	-45.389850			
44769	8.212734	-2.882863	-2.394546	1.588079	1.524579	-1.057899	-165.212956	-69.320853	-46.299625			
44770	8.385789	-2.535252	-1.467723	2.229682	0.641440	-1.238347	-164.431465	-68.678288	-47.050746			
44771	8.860414	-1.691992	-0.720428	2.537443	-0.645007	-1.150517	-163.780298	-68.034905	-47.672716			
44772	9.217417	-0.408302	-0.383774	2.250771	-2.068024	-1.098831	-163.323371	-67.453140	-48.092978			
44773	9.607007	0.907156	-0.305814	1.750247	-3.393808	-0.945386	-163.028688	-66.926315	-48.319130			
44774	10.291364	1.600770	-0.168968	1.710882	-4.307569	-0.484223	-162.726264	-66.448276	-48.500570			
44775	10.632354	1.395379	-0.682765	1.541072	-4.071021	0.011337	-162.373584	-66.006006	-48.706639			
44776	10.949904	0.942874	-1.377615	1.349190	-3.544220	0.594272	-161.969675	-65.598033	-48.887986			
44777	11.182270	0.606387	-1.525907	1.505222	-3.338991	0.879560	-161.419725	-65.241159	-49.096797			
44778	11.142678	0.204238	-1.242724	1.957170	-3.180782	0.760725	-160.775302	-64.939411	-49.329111			
44779	10.958882	-0.023682	-0.841141	2.364108	-3.161790	0.444943	-160.056063	-64.689018	-49.555762			
44780	10.819787	-0.064900	-0.475933	2.650440	-3.282767	0.162130	-159.281245	-64.505663	-49.768549			
44781	10.476928	0.211019	-0.105079	2.717466	-3.587835	-0.348842	-158.535186	-64.444435	-49.971887			
44782	10.880221	0.405476	-0.533696	2.369892	-3.729490	0.152398	-157.928912	-64.452665	-50.218407			
44783	11.722929	0.573480	-0.353752	2.647703	-4.234170	0.814754	-157.261287	-64.543524	-50.440380			
44784	13.131059	1.911999	-0.006547	2.645642	-5.983767	1.731817	-156.571227	-64.685911	-50.617687			
44785	15.653013	2.972619	1.323790	3.909964	-8.233199	3.322464	-156.043974	-64.870762	-50.769351			
44786	15.955536	3.335076	1.667021	4.062556	-8.746922	3.433715	-155.423840	-65.215451	-51.135179			
44787	15.547579	3.687765	2.885166	4.746112	-9.334546	2.596603	-154.785253	-65.680547	-51.487619			
44788	16.228123	5.228875	4.325017	5.352465	-11.363156	2.500996	-154.308138	-66.230757	-51.722540			
44789	16.390754	6.026423	5.505432	5.936944	-12.458452	2.221404	-154.041439	-66.988519	-51.986333			
44790	16.877314	4.168924	9.014711	9.717500	-12.224990	2.002280	-153.539428	-68.168689	-52.827290			
44791	13.332792	1.566384	7.066888	8.165242	-8.078146	0.097624	-152.904013	-69.602479	-54.458884			
44792	12.613928	-1.057223	0.510713	3.371003	-2.825527	2.067374	-152.423265	-70.827344	-56.475100			
44793	12.787903	-4.012643	-2.661842	1.933123	1.204701	3.660260	-151.085799	-72.236472	-58.396377			
44794	13.487896	-0.364449	-4.836830	-1.939534	-0.874697	4.361587	-148.538013	-73.844914	-60.026606			
44795	14.651503	1.649676	-6.624251	-4.630690	-1.856553	5.561493	-146.490309	-75.413676	-61.308730			
44796	15.608468	-0.624431	-7.641748	-4.638871	0.643687	6.934216	-144.885114	-77.003958	-62.510502			
44797	15.071625	-2.135420	-7.683711	-4.334431	2.420904	6.499495	-143.457487	-78.584806	-63.522710			
44798	14.942685	-1.698300	-6.484878	-3.751551	1.867859	6.019058	-142.553991	-80.086660	-64.182346			
44799	16.023265	-0.674516	-4.704278	-2.774997	0.358707	6.664158	-141.626564	-81.499249	-65.276240			
44800	15.926692	0.535858	-3.039370	-2.090715	-1.077352	6.238351	-139.120844	-82.981724	-68.385902			
44801	14.059003	1.601227	-3.950398	-3.731109	-1.019797	4.359362	-134.664917	-84.468534	-73.812968			
44802	12.379375	1.637109	-4.769001	-4.737279	-0.143124	2.685155	-127.273947	-85.867625	-82.203319			
44803	11.650306	1.458578	-4.011869	-4.184591	0.032861	1.867571	-113.169507	-87.096740	-97.370021			
44804	10.822981	0.020537	-3.158055	-2.868248	1.190617	1.025077	-84.044173	-87.925850	-127.783685			
44805	10.614579	-1.605811	-3.071545	-2.043052	2.819943	0.796191	-42.386806	-87.848345	-170.759519			
44806	9.553942	-2.191875	-3.690780	-2.261799	3.922659	-0.368398	-17.028963	-86.965595	162.506226			
44807	9.488403	-2.954939	-3.916715	-2.028601	4.925736	-0.554301	-4.348706	-85.798041	148.500799			
44808	9.355251	-3.879538	-4.959939	-2.320578	6.516106	-0.906443	2.341865	-84.509608	140.806415			
44809	9.202886	-3.033415	-4.691707	-2.615337	5.893664	-1.191471	7.174598	-83.191010	135.360244			
44810	10.215271	-2.353222	-4.063662	-2.649255	5.288560	-0.251882	9.842415	-81.882561	131.855210			
44811	9.892540	-2.503682	-4.244285	-2.697923	5.716244	-0.747146	11.475151	-80.494628	129.458418			
44812	9.624376	-2.373185	-3.959654	-2.567685	5.621704	-1.109945	12.118269	-79.167299	128.011663			
44813	8.901034	-2.331740	-4.334477	-2.818829	5.910611	-2.030175	12.021613	-77.878549	127.210187			
44814	7.902882	-2.729351	-4.033188	-2.216527	6.018381	-3.101939	11.452182	-76.565371	126.793290			
44815	6.612484	-3.513733	-3.872042	-1.385213	6.383821	-4.484474	10.789075	-75.342140	126.536916			
44816	6.501526	-3.349480	-3.606116	-1.268926	6.165053	-4.628740	10.281436	-74.259572	126.194650			
44817	6.398209	-3.686468	-2.569538	-0.273589	5.782264	-4.557280	10.130503	-73.317802	125.700198			
44818	6.513617	-3.672421	-2.327736	-0.129916	5.708935	-4.453343	10.474602	-72.490848	125.001488			
44819	6.549742	-3.066221	-2.282980	-0.540030	5.330913	-4.445970	11.359204	-71.747407	124.102481			
44820	6.472432	-2.600149	-2.588362	-1.084181	5.254667	-4.658575	12.721562	-71.057892	123.063132			
44821	5.964160	-1.830490	-1.745742	-0.982440	4.088444	-4.884375	14.547966	-70.419073	121.925301			
44822	5.519404	-1.115159	-1.695418	-1.390236	3.477662	-5.278977	16.448131	-69.822622	120.770360			
44823	4.947157	-0.877658	-2.060634	-1.729808	3.409985	-5.956477	18.406948	-69.261553	119.636477			
44824	4.831945	0.022053	-1.537400	-1.960804	2.432024	-5.818672	20.294324	-68.741789	118.583314			
44825	4.778898	0.362918	-1.116013	-1.876377	1.940900	-5.698432	21.919466	-68.323199	117.649434			
44826	4.889759	0.569164	-0.703667	-1.721739	1.606618	-5.432828	23.245557	-68.068212	116.818209			
44827	5.437618	0.659181	-0.282351	-1.546443	1.497495	-4.768097	24.229481	-67.948861	116.111953			
44828	5.781475	0.806413	0.418916	-1.162163	1.112816	-4.185767	24.677415	-67.937047	115.588032			
44829	6.165540	-0.043392	-0.095065	-1.035032	2.177040	-4.136951	24.764100	-67.980725	115.251888			
44830	6.502287	0.255842	0.416159	-0.896755	1.771270	-3.601664	24.547644	-68.048497	115.051353			
44831	6.724119	-0.144561	0.277098	-0.762526	2.215651	-3.502307	24.135024	-68.128691	114.980466			
44832	7.353713	0.000455	1.230368	-0.261053	1.740849	-2.567540	23.564621	-68.225489	114.880145			
44833	8.076740	-0.154629	2.338529	0.530338	1.401420	-1.537360	23.138405	-68.350898	114.679371			
44834	8.573412	-0.022956	3.792843	1.402670	0.545923	-0.559368	22.850467	-68.494349	114.383450			
44835	9.038921	0.331442	4.885294	1.857089	-0.273270	0.294458	22.609705	-68.637989	114.013751			
44836	9.941154	0.516779	5.344279	1.901346	-0.441481	1.315864	22.217509	-68.737383	113.742973			
44837	9.827646	0.252735	5.119814	1.931022	-0.194080	1.100258	21.950506	-68.811030	113.595777			
44838	9.953215	2.111255	6.493078	1.523572	-2.347797	1.928286	21.791182	-68.874433	113.473450			
44839	9.691372	3.708237	7.497105	1.072486	-4.204137	2.231190	21.359731	-68.882876	113.491832			
44840	9.504548	3.021482	7.117876	1.260234	-3.572355	1.839750	20.568568	-68.818112	113.695863			
44841	9.157193	2.652338	7.905655	2.019215	-3.979154	1.740532	19.834714	-68.740988	113.928451			
44842	8.882522	1.669336	8.059745	2.798326	-3.543954	1.423614	19.128326	-68.704308	114.095001			
44843	8.181320	0.627969	7.242236	3.067111	-2.579330	0.371507	18.593089	-68.742342	114.093667			
44844	8.197498	-0.149579	6.026845	2.814806	-1.286519	-0.119095	18.250570	-68.847863	113.996756			
44845	8.026799	-0.838214	5.119372	2.758981	-0.316342	-0.667858	18.103107	-69.004663	113.875882			
44846	8.413735	-1.419541	4.160783	2.534717	0.813214	-0.700501	18.281565	-69.197672	113.665413			
44847	7.446326	-1.954977	2.965187	2.333095	1.650851	-2.073611	18.881297	-69.431271	113.334825			
44848	7.373960	-2.374110	0.879678	1.337110	3.319243	-2.885915	19.895552	-69.798790	112.825100			
44849	9.196476	-3.234608	-1.304387	0.321852	5.922282	-1.966547	20.954878	-70.379065	112.434206			
44850	13.140951	-6.309454	-3.483325	0.601828	10.566314	0.799254	21.589544	-71.486646	112.759437			
44851	16.308980	-11.074743	-4.620725	2.773588	15.275569	3.184494	21.759060	-73.201833	113.810210			
44852	16.911917	-11.145525	-0.527379	5.519493	12.536913	5.116167	22.907349	-74.462879	113.774205			
44853	20.441280	-4.603146	13.026742	10.284567	-0.051899	12.613738	23.394961	-74.234660	114.785406			
44854	12.827698	11.007509	18.815062	5.116271	-16.580514	8.587829	25.480790	-73.141245	114.327402			
44855	13.664752	26.830160	17.341481	-5.987155	-26.803290	11.470799	30.968278	-72.636948	108.876732			
44856	17.717195	13.987601	9.274864	-4.207887	-10.979974	11.571159	29.292645	-72.827024	107.713868			
44857	18.270064	-7.241888	-1.305390	2.546136	10.825275	6.442371	23.838028	-74.052274	109.875033			
44858	8.740911	-19.744355	-12.641731	5.421829	24.212146	-6.595591	19.357013	-74.255663	111.934926			
44859	-1.314418	-19.983030	-8.443879	9.595251	18.749839	-15.170351	23.715763	-74.461611	108.535490			
44860	2.042190	-9.608586	-7.788883	1.527722	12.407065	-10.740682	30.873383	-75.773569	104.243542			
44861	4.780891	-3.614021	-8.104043	-3.645037	9.036729	-7.239996	39.561069	-76.656681	99.333722			
44862	3.533920	2.091582	-8.018397	-7.641546	4.062357	-7.319533	50.098628	-77.279309	93.609901			
44863	8.140808	15.998131	-12.987480	-19.674241	-4.098853	-0.502605	63.135714	-77.157954	85.433939			
44864	11.594218	31.611640	3.070235	-13.312064	-25.325611	8.201618	64.228294	-76.675578	85.476493			
44865	6.401033	11.924672	-5.120448	-10.364419	-5.910906	-1.625797	66.966420	-77.553446	80.916836			
44866	13.683062	4.045133	-4.876007	-5.730875	1.968918	3.994362	71.101383	-78.891069	76.340786			
44867	12.657664	-0.190262	-0.937579	-0.107150	2.901649	2.544303	71.944744	-80.049935	74.653987			
44868	9.521577	-2.779048	-2.325910	0.055709	5.082693	-0.983504	71.306400	-80.819083	73.723779			
44869	8.163523	-3.109504	-3.843379	-0.979792	5.914920	-2.387313	72.486684	-81.429520	71.826942			
44870	8.426754	-1.309875	-2.609012	-0.935591	3.713325	-1.758647	78.128929	-81.738737	66.607968			
44871	11.848418	3.622013	-1.642540	-2.671748	-0.465978	2.387475	83.041236	-81.730225	62.530213			
44872	10.398370	4.574773	2.070380	-0.158416	-3.593256	1.160205	84.121578	-81.885234	61.503340			
44873	8.107456	3.294620	1.888946	0.264393	-2.809251	-1.316196	88.618090	-82.433821	56.426920			
44874	8.435356	1.359263	-0.506505	-0.545984	0.032779	-1.271147	96.277667	-83.093579	47.880370			
44875	8.989553	0.136697	-2.466968	-1.316862	2.064783	-0.817308	104.476077	-83.620501	38.922522			
44876	8.845333	-0.443789	-2.669254	-1.086867	2.502346	-0.974301	112.270688	-83.924728	30.835379			
44877	8.170488	-0.541251	-1.970247	-0.476861	2.016119	-1.649441	119.182109	-83.829178	23.963075			
44878	8.820197	0.168233	-1.260953	-0.195400	0.970548	-0.956452	125.175170	-83.447052	18.246290			
44879	9.989568	0.919323	-0.220804	0.410674	-0.285094	0.209001	130.000074	-83.051434	13.757485			
44880	10.202689	1.287163	0.894415	1.198589	-1.319376	0.354568	134.902175	-82.774443	9.031789			
44881	9.586308	0.671980	0.822512	1.487130	-0.901010	-0.325833	140.799884	-82.494639	2.962066			
44882	9.478665	-0.487132	-0.811715	0.902694	0.862239	-0.369128	147.248297	-82.159897	-3.833600			
44883	9.564195	-1.830874	-2.099125	0.736268	2.564331	-0.215160	152.871625	-81.865338	-9.612309			
44884	8.913990	-2.116448	-1.373266	1.425672	2.257092	-0.941581	157.039409	-81.515306	-13.567476			
44885	9.001835	-0.936945	-0.980146	1.092067	0.978824	-0.828256	160.451155	-80.974832	-16.326201			
44886	9.839417	0.543635	-1.139456	0.296994	-0.274962	0.099036	164.055191	-80.298635	-18.877745			
44887	10.967377	1.988624	-1.542872	-0.580880	-1.423303	1.334202	166.711429	-79.772194	-20.522980			
44888	10.350365	2.813541	-0.772093	-0.440062	-2.603029	0.611896	168.721989	-79.478550	-21.967010			
44889	9.179048	2.190061	1.068247	1.255915	-3.090107	-0.920821	171.271917	-78.990750	-24.542084			
44890	9.605154	0.673968	0.236779	1.523584	-1.532819	-0.426738	174.170911	-78.209274	-27.971251			
44891	10.278427	-1.835118	-1.470545	1.712852	1.260405	0.514505	176.851524	-77.548587	-31.353152			
44892	9.672855	-3.756519	-1.913292	2.390129	3.015633	0.012187	178.659224	-77.175294	-33.681973			
44893	9.342182	-3.933766	-1.039816	3.152264	2.607883	-0.480299	-179.261051	-76.844742	-35.727408			
44894	8.767445	-4.128723	0.743902	4.594965	1.767370	-1.432347	-177.561461	-76.227306	-36.970024			
44895	9.362186	-3.363947	-0.431254	3.383287	1.630130	-0.590552	-176.649623	-75.283339	-37.004811			
44896	9.609728	-1.796253	-1.593020	1.700716	0.825305	-0.089711	-175.375878	-74.319927	-36.725215			
44897	9.105331	0.236730	-0.771925	1.279948	-1.324616	-0.859258	-174.179695	-73.363759	-36.114512			
44898	9.881726	1.872619	-1.851981	-0.116577	-2.456057	0.113808	-173.436264	-72.424997	-35.370846			
44899	9.936335	3.199152	-2.407879	-1.069106	-3.502935	0.254430	-172.263058	-71.778113	-35.477641			
44900	8.883706	2.282029	-1.985798	-0.457544	-2.806395	-0.869263	-171.221929	-71.173130	-36.092079			
44901	8.528123	0.657599	-3.608894	-1.104455	-0.713228	-0.622713	-170.283074	-70.511476	-36.662487			
44902	8.458342	1.130726	-3.592667	-1.261867	-1.227421	-0.722621	-169.695468	-69.873703	-36.790805			
44903	8.464954	2.566378	-2.872847	-1.231989	-2.883875	-1.057143	-169.291897	-69.338071	-36.804392			
44904	7.553299	3.338680	-1.949556	-0.993499	-3.812495	-2.297551	-168.968961	-68.904836	-36.893804			
44905	7.647360	3.148184	-1.074492	-0.094066	-4.059950	-2.528784	-168.562171	-68.445059	-37.190848			
44906	8.549204	2.441671	-0.285715	1.188206	-3.997704	-1.955318	-168.002837	-67.954057	-37.778478			
44907	9.302819	1.643462	-0.233152	1.839447	-3.545285	-1.248536	-167.494101	-67.541543	-38.397443			
44908	9.767168	1.144045	-0.858172	1.702108	-3.036944	-0.575693	-166.820943	-67.120559	-38.980041			
44909	10.684496	1.110036	-1.655288	1.359268	-3.000299	0.544940	-166.107088	-66.695343	-39.387863			
44910	11.285699	1.305177	-1.319582	1.774793	-3.524668	0.922217	-165.500474	-66.394713	-39.663206			
44911	11.494979	0.522795	-0.603381	2.811335	-3.200198	0.893706	-164.946741	-66.205285	-39.927282			
44912	11.396963	-0.674023	0.151218	3.944166	-2.419159	0.625660	-164.350676	-66.130372	-40.266591			
44913	11.071146	-1.943172	0.480553	4.655179	-1.343255	0.341228	-163.636914	-66.126015	-40.693728			
44914	10.727692	-2.817385	0.278756	4.716410	-0.411910	0.221469	-162.744284	-66.202591	-41.130012			
44915	10.252598	-2.277822	0.030065	4.084633	-0.690618	-0.161585	-161.656206	-66.229250	-41.501082			
44916	11.016289	-0.348632	-0.493369	3.028386	-2.475341	0.503561	-160.341417	-66.249856	-41.969870			
44917	13.054695	0.884623	-0.497718	3.111060	-4.175418	2.201568	-159.056942	-66.267239	-42.454549			
44918	15.282125	2.269208	-0.056705	3.594292	-6.214757	3.867722	-157.763608	-66.357441	-42.924654			
44919	15.187066	3.908678	0.745410	3.615314	-7.945219	3.236569	-156.732846	-66.623139	-43.488595			
44920	14.903083	3.891775	1.766281	4.379258	-8.147593	2.629414	-155.869788	-66.941646	-44.057270			
44921	16.273309	4.906774	4.102651	6.385199	-10.100559	2.951915	-155.032398	-67.447980	-44.651573			
44922	16.533375	5.624017	5.951056	7.696774	-11.308046	2.567885	-154.272852	-68.272504	-45.511260			
44923	16.648736	4.525264	8.152731	9.807482	-10.954499	2.349514	-153.616666	-69.387591	-47.047884			
44924	14.907853	1.266437	4.861297	7.256707	-6.530531	2.522392	-152.959431	-70.683528	-49.339462			
44925	13.741548	-2.279042	1.304917	4.868022	-1.800574	3.178730	-151.528649	-72.068661	-52.087816			
44926	13.749068	-0.492094	1.405976	3.868897	-3.346146	3.035497	-148.816678	-73.587181	-55.158811			
44927	12.959097	2.786748	-1.126747	-0.260441	-4.983781	2.518320	-145.743467	-75.169651	-58.388004			
44928	13.138045	2.198125	-4.647159	-3.496282	-2.930406	3.536905	-142.765976	-76.673316	-61.398722			
44929	14.295803	1.313296	-5.887326	-4.431730	-1.667806	4.963034	-139.805098	-78.050103	-63.926857			
44930	14.974182	1.212529	-6.716863	-5.372044	-1.174477	5.697442	-136.900829	-79.366188	-66.175746			
44931	14.851143	0.393757	-7.208962	-5.768078	-0.013784	5.659871	-134.260343	-80.636760	-68.256807			
44932	14.641568	-0.039590	-6.499791	-5.184300	0.384857	5.339547	-132.093454	-81.876754	-70.169556			
44933	14.464934	-0.361147	-4.705842	-3.601754	0.296363	4.967042	-129.632909	-83.076383	-72.639319			
44934	14.046109	0.666999	-3.458198	-3.032961	-0.792208	4.324551	-126.126831	-84.280029	-76.551312			
44935	13.427432	1.425308	-3.371819	-3.450563	-1.167987	3.619167	-119.390769	-85.484564	-84.119823			
44936	12.797990	1.758702	-2.977740	-3.441250	-1.273204	2.925966	-105.847468	-86.591204	-98.592737			
44937	12.039937	1.967621	-2.937933	-3.699951	-1.135867	2.123493	-81.629767	-87.344291	-123.609157			
44938	11.912780	2.614250	-3.591017	-4.763555	-1.141876	1.919241	-49.714601	-87.421570	-156.229543			
44939	12.090582	2.564161	-3.897724	-5.210816	-0.658787	2.034307	-24.037892	-86.808014	177.238595			
44940	12.578729	2.483995	-4.143800	-5.603857	-0.115620	2.440174	-8.418173	-85.733567	160.195017			
44941	11.812625	1.398846	-4.902772	-5.871755	1.593863	1.522887	-0.700121	-84.296474	150.636732			
44942	10.844586	-0.072367	-4.668192	-4.960828	3.092471	0.444848	3.707453	-82.917753	144.625733			
44943	10.076026	-0.178644	-3.872243	-4.223914	3.027492	-0.350277	6.661954	-81.592421	140.400373			
44944	10.050243	-0.582637	-3.820260	-4.024673	3.605028	-0.499267	9.035952	-80.227645	137.138951			
44945	9.096510	0.851189	-1.465089	-2.856289	1.261600	-1.102813	10.462846	-78.869032	134.535199			
44946	8.494774	-0.665596	-3.451318	-3.559390	3.758884	-2.215847	11.010911	-77.544348	132.612984			
44947	7.606265	-0.343923	-3.558335	-3.721343	3.632051	-3.210361	11.242786	-76.265526	131.092857			
44948	6.994991	0.047937	-3.398490	-3.751872	3.307708	-3.857775	11.273323	-75.082369	129.788096			
44949	6.228558	-0.317718	-2.816336	-2.950537	3.246982	-4.561321	11.034433	-74.027829	128.651845			
44950	6.105127	-0.642699	-2.679664	-2.597815	3.515874	-4.737808	10.662969	-73.053457	127.601482			
44951	5.727175	-1.037179	-2.539573	-2.130649	3.746361	-5.149058	10.160881	-72.187546	126.620302			
44952	5.647139	-1.707237	-2.572191	-1.624184	4.324293	-5.331351	9.646520	-71.410606	125.682797			
44953	5.642960	-1.612056	-2.144945	-1.342655	4.050869	-5.248766	9.168704	-70.676978	124.771806			
44954	5.529848	-2.760983	-2.722235	-0.808359	5.262439	-5.657552	8.925060	-69.961729	123.851468			
44955	5.557720	-2.496255	-1.817754	-0.370325	4.525698	-5.362497	9.107657	-69.330581	122.906481			
44956	5.496913	-2.612795	-2.144055	-0.442544	4.858301	-5.588912	9.483981	-68.710499	121.967109			
44957	5.148502	-3.013269	-2.258777	-0.118786	5.136324	-6.032135	10.354230	-68.186600	120.952034			
44958	5.319756	-2.596258	-2.052336	-0.328232	4.820284	-5.824058	11.685610	-67.728236	119.852536			
44959	5.151930	-2.105837	-1.958277	-0.605313	4.423407	-5.955413	13.214299	-67.353142	118.676926			
44960	5.210312	-1.910171	-1.890799	-0.715275	4.305674	-5.898537	14.959601	-67.093288	117.401347			
44961	5.287538	-0.791226	-1.562127	-1.341945	3.407867	-5.616278	16.709668	-66.926687	116.083127			
44962	4.986178	-0.153279	-1.313675	-1.578080	2.740151	-5.736865	18.241044	-66.835872	114.788824			
44963	4.605167	-0.338375	-1.302373	-1.338694	2.737528	-6.107021	19.500996	-66.816908	113.530026			
44964	4.617007	0.009879	-1.072680	-1.415171	2.377219	-5.963857	20.481164	-66.819223	112.380023			
44965	4.542761	-0.256792	-1.160622	-1.228710	2.598193	-6.099305	21.138180	-66.830814	111.366883			
44966	5.161485	-0.587223	-0.759027	-0.776086	2.783159	-5.429366	21.781847	-66.850855	110.473901			
44967	5.859715	0.047195	0.168579	-0.719387	2.019660	-4.356471	22.268449	-66.844322	109.778209			
44968	6.965544	0.570825	0.641479	-0.930423	1.782414	-3.088596	22.585686	-66.892145	109.175771			
44969	8.434093	0.646457	2.375216	-0.036460	1.102415	-1.096224	22.928863	-67.031516	108.627297			
44970	10.157186	0.867180	3.854317	0.564031	0.571284	1.056143	23.287360	-67.252843	108.036668			
44971	11.775951	0.991049	5.352696	1.276536	0.028841	3.097613	23.699214	-67.453234	107.390604			
44972	12.201163	1.289550	6.642951	1.873030	-0.913934	3.982830	24.300752	-67.539684	106.615783			
44973	11.656879	2.543359	8.760934	2.385380	-3.346626	4.407543	25.245491	-67.495209	105.642862			
44974	10.657829	3.767348	9.611268	2.166233	-5.023476	3.979710	26.238827	-67.359501	104.592826			
44975	9.200982	4.450383	9.551536	1.824203	-5.914404	2.732721	27.379295	-67.371293	103.469346			
44976	9.161993	5.590061	9.163536	0.795535	-6.370431	2.754942	28.456200	-67.573393	102.375303			
44977	9.523566	4.924041	7.927158	0.549544	-5.002826	2.534527	29.132289	-67.827222	101.500354			
44978	10.199158	3.738033	7.551434	1.211199	-3.806897	2.799213	29.659258	-68.070499	100.869985			
44979	10.720277	2.727425	6.859495	1.554619	-2.557245	2.854559	30.123627	-68.314583	100.489484			
44980	10.178674	3.278821	5.642969	0.433846	-2.289160	2.051983	30.460476	-68.569843	100.225087			
44981	9.564214	1.439854	2.938934	0.177991	0.468529	0.283511	30.759874	-68.878322	99.926642			
44982	11.532222	-0.565620	1.038912	0.411840	3.659033	1.179667	31.436792	-69.508341	99.416924			
44983	14.764422	-2.700606	1.343722	2.104978	5.725177	3.966782	31.932086	-70.481885	99.206114			
44984	13.047680	-4.671029	0.292303	3.063142	6.896678	1.814477	32.257890	-71.840204	98.936389			
44985	12.575051	-6.052899	1.762149	5.158426	6.330721	1.640764	32.455189	-72.884866	98.446568			
44986	14.969349	-1.215569	13.445950	8.986537	-4.523413	7.655374	32.339485	-72.643175	98.330668			
44987	15.718970	11.856933	15.653955	0.465827	-14.039842	11.053143	33.985517	-72.487273	96.601233			
44988	19.585046	13.036318	6.123287	-6.661443	-6.659663	12.599084	34.684346	-72.478346	95.207263			
44989	16.375113	1.359326	1.600234	-0.614184	2.798772	6.445600	29.702085	-73.154637	97.732935			
44990	11.551045	-11.264011	-2.177633	7.436214	11.231891	-0.673902	21.679099	-73.931818	101.491858			
44991	4.776227	-22.819754	-11.638591	13.213442	22.445959	-10.473040	19.106423	-73.752277	100.969662			
44992	-0.624030	-14.683004	-13.921681	5.548017	18.626137	-15.472643	24.214586	-74.212570	97.779303			
44993	0.504348	-4.363672	-8.708175	-1.152295	9.457805	-11.892047	31.192497	-75.194235	93.893633			
44994	2.488665	0.512463	-5.638605	-3.795949	4.680600	-8.428006	42.568939	-76.461790	86.140136			
44995	13.251254	9.311905	-9.512049	-12.715048	4.026546	3.402824	60.890087	-76.936824	72.848844			
44996	18.324397	29.421495	1.428245	-18.340252	-17.011450	14.220034	63.153555	-76.101119	73.016870			
44997	4.906637	12.551305	-0.259853	-8.587737	-7.329098	-2.450587	63.463374	-76.887598	70.600989			
44998	11.103102	2.278028	-4.115096	-3.621477	3.632461	1.099971	65.970146	-78.626513	66.522882			
44999	13.436449	-1.517781	-4.580344	-0.954675	6.609170	2.805443	64.967087	-80.477186	65.959206			
45000	10.129597	-5.116974	-3.184471	2.469210	7.141287	-0.766412	58.980271	-81.228959	69.765562			
45001	7.133019	-4.775449	-1.990252	2.875293	5.459986	-3.522550	55.035213	-81.533627	72.055557			
45002	6.550892	-4.575686	-1.330097	3.147800	4.648691	-3.973135	57.347916	-82.130004	69.468708			
45003	8.070460	-2.798719	-1.512665	1.740262	3.831462	-2.226987	68.251102	-82.798865	59.770163			
45004	9.985137	-0.361504	-0.846623	0.477723	1.860286	0.028817	83.915281	-83.013324	46.316794			
45005	10.759467	4.875170	-1.425169	-3.579578	-1.217305	1.468158	95.122043	-82.637966	36.766392			
45006	10.082570	5.520933	-0.496557	-3.332950	-2.534859	0.904161	97.679546	-82.433059	34.381000			
45007	6.818817	3.088738	2.111325	-0.096165	-3.174220	-2.712840	105.192956	-82.624786	26.963533			
45008	8.666263	2.984919	0.273113	-0.973525	-1.801584	-0.874554	117.398062	-82.561245	14.569007			
45009	10.236400	1.950810	-3.269953	-2.289335	1.362506	0.778836	127.440437	-82.436856	3.961516			
45010	9.288300	-0.993841	-3.127938	-0.074080	3.018643	-0.435874	133.887641	-82.307250	-2.742494			
45011	9.349271	-1.206240	-0.821210	1.640197	1.293441	-0.583729	139.083138	-81.920382	-7.804988			
45012	9.522164	-0.856241	-0.500520	1.669001	0.692076	-0.411148	144.545660	-81.357033	-12.840359			
45013	9.658855	-0.620951	-1.075802	1.196110	0.823358	-0.183255	149.372743	-80.781206	-17.189208			
45014	9.223732	-0.491144	-1.130618	1.043946	0.667034	-0.589854	153.406547	-80.284642	-20.858913			
45015	8.583297	-0.684411	-1.887375	0.612244	1.272484	-1.111633	157.136779	-79.798614	-24.259010			
45016	8.682676	-0.445001	-2.556229	0.032021	1.464370	-0.869852	160.740925	-79.229502	-27.342093			
45017	9.303976	0.697762	-2.354074	-0.521344	0.336767	-0.210331	164.029804	-78.579931	-29.880700			
45018	9.951146	2.026463	-1.861007	-0.969736	-1.160696	0.400303	166.792524	-77.923779	-31.850030			
45019	9.937165	2.961989	-1.156452	-1.080115	-2.461510	0.268497	169.035520	-77.316912	-33.506967			
45020	9.980598	2.916177	-1.534196	-1.248705	-2.303292	0.365940	170.946562	-76.795285	-35.217078			
45021	9.276465	1.508152	-1.201557	-0.138101	-1.540147	-0.465023	172.866216	-76.259181	-37.138328			
45022	9.461774	-0.015240	-2.318025	0.216062	0.168398	-0.075023	174.664410	-75.605636	-38.987253			
45023	9.731620	-0.790012	-2.123880	0.974043	0.432035	0.122249	176.242862	-75.108718	-40.576164			
45024	9.262406	-1.248633	-0.751473	2.169493	-0.196445	-0.692941	177.772430	-74.600099	-42.096930			
45025	8.664939	-2.093729	0.410792	3.477061	-0.372857	-1.602728	178.983808	-73.810487	-43.168124			
45026	9.271587	-1.985120	-2.674441	1.459161	1.376088	-0.167436	-179.763677	-72.825090	-43.728724			
45027	8.981109	-0.114034	-2.176140	0.511147	-0.393388	-0.593638	-178.035573	-71.958573	-44.198361			
45028	9.151611	1.589464	-0.969596	0.321366	-2.594385	-0.847065	-176.884219	-71.163832	-44.455639			
45029	9.400687	1.846278	-1.483450	-0.089695	-2.637962	-0.484550	-175.889124	-70.554657	-45.055348			
45030	8.761823	0.595810	-1.442902	0.647889	-1.674334	-1.095894	-174.879090	-69.994059	-46.008495			
45031	8.959558	-0.794586	-2.972934	0.542072	0.161497	-0.356334	-174.048534	-69.455585	-46.729904			
45032	8.739529	-0.570819	-2.510899	0.697108	-0.327727	-0.734381	-173.092400	-68.895330	-47.164787			
45033	9.198408	0.546879	-2.234030	0.319259	-1.565396	-0.466731	-172.227230	-68.208175	-47.347499			
45034	9.726802	1.425597	-2.512389	-0.257541	-2.326096	0.060350	-171.623338	-67.630102	-47.409429			
45035	9.621402	1.713693	-2.756878	-0.595576	-2.471320	0.018160	-171.081624	-67.165549	-47.581918			
45036	9.200429	1.252494	-2.758857	-0.381864	-2.079783	-0.359861	-170.378555	-66.730654	-47.937223			
45037	8.649008	0.825324	-3.265271	-0.603100	-1.389455	-0.655533	-169.720862	-66.265588	-48.187587			
45038	9.037390	0.963105	-3.332556	-0.602086	-1.672816	-0.297120	-168.975481	-65.722091	-48.359755			
45039	9.759950	0.953573	-2.407130	0.322653	-2.493042	-0.033130	-168.194956	-65.181561	-48.586878			
45040	9.824044	0.478803	-1.460495	1.368494	-2.736822	-0.351693	-167.476016	-64.693472	-48.895949			
45041	9.716336	-0.309662	-1.521791	1.798097	-2.133171	-0.376871	-166.623883	-64.211384	-49.228396			
45042	9.918020	-0.387431	-1.716434	1.778198	-2.126713	-0.128798	-165.586516	-63.727623	-49.468646			
45043	10.471552	0.014951	-1.945386	1.549320	-2.616385	0.394727	-164.508133	-63.242650	-49.704262			
45044	10.703174	-0.080111	-1.834163	1.774807	-2.768330	0.536912	-163.515863	-62.848470	-49.994576			
45045	10.829251	-0.371487	-1.837946	1.982283	-2.656846	0.665859	-162.575144	-62.534617	-50.300837			
45046	10.978938	-0.180085	-1.931111	1.841723	-2.893339	0.795563	-161.616376	-62.324077	-50.591029			
45047	10.836895	0.583156	-1.895222	1.388051	-3.540460	0.526965	-160.619661	-62.241727	-50.910802			
45048	11.424973	2.159946	-1.551426	0.940756	-5.244082	0.637991	-159.694610	-62.298924	-51.352760			
45049	12.835995	2.788877	-0.982520	1.414317	-6.557554	1.523262	-159.041073	-62.309305	-52.011610			
45050	13.742195	0.840679	-1.708405	2.098043	-5.008730	2.953822	-158.529514	-62.298629	-52.610008			
45051	13.770802	0.946114	-0.977988	2.586021	-5.453150	2.639707	-157.848720	-62.324367	-52.900987			
45052	14.355686	2.555430	0.935309	3.385999	-7.826711	2.051896	-157.033781	-62.431922	-53.167905			
45053	14.734663	2.692262	1.905279	4.171579	-8.472341	1.968897	-156.249020	-62.720427	-53.463843			
45054	15.135281	3.240502	3.404601	5.166323	-9.649924	1.648381	-155.594351	-63.138370	-53.722900			
45055	15.652897	2.745766	4.974341	6.760803	-9.997378	1.660642	-155.141039	-63.798392	-54.128409			
45056	15.516775	1.668507	7.218055	8.944310	-9.896696	1.036236	-154.500798	-64.866785	-55.106041			
45057	12.941821	-0.377283	5.852061	8.011040	-6.656837	-0.149418	-153.897246	-66.178515	-56.537863			
45058	11.447735	-2.154790	1.788828	5.054260	-2.823157	0.452457	-153.273292	-67.349010	-58.031601			
45059	13.200586	-2.370107	0.402339	4.168573	-2.477218	2.697839	-151.852967	-68.552028	-59.795177			
45060	13.826116	-0.521035	-1.432444	1.492915	-3.159234	3.650706	-149.571734	-69.988224	-61.627215			
45061	14.512859	0.557444	-3.415379	-0.943862	-3.097979	4.750817	-147.056855	-71.524915	-63.524191			
45062	14.078374	-0.368368	-5.395754	-2.532153	-1.028442	5.018575	-144.464449	-73.060322	-65.305582			
45063	14.117465	-0.618959	-6.020393	-3.254050	-0.300842	5.195291	-142.216700	-74.496043	-66.704844			
45064	14.118347	-1.195691	-5.954911	-3.201747	0.402922	5.213727	-140.171622	-75.924741	-67.864912			
45065	13.979006	-0.393019	-5.705250	-3.627348	-0.125135	4.847949	-138.520930	-77.307816	-68.764439			
45066	13.897237	0.184978	-4.850671	-3.352364	-0.729693	4.502218	-137.070279	-78.676363	-69.836044			
45067	13.149424	0.735709	-4.886832	-3.860924	-0.793615	3.670087	-135.596724	-79.986812	-71.172458			
45068	12.309078	1.390201	-5.214354	-4.649120	-0.815689	2.770930	-134.151357	-81.306722	-72.894895			
45069	11.826397	2.029928	-4.605290	-4.568383	-1.280144	2.131912	-132.189883	-82.670437	-75.652116			
45070	11.852224	2.081740	-3.404653	-3.709076	-1.537825	2.030612	-127.778676	-84.078176	-81.623627			
45071	12.099502	-0.466772	-2.983322	-2.263765	0.813264	2.423159	-119.265314	-85.525080	-92.109364			
45072	10.754619	-1.420955	-2.462996	-1.450804	1.803856	1.067539	-102.715930	-86.753224	-110.234970			
45073	10.744800	-1.186993	-3.666538	-2.682575	2.571141	0.980227	-75.877256	-87.447815	-138.356652			
45074	10.439970	-1.712460	-3.929742	-2.666276	3.466083	0.591008	-41.924109	-87.323496	-173.410596			
45075	10.265121	-1.519035	-4.092132	-2.963977	3.692760	0.286615	-18.235749	-86.506134	162.025274			
45076	10.225401	-0.889877	-3.724920	-3.102512	3.250500	0.138509	-5.042867	-85.302229	148.006227			
45077	10.045780	-0.923259	-3.791616	-3.182710	3.585234	-0.160977	2.135465	-84.021016	139.915202			
45078	10.173456	-1.039460	-4.560333	-3.769722	4.422619	-0.241978	6.372251	-82.707148	134.871338			
45079	9.829167	-0.373382	-4.188943	-3.913543	3.903915	-0.661975	8.619597	-81.332884	131.673606			
45080	9.006894	-1.113707	-4.471887	-3.606292	4.804144	-1.671991	9.764397	-79.963531	129.497985			
45081	8.201217	-1.156609	-4.488087	-3.513353	4.952036	-2.610638	10.445601	-78.666002	127.862383			
45082	7.489153	-1.323095	-4.038875	-2.987388	4.854469	-3.358493	10.878435	-77.434968	126.502845			
45083	6.990258	-1.234299	-3.476879	-2.570832	4.484666	-3.833389	11.145245	-76.320056	125.313066			
45084	6.771450	-1.436558	-3.148861	-2.154122	4.501052	-4.074229	11.293587	-75.285923	124.215145			
45085	6.279774	-1.741424	-2.703311	-1.535554	4.424484	-4.536262	11.416729	-74.344145	123.133954			
45086	5.903638	-1.960865	-3.014690	-1.500902	4.797976	-5.068031	11.629406	-73.465934	122.039075			
45087	5.368906	-2.267035	-3.255095	-1.318059	5.122132	-5.740130	12.095790	-72.667618	120.898785			
45088	5.028244	-2.314277	-3.207391	-1.165142	5.096720	-6.126005	12.871939	-71.948012	119.725317			
45089	4.679237	-2.454437	-3.459290	-1.148280	5.321728	-6.611702	13.801316	-71.299058	118.599778			
45090	4.216919	-2.489829	-3.041101	-0.767289	4.963808	-6.984000	14.934831	-70.742924	117.511359			
45091	4.143687	-2.871039	-2.666104	-0.227406	4.965397	-7.017332	16.299386	-70.368349	116.382815			
45092	4.410310	-2.353471	-2.549902	-0.582398	4.646103	-6.719783	17.926364	-70.116149	115.250512			
45093	4.753435	-1.874947	-1.757786	-0.468226	3.915301	-6.117894	19.578618	-69.986432	114.140266			
45094	4.929635	-1.683213	-1.778192	-0.644476	3.870949	-5.953044	21.177607	-69.944612	113.047019			
45095	5.268143	-1.498346	-0.812721	-0.161749	3.224206	-5.314113	22.779620	-69.965247	111.985679			
45096	5.304605	-1.309704	-0.136244	0.179646	2.674794	-5.049720	24.093051	-69.991574	111.016196			
45097	5.201969	-1.229927	-0.211708	0.105194	2.647810	-5.165536	25.308597	-70.027921	110.129510			
45098	5.334875	-0.358983	0.016351	-0.346529	1.949040	-4.845684	26.445922	-70.108990	109.233765			
45099	6.234028	0.555892	0.659316	-0.612579	1.190688	-3.663403	27.442139	-70.236992	108.308432			
45100	7.387160	0.949091	1.645272	-0.284409	0.647763	-2.218135	28.189312	-70.349461	107.469712			
45101	9.298809	1.384879	3.479031	0.536955	-0.235956	0.194573	28.845805	-70.445915	106.657075			
45102	12.050814	1.674219	5.525357	1.531350	-0.892792	3.431653	29.248608	-70.461614	105.946262			
45103	14.155143	2.165337	7.282482	2.222427	-1.681637	6.008944	29.518105	-70.252230	105.348988			
45104	14.083581	3.508807	9.165570	2.551148	-3.768762	6.738844	29.746423	-69.765805	104.827328			
45105	11.874569	4.260035	10.117401	2.821349	-5.506104	5.128390	30.025613	-69.172212	104.264898			
45106	9.482647	5.267957	11.085215	2.935861	-7.526767	3.426705	30.521180	-68.766348	103.573724			
45107	7.534252	5.162447	11.123408	3.173946	-8.122613	1.636987	30.835865	-68.656202	102.823821			
45108	7.160083	4.435990	10.334382	3.161690	-7.271311	0.905325	31.166227	-68.751643	102.066803			
45109	7.417064	3.328851	9.008688	3.041521	-5.612434	0.507198	31.413950	-68.928844	101.447692			
45110	9.387202	2.329663	7.887465	2.890602	-3.554510	1.796306	31.635411	-69.089780	101.148175			
45111	10.093930	1.701399	5.250940	1.561743	-1.136536	1.528553	31.770110	-69.207599	101.198261			
45112	10.165347	1.311936	2.101847	-0.252049	1.234540	0.574095	31.835363	-69.562840	101.216975			
45113	11.181237	-0.828699	-1.966348	-1.455900	5.641486	-0.033856	32.212210	-70.287404	101.029376			
45114	13.264450	-2.865727	-2.474012	-0.414223	7.846134	1.524866	32.619964	-71.357554	101.005277			
45115	14.904675	-5.908476	-1.603050	2.309207	9.546983	2.960042	32.673970	-72.640204	101.277852			
45116	15.040459	-5.903068	3.434689	5.750399	5.946291	4.485267	32.241590	-73.204981	101.823325			
45117	12.052793	-0.140716	13.362936	8.546661	-5.592961	5.003852	31.479989	-72.892231	102.556992			
45118	12.551353	9.567455	14.549717	2.211600	-12.753246	7.311258	32.102694	-72.825241	101.255373			
45119	19.509984	12.102499	5.628929	-6.144160	-6.181166	12.160816	33.414685	-72.776410	98.913964			
45120	18.680935	5.728711	2.141581	-3.807268	0.215366	9.470329	30.649753	-73.104172	100.047398			
45121	13.701303	-5.894965	-1.365976	2.968063	8.454476	2.188999	24.594440	-73.657521	102.911613			
45122	5.867453	-17.047224	-4.696930	10.742575	14.996850	-7.221321	20.649422	-73.899364	103.907827			
45123	2.076448	-16.534745	-14.759862	5.260503	21.343469	-13.326207	24.513457	-74.062245	100.186725			
45124	-0.820935	-8.858035	-12.021403	0.261617	14.172343	-14.576613	30.345812	-74.645378	96.580207			
45125	0.501177	-2.576931	-7.403775	-2.580871	7.275641	-11.259259	38.431283	-75.738150	91.613852			
45126	4.727321	1.536779	-7.277564	-5.979444	5.347729	-6.168745	52.193442	-76.983562	82.257941			
45127	18.893759	18.023551	-9.395200	-18.192145	-2.363782	10.997646	66.230733	-76.865658	73.445756			
45128	11.664112	26.113785	6.760103	-10.890535	-20.976666	7.652943	63.912264	-76.467853	75.498214			
45129	5.413987	6.333466	-3.534444	-6.489701	-1.112096	-3.602881	64.831007	-77.731100	72.317528			
45130	12.899409	1.127012	-5.886597	-4.223623	5.581457	2.569230	67.070991	-79.775760	68.802717			
45131	12.246045	-4.235033	-4.416981	0.546907	7.938846	1.326396	63.810550	-81.209456	70.404023			
45132	9.053094	-5.665298	-2.623166	2.741839	7.002856	-1.789335	58.662552	-81.629117	73.355325			
45133	8.176518	-5.169038	-1.616281	3.133926	5.689808	-2.464953	57.373119	-82.011683	73.249681			
45134	7.747613	-4.355795	-1.045713	2.943133	4.569303	-2.702821	63.311052	-82.744464	67.652328			
45135	9.020807	-1.562491	-0.863640	1.100283	2.635146	-1.071743	77.240813	-83.266829	55.363278			
45136	9.816027	1.131897	-1.116925	-0.820202	0.879117	0.057865	94.162534	-83.238023	40.670974			
45137	11.256885	7.509819	-3.875549	-6.924934	-1.730741	2.319058	101.161681	-82.940722	34.245880			
45138	8.135597	3.494851	0.645325	-1.140440	-2.411623	-1.345038	106.460225	-83.152529	28.741459			
45139	7.197072	1.680090	0.541862	-0.012647	-1.243010	-2.507474	118.617627	-83.229410	16.160822			
45140	9.913395	0.021198	-3.782060	-1.480228	2.869906	0.293987	132.043934	-82.932314	2.224763			
45141	8.697730	-1.634711	-4.377754	-0.780356	4.256706	-0.938157	138.500597	-82.728511	-4.390375			
45142	8.783456	-0.615287	-0.740312	1.069499	0.818008	-1.079912	143.783570	-82.191990	-9.496585			
45143	9.567989	-0.015991	-0.387368	1.071749	-0.004010	-0.297156	149.780507	-81.439560	-14.892400			
45144	10.145140	0.587887	-0.858658	0.492319	-0.275325	0.369943	154.392589	-80.717534	-18.904330			
45145	10.183490	0.901457	-0.422754	0.656920	-0.946486	0.354210	158.007506	-80.196785	-22.201074			
45146	9.475811	-0.370961	-0.324228	1.537655	-0.184807	-0.451401	161.941538	-79.686876	-25.892076			
45147	9.043241	-1.448081	-1.532789	1.383989	1.330865	-0.727609	165.458728	-79.126157	-28.965154			
45148	8.856998	-0.853364	-2.060503	0.595958	1.152959	-0.771968	168.363043	-78.494091	-31.038113			
45149	9.295238	0.815232	-2.296011	-0.581361	-0.103239	-0.221717	171.128421	-77.741563	-32.691631			
45150	9.824969	2.530156	-2.300602	-1.553385	-1.607886	0.347208	173.318293	-77.064470	-33.898230			
45151	9.418925	2.919897	-1.701543	-1.358688	-2.392522	-0.191647	175.500345	-76.373965	-35.233313			
45152	9.496346	2.887756	-2.474107	-1.816845	-2.061883	0.040508	177.641730	-75.537734	-36.726636			
45153	9.422759	1.995001	-2.798077	-1.441844	-1.311444	0.025867	179.172362	-74.869373	-37.915002			
45154	8.728535	0.953738	-2.101539	-0.355929	-0.925643	-0.838902	-179.620805	-74.222662	-38.997635			
45155	8.697622	-0.163895	-1.994455	0.464361	-0.219232	-0.902672	-178.300627	-73.520816	-40.208370			
45156	8.866605	-0.895269	-2.327097	0.753134	0.405107	-0.642028	-177.012580	-72.831654	-41.328758			
45157	8.829651	-0.479017	-2.217639	0.607734	-0.086812	-0.716960	-175.878498	-72.229337	-42.236370			
45158	8.858669	0.167165	-2.030900	0.388703	-0.812131	-0.767419	-174.735710	-71.635924	-43.148684			
45159	8.959286	0.138303	-1.816382	0.624408	-1.043979	-0.751440	-173.442114	-70.993668	-44.083199			
45160	9.235959	0.515025	-1.337937	0.853466	-1.788318	-0.678648	-172.263313	-70.387759	-44.871023			
45161	9.403516	0.825844	-0.728303	1.197268	-2.518607	-0.764991	-171.235303	-69.845452	-45.660031			
45162	9.453055	0.477178	-0.495350	1.619459	-2.478374	-0.808935	-170.278438	-69.355262	-46.562630			
45163	9.049689	0.044780	-0.894546	1.497827	-1.898615	-1.046260	-169.501322	-68.885056	-47.344759			
45164	8.810625	0.358153	-1.603585	0.734948	-1.776160	-1.058756	-168.813848	-68.364533	-47.930081			
45165	9.417757	1.019961	-2.137471	0.112133	-2.264210	-0.370067	-168.136570	-67.796474	-48.399837			
45166	10.153336	1.578053	-2.010407	0.091171	-3.079814	0.193697	-167.509450	-67.273305	-48.866600			
45167	10.374665	1.502818	-1.650386	0.493367	-3.366491	0.239106	-166.935772	-66.842915	-49.353203			
45168	10.297744	1.117165	-1.044556	1.184038	-3.440540	-0.058568	-166.320789	-66.440985	-49.828789			
45169	10.447964	0.401599	-0.816860	1.843841	-3.118007	0.029372	-165.602000	-66.028399	-50.294028			
45170	10.360097	-0.420516	-0.954882	2.224114	-2.446737	0.060836	-164.729663	-65.621992	-50.771129			
45171	10.289225	-1.074276	-1.161764	2.445839	-1.877020	0.130453	-163.793439	-65.217864	-51.197338			
45172	10.223699	-1.389124	-1.486686	2.368502	-1.517567	0.224774	-162.824737	-64.836297	-51.563602			
45173	10.367008	-0.982279	-1.687742	2.013367	-1.863032	0.373740	-161.970480	-64.537593	-51.854521			
45174	10.497425	-0.486237	-1.906599	1.586596	-2.262381	0.503879	-161.142890	-64.334769	-52.166716			
45175	10.688985	0.256316	-2.010427	1.119302	-2.930817	0.604567	-160.347198	-64.237310	-52.497484			
45176	11.366444	1.026198	-2.103387	0.767979	-3.791665	1.128364	-159.451163	-64.211827	-52.906776			
45177	12.237314	2.180290	-1.533252	0.768239	-5.333705	1.492956	-158.611339	-64.300034	-53.380513			
45178	13.772124	3.404437	-0.331636	1.396774	-7.442570	2.188500	-158.185156	-64.322356	-53.900376			
45179	14.476302	0.617153	-0.300819	3.083890	-5.452706	3.256049	-157.455442	-64.364600	-54.561747			
45180	14.112773	1.616619	1.274231	3.647517	-6.873094	2.139869	-156.466490	-64.512974	-54.924941			
45181	14.676789	2.533863	2.780741	4.463603	-8.478698	1.923950	-155.543741	-64.810528	-55.351249			
45182	15.580731	2.440442	3.264016	5.061025	-8.880344	2.632904	-154.681059	-65.301101	-55.863168			
45183	15.977032	2.216690	3.943786	5.731986	-9.049662	2.875017	-153.774615	-65.931486	-56.430943			
45184	15.134799	2.664096	5.120874	6.155797	-9.549637	1.732401	-152.907098	-66.733916	-57.122595			
45185	14.991543	2.511604	7.834981	8.260038	-10.474786	0.886871	-152.138429	-67.859548	-58.304344			
45186	13.551797	-0.142903	5.904096	7.483021	-6.876526	0.922013	-151.383314	-69.229192	-60.267470			
45187	11.034207	-3.478767	-1.472831	2.529533	0.231053	1.570171	-150.521351	-70.363263	-62.087875			
45188	12.351582	-2.712736	-1.689339	1.932174	-0.521395	2.787346	-148.578535	-71.648188	-63.888514			
45189	12.710795	-0.321914	-1.875904	0.245885	-2.279195	2.833261	-145.981948	-73.174960	-66.153219			
45190	12.565774	-1.206496	-5.117556	-2.287575	0.356177	3.610067	-143.300106	-74.732756	-68.532589			
45191	13.168247	-2.892660	-5.761056	-2.169926	2.194860	4.519782	-140.545640	-76.194671	-70.801620			
45192	13.481344	-3.341776	-5.186961	-1.718390	2.484118	4.702186	-137.720880	-77.596905	-73.059143			
45193	13.452865	-3.100838	-4.376126	-1.418823	2.153896	4.437980	-134.818041	-78.925254	-75.432215			
45194	13.689393	-2.721938	-4.296063	-1.765036	2.011748	4.543225	-131.794312	-80.171136	-78.011284			
45195	14.130476	-2.053401	-3.620603	-1.715264	1.301675	4.759507	-127.960498	-81.402647	-81.539351			
45196	13.434210	-1.091370	-3.593073	-2.386433	0.828385	3.905517	-123.102290	-82.591969	-86.182221			
45197	12.714310	-0.133081	-4.437197	-3.776661	0.745510	3.092123	-117.235907	-83.690659	-91.810688			
45198	12.070849	0.717935	-4.570214	-4.455368	0.377456	2.316132	-109.668244	-84.787167	-99.273704			
45199	11.612275	1.117400	-3.542169	-3.876445	-0.173728	1.744826	-98.106228	-85.806385	-111.038667			
45200	11.272049	0.497711	-2.564329	-2.843831	0.180362	1.401371	-79.837334	-86.541072	-129.815566			
45201	10.965072	0.060341	-3.022818	-3.132402	1.071801	1.068756	-56.620528	-86.800475	-153.772168			
45202	11.179597	0.120578	-2.894054	-3.163801	1.237134	1.224733	-33.200060	-86.483557	-178.285223			
45203	10.805564	-1.375291	-3.293772	-2.783508	3.013431	0.801652	-17.246895	-85.623516	164.563367			
45204	10.237845	-2.667642	-3.693885	-2.428709	4.566851	0.127823	-5.678495	-84.729388	152.374063			
45205	11.149708	-0.476829	-3.123874	-3.277384	2.714185	0.966328	2.558024	-83.673215	143.738230			
45206	10.540519	-0.399229	-2.705691	-2.988549	2.644264	0.319052	7.487570	-82.395647	138.035632			
45207	9.838670	-1.425333	-3.429155	-2.984020	4.080802	-0.591669	10.806923	-81.163716	134.028728			
45208	9.469326	-0.843343	-3.822054	-3.636866	4.012466	-1.114666	12.899080	-79.932563	131.248993			
45209	8.671638	-0.939340	-3.858873	-3.548066	4.213156	-2.026368	14.078369	-78.726877	129.259234			
45210	8.203864	-1.040852	-4.163547	-3.679607	4.589749	-2.663371	14.817027	-77.604654	127.596204			
45211	7.790466	-0.855121	-4.020104	-3.620750	4.466815	-3.140511	15.118997	-76.489653	126.241625			
45212	7.240067	-1.184793	-3.926370	-3.247827	4.728650	-3.785495	15.147396	-75.390351	125.103827			
45213	6.743918	-1.338155	-3.176082	-2.489890	4.427148	-4.195111	14.999914	-74.321852	124.141738			
45214	6.135271	-1.973370	-2.729363	-1.622806	4.603478	-4.796894	14.773449	-73.314603	123.307684			
45215	5.467633	-2.239052	-2.033249	-0.808536	4.283237	-5.335882	14.560139	-72.371171	122.597987			
45216	4.847303	-2.572695	-2.267519	-0.617383	4.578895	-6.083250	14.407943	-71.536800	121.975017			
45217	4.367465	-2.713177	-2.184250	-0.351349	4.541932	-6.579420	14.353951	-70.801741	121.368812			
45218	4.011948	-3.532934	-2.582555	0.041042	5.311354	-7.160435	14.561716	-70.187718	120.773578			
45219	4.030002	-3.336500	-2.808988	-0.240667	5.352497	-7.252189	15.163316	-69.687043	120.110977			
45220	4.072609	-3.591322	-2.355416	0.238109	5.272244	-7.133474	16.243882	-69.285368	119.311044			
45221	4.168444	-3.006385	-1.709281	0.229481	4.504629	-6.814142	17.812580	-68.957481	118.376155			
45222	4.413819	-2.268829	-1.486868	-0.196652	3.951408	-6.467889	19.582706	-68.701719	117.339124			
45223	4.584765	-1.862184	-1.434735	-0.485362	3.712643	-6.273362	21.510451	-68.473132	116.246476			
45224	4.772635	-0.915168	-0.604363	-0.574973	2.612118	-5.710617	23.443215	-68.274613	115.154287			
45225	4.672670	-0.261233	-0.465479	-0.886055	2.046330	-5.671899	25.248106	-68.109796	114.044893			
45226	4.614217	0.435268	0.097580	-0.902039	1.203710	-5.427797	26.829217	-68.058810	112.879226			
45227	4.831483	0.647892	-0.379411	-1.391339	1.416243	-5.344437	28.174793	-68.098529	111.720472			
45228	5.792461	1.277143	0.124349	-1.520492	0.997900	-4.165456	29.481174	-68.286161	110.504780			
45229	7.107293	1.886475	1.735980	-0.837136	0.056730	-2.303910	30.442427	-68.557246	109.399735			
45230	8.717768	1.503248	3.124480	0.307725	0.042796	-0.435874	31.042469	-68.935267	108.418232			
45231	10.734369	1.156328	4.338610	1.260129	0.195965	1.752790	31.375399	-69.330146	107.645844			
45232	12.759843	2.972357	6.838842	1.703962	-2.027335	4.727054	31.321290	-69.616296	107.172631			
45233	13.887755	3.928365	8.087455	1.824698	-3.169301	6.322185	30.872295	-69.680768	106.993113			
45234	13.940583	4.928604	9.996715	2.433488	-5.064941	7.128053	30.314075	-69.501757	107.031026			
45235	12.737606	4.739984	11.256281	3.469479	-6.126146	6.369075	29.700955	-69.380673	107.003079			
45236	11.014373	3.305738	11.879749	4.979087	-6.137193	4.710242	29.281125	-69.383939	106.940375			
45237	9.660643	3.416502	12.199027	5.203090	-6.932011	3.554860	29.101094	-69.537223	106.805157			
45238	9.119420	2.433244	9.923177	4.315415	-5.049052	2.163849	28.871302	-69.803723	106.637644			
45239	8.695209	1.535791	8.624171	4.066559	-3.812053	1.199691	28.748200	-70.102664	106.508617			
45240	8.841363	1.464437	6.907603	2.899216	-2.657905	0.796699	28.499413	-70.323293	106.536406			
45241	9.078564	0.514564	3.352712	1.085092	0.352859	-0.188569	28.251913	-70.566633	106.635774			
45242	9.950382	-0.791417	-0.390715	-0.638154	3.925465	-0.649075	28.235667	-71.121872	106.633163			
45243	14.105670	-2.838914	-3.064129	-1.366346	8.204653	2.320974	28.270468	-72.431078	106.786756			
45244	16.325443	-9.034213	-5.794594	0.963161	14.610106	3.122048	27.278625	-74.013673	108.072228			
45245	11.476931	-12.011955	-3.574951	5.004910	13.685961	-1.070373	26.445468	-74.844389	109.051021			
45246	9.889668	-8.797554	7.856153	10.851606	3.362567	0.572682	25.494283	-74.812606	110.538074			
45247	7.728825	1.761491	16.551556	9.875164	-10.191754	1.822975	26.352255	-74.149176	110.718450			
45248	11.209005	12.925112	10.304185	-2.279857	-13.027791	5.151542	31.592559	-74.024391	106.481517			
45249	22.714914	15.261313	2.800702	-9.768290	-6.670103	15.022251	36.332043	-73.699047	101.468278			
45250	17.196130	2.542759	3.983194	0.087190	0.230214	8.018862	32.003428	-74.248191	103.550338			
45251	10.894118	-10.194724	-1.351309	5.714484	10.599694	-0.902874	24.661632	-75.055724	107.376457			
45252	1.764667	-21.931328	-10.464009	9.547106	22.196530	-12.933822	25.209133	-75.082111	105.730608			
45253	2.613407	-8.241997	-9.034503	-0.101359	12.496644	-10.222306	32.729794	-76.223710	101.414164			
45254	6.011360	-0.641965	-6.847983	-4.652230	6.418491	-5.275905	42.674804	-77.538512	95.084733			
45255	7.577332	2.128773	-6.811293	-6.594675	4.259067	-2.981109	56.462424	-78.544916	85.599386			
45256	12.809985	14.481742	-10.418168	-16.525500	-2.978306	4.335583	68.595097	-78.511144	77.731707			
45257	9.961183	21.029877	1.806748	-9.630311	-16.115519	4.054161	67.834993	-77.978976	78.643863			
45258	4.397397	8.231717	-2.789170	-6.723383	-4.207541	-4.158731	71.174876	-78.925188	73.164521			
45259	11.736461	2.004672	-6.351779	-5.573667	4.108667	1.769629	77.544946	-80.572823	65.364570			
45260	11.465418	-2.727457	-5.376612	-1.833673	6.963949	0.954693	79.423356	-82.060389	62.089381			
45261	8.685624	-4.542445	-3.072019	1.023566	6.432598	-1.870234	77.458374	-82.794280	62.230716			
45262	7.713085	-4.031512	-2.772935	0.979428	5.648875	-2.701912	78.348081	-83.337275	60.093830			
45263	7.870539	-2.781618	-2.319675	0.590901	4.337952	-2.336396	85.992336	-83.768097	52.341925			
45264	9.623046	-0.937882	-1.798270	-0.019133	2.638415	-0.338981	98.879870	-83.753920	40.307912			
45265	11.171351	2.211766	-1.419189	-1.479189	-0.040421	1.567524	109.720813	-83.349265	30.618607			
45266	11.521527	5.575962	-0.964895	-3.094444	-3.004836	2.277097	112.722754	-83.248097	27.602891			
45267	8.409953	2.925896	1.495493	0.160388	-2.793075	-1.228011	118.152016	-83.491667	21.592117			
45268	8.596132	1.047251	0.908800	0.942074	-1.123200	-1.229922	129.021341	-83.498946	9.918418			
45269	9.904394	-1.053231	-2.121257	0.247701	2.267259	0.111976	140.450633	-83.221105	-2.222282			
45270	8.703949	-2.441767	-3.197280	0.302679	3.866314	-1.043277	145.010569	-82.999076	-7.161347			
45271	8.540808	-0.896313	-0.695868	1.151769	0.965980	-1.329025	148.202326	-82.493212	-10.371056			
45272	9.219708	-0.556224	-0.032058	1.578680	0.157415	-0.713538	153.165539	-81.733244	-14.810020			
45273	9.795042	-0.614551	-0.414529	1.516771	0.306878	-0.112429	157.584019	-80.822410	-18.495541			
45274	10.272633	-0.418847	-0.988165	1.140388	0.378753	0.445620	160.698223	-80.019002	-20.912871			
45275	9.684620	-0.269806	-0.515377	1.392332	-0.115598	-0.211807	163.432125	-79.337367	-23.068371			
45276	9.160954	-1.008902	-1.916131	0.777170	1.267530	-0.517494	166.166667	-78.681666	-25.198455			
45277	8.847975	-0.854620	-2.929970	-0.104415	1.685626	-0.606814	168.804127	-78.031234	-26.939763			
45278	9.175074	0.602228	-2.809437	-0.802190	0.295303	-0.236427	171.362468	-77.333717	-28.362703			
45279	9.814601	2.453859	-2.323589	-1.334766	-1.687911	0.341804	173.291733	-76.673546	-29.270787			
45280	10.131768	3.842715	-2.049616	-1.778997	-3.135973	0.609374	174.579861	-76.178405	-29.936255			
45281	9.697617	3.760868	-2.220524	-1.891975	-3.021937	0.207593	175.899447	-75.756090	-31.005143			
45282	9.502283	2.093783	-2.596908	-1.232920	-1.517548	0.066444	177.384852	-75.279236	-32.350822			
45283	9.263347	0.753537	-2.676877	-0.542232	-0.433906	-0.165924	178.553647	-74.817376	-33.297279			
45284	8.944566	0.429938	-1.969899	0.174860	-0.593276	-0.664605	179.509909	-74.326688	-33.961556			
45285	8.862494	0.124725	-1.809691	0.502083	-0.495166	-0.794022	-179.461734	-73.793321	-34.691965			
45286	8.727941	-0.132967	-2.086185	0.439913	-0.192764	-0.850798	-178.481015	-73.284873	-35.434071			
45287	8.672112	-0.117771	-2.366626	0.232300	-0.124514	-0.826573	-177.522562	-72.823364	-36.177935			
45288	8.700118	0.130529	-2.514559	0.015320	-0.336563	-0.761832	-176.535381	-72.368794	-36.945812			
45289	8.858011	0.485930	-2.552697	-0.145065	-0.720646	-0.610742	-175.561000	-71.947295	-37.731961			
45290	8.878265	0.655996	-2.508345	-0.175114	-0.968409	-0.616128	-174.579640	-71.553847	-38.595800			
45291	8.820508	0.431184	-2.267479	0.144691	-0.970623	-0.748187	-173.598259	-71.170147	-39.501248			
45292	8.742831	0.070267	-2.187275	0.405251	-0.774163	-0.842622	-172.598127	-70.748989	-40.422260			
45293	8.570488	-0.316201	-2.382002	0.439978	-0.400078	-0.931649	-171.590116	-70.268349	-41.300785			
45294	8.486418	-0.522968	-2.656446	0.339536	-0.162121	-0.912849	-170.598088	-69.721816	-42.120627			
45295	8.548451	-0.390286	-2.646501	0.322072	-0.387604	-0.869675	-169.709947	-69.144036	-42.851118			
45296	8.749495	-0.024942	-2.302661	0.484931	-1.007003	-0.834578	-168.943644	-68.553216	-43.513573			
45297	9.141062	0.263911	-1.744519	0.914056	-1.713172	-0.707707	-168.266571	-67.969252	-44.100518			
45298	9.607413	0.506467	-1.143681	1.425182	-2.421210	-0.540547	-167.617748	-67.396257	-44.619107			
45299	9.707033	0.446538	-0.946209	1.681419	-2.582364	-0.548532	-166.938753	-66.855314	-45.111293			
45300	9.348608	0.203644	-1.269224	1.493582	-2.212858	-0.761686	-166.223409	-66.339112	-45.570121			
45301	9.291654	0.081664	-1.219291	1.616290	-2.201685	-0.847888	-165.507567	-65.817465	-45.991024			
45302	9.442743	0.141493	-0.999160	1.837035	-2.480217	-0.831772	-164.883235	-65.292027	-46.346282			
45303	9.816785	0.423697	-0.687159	2.081536	-3.048674	-0.680707	-164.379226	-64.785086	-46.587691			
45304	10.290067	0.659227	-0.472550	2.307914	-3.560326	-0.403101	-163.907519	-64.322815	-46.772929			
45305	10.376482	0.491958	-0.915146	2.107428	-3.314612	-0.152327	-163.473312	-63.962146	-46.932286			
45306	10.195626	-0.036796	-1.553247	1.846715	-2.587061	-0.001406	-163.023104	-63.707378	-47.107831			
45307	10.025670	-0.608849	-2.102832	1.662835	-1.858574	0.141567	-162.490712	-63.536409	-47.331143			
45308	9.803952	-0.867895	-2.178076	1.661854	-1.575940	0.004097	-161.836233	-63.422481	-47.583115			
45309	9.822918	-0.367228	-1.936895	1.586521	-2.142122	-0.155034	-161.103527	-63.373944	-47.854902			
45310	10.299452	0.002752	-1.678847	1.725998	-2.753628	0.103741	-160.312892	-63.357499	-48.233161			
45311	10.974657	-0.408537	-2.174154	1.691411	-2.459819	0.977357	-159.362681	-63.447851	-48.663302			
45312	12.303765	0.220828	-0.230934	3.315791	-4.226839	1.260883	-158.363941	-63.594682	-48.936197			
45313	13.180037	0.800703	0.116773	3.543126	-5.149521	1.819024	-157.376337	-63.760856	-49.188043			
45314	13.815246	2.063615	0.595022	3.492853	-6.623668	1.994109	-156.532383	-63.986305	-49.493084			
45315	15.537748	2.715891	1.154880	4.081776	-7.947916	3.237218	-155.823159	-64.390501	-50.036201			
45316	16.006810	2.575548	1.082200	4.106275	-7.904820	3.776753	-155.320389	-64.933377	-50.466889			
45317	16.505959	3.895595	0.782744	3.272044	-9.018613	4.194129	-154.777428	-65.594842	-50.662470			
45318	16.172490	4.686715	1.019366	2.912171	-9.568257	3.771027	-154.111311	-66.475316	-50.968406			
45319	17.106992	4.502441	4.284570	5.850854	-10.738196	3.667883	-153.154729	-67.665615	-51.800940			
45320	16.151908	2.975068	6.110620	7.544447	-9.648757	2.718505	-151.960868	-69.269013	-53.825250			
45321	12.911088	0.930060	0.872384	2.870802	-4.774159	1.903810	-150.975056	-70.696027	-55.939744			
45322	13.033003	1.393318	-1.071241	0.674414	-4.232806	2.619676	-149.588269	-72.205441	-58.098539			
45323	12.345186	2.276248	-3.414739	-2.199052	-3.572359	2.501277	-147.774545	-73.836801	-60.414642			
45324	12.966203	1.825505	-5.297592	-3.824918	-2.216069	3.602384	-146.036143	-75.394505	-62.544118			
45325	13.640536	0.268033	-6.027951	-3.890084	-0.396168	4.580705	-144.351244	-76.824017	-64.440508			
45326	13.577837	-1.054632	-6.071380	-3.513920	1.048661	4.639842	-142.899911	-78.026423	-65.943272			
45327	13.818026	-1.736657	-5.743376	-3.070910	1.699862	4.836898	-141.084660	-79.244793	-68.170079			
45328	13.173730	-3.700453	-4.667062	-1.386511	3.280760	4.198959	-139.008741	-80.603325	-71.052353			
45329	12.851024	-2.552460	-3.867564	-1.459884	2.251445	3.581757	-135.443116	-81.999424	-75.358938			
45330	11.829373	-0.627465	-3.904722	-2.694445	1.064164	2.318762	-130.470405	-83.341612	-81.286905			
45331	11.086132	0.064113	-5.145313	-4.268949	1.503680	1.540164	-124.774811	-84.492547	-87.889626			
45332	11.328611	0.783128	-5.409605	-4.993352	1.305143	1.657677	-116.728322	-85.542574	-96.702354			
45333	11.202485	1.029972	-4.621035	-4.590414	0.967423	1.407534	-102.380371	-86.483699	-111.932814			
45334	11.001456	1.096625	-4.695858	-4.801265	1.294089	1.121060	-79.069162	-87.132530	-136.616346			
45335	11.079315	0.212201	-3.923178	-3.769317	1.906319	1.157011	-49.957440	-86.938398	-167.295602			
45336	10.561398	-0.828449	-4.128184	-3.365687	3.187549	0.568733	-29.534640	-86.143629	170.835351			
45337	10.509805	-0.588672	-3.976255	-3.460338	3.192928	0.406750	-17.406571	-85.132176	157.662594			
45338	10.977592	0.625242	-3.523709	-4.005943	2.267662	0.775821	-10.006498	-83.947449	149.176633			
45339	10.835643	0.394138	-4.645489	-4.766737	3.467796	0.404432	-5.735093	-82.621664	143.634115			
45340	10.190462	-0.596002	-4.762000	-4.172636	4.532102	-0.383072	-3.262722	-81.242523	139.778582			
45341	9.617698	-1.796690	-5.843684	-4.067020	6.347115	-1.266164	-1.329175	-79.960792	136.791482			
45342	9.250847	-0.528409	-5.384337	-4.587928	5.310439	-1.713749	0.468238	-78.768182	134.188627			
45343	8.857725	0.096088	-5.634356	-5.152561	5.212753	-2.296923	1.889179	-77.579586	131.854275			
45344	8.122454	0.204133	-5.880998	-5.273005	5.404946	-3.211239	3.295702	-76.517784	129.602822			
45345	7.771398	1.291929	-5.615813	-5.812558	4.605315	-3.599603	4.831204	-75.564019	127.341045			
45346	7.258675	1.792305	-5.428751	-5.953742	4.210027	-4.138414	6.250022	-74.701464	125.202020			
45347	6.526931	1.514399	-5.284675	-5.497580	4.291671	-4.895599	7.563607	-73.962101	123.134721			
45348	5.989650	1.256971	-5.229879	-5.135385	4.423474	-5.469135	8.800119	-73.381535	121.217293			
45349	5.681585	0.839602	-5.402108	-4.809436	4.856269	-5.881729	9.775693	-72.903938	119.419697			
45350	5.280153	-0.513513	-5.838536	-3.890529	6.012175	-6.503857	10.677618	-72.540867	117.813810			
45351	4.750338	-0.789411	-5.253889	-3.166313	5.674357	-6.885633	11.600658	-72.324936	116.269751			
45352	4.498265	-0.745504	-4.884146	-2.883491	5.343812	-7.024565	12.360937	-72.312187	114.967371			
45353	4.678589	-0.822416	-4.591027	-2.599060	5.252167	-6.762745	12.924184	-72.472647	113.732105			
45354	4.893857	-0.460650	-3.841448	-2.418218	4.545052	-6.289481	13.244446	-72.793902	112.810226			
45355	5.092305	-0.186442	-3.524658	-2.410254	4.209359	-5.957698	13.090008	-73.229933	112.059954			
45356	4.891436	-1.470534	-4.174245	-1.625238	5.386514	-6.369425	12.661549	-73.802755	111.676616			
45357	5.684593	-1.209076	-3.349704	-1.388884	4.773566	-5.309332	11.932425	-74.476114	111.571439			
45358	6.493727	-0.498740	-2.514269	-1.556486	3.872506	-4.216334	10.577569	-75.163546	112.061872			
45359	7.067367	-0.251005	-1.717225	-1.350448	3.167555	-3.401633	8.379972	-75.942236	112.964937			
45360	9.580022	0.438543	-0.529681	-1.544239	2.276395	-0.610455	4.925195	-76.952074	114.475418			
45361	11.765186	0.024874	-0.873585	-1.550713	3.046398	1.478662	-1.342853	-77.827063	117.842074			
45362	12.194785	-2.209566	-1.621231	0.063914	4.557571	1.825280	-9.604825	-78.183693	122.688322			
45363	11.764934	-3.641495	-0.348633	1.889473	3.656056	1.799932	-16.786710	-77.927601	126.024751			
45364	11.675823	-3.929766	2.511448	2.951286	0.818217	2.380950	-22.708702	-77.517790	128.087102			
45365	11.217319	-4.491785	4.504392	3.794676	-1.285794	2.443970	-27.400729	-77.123938	129.218269			
45366	10.034327	-3.635199	6.090718	3.120386	-3.454367	1.559096	-30.791015	-76.866861	129.688260			
45367	8.230055	-1.941440	7.199313	1.572188	-5.298449	-0.180499	-33.708407	-76.893210	130.270972			
45368	7.055903	-1.167149	7.286835	0.720340	-5.825839	-1.459299	-37.197804	-77.314360	131.653992			
45369	7.721655	-2.469761	5.644501	1.594695	-4.180298	-1.005961	-41.861963	-78.075866	134.384942			
45370	9.410983	-4.694871	2.331708	3.347592	-0.814445	0.393558	-46.933312	-78.978456	138.142824			
45371	10.315400	-5.153944	0.033206	3.650155	1.316303	1.045966	-51.453386	-79.873010	142.361138			
45372	11.167478	-4.367051	-1.212295	2.776501	2.406735	1.665493	-55.786519	-80.681654	146.964768			
45373	12.051710	-5.488329	-2.718345	3.767112	3.837052	2.590478	-59.937741	-81.292377	151.530124			
45374	12.842225	-8.530206	-3.652846	6.648012	4.805079	3.742565	-63.604377	-81.712418	155.835612			
45375	12.521827	-10.814280	-4.403648	8.878503	5.618782	3.705364	-66.996611	-82.132859	160.435997			
45376	12.181527	-8.619474	-1.647737	6.835628	2.777036	3.262533	-71.691393	-82.423908	166.979619			
45377	14.159313	-3.298698	7.893226	2.216136	-7.137015	4.946057	-73.955068	-82.410432	170.505336			
45378	12.385921	1.146258	11.819589	-1.519039	-11.547822	2.787449	-71.346362	-82.154192	167.164828			
45379	8.482947	-2.922026	7.823793	2.350507	-7.255327	-0.672925	-70.898795	-81.784677	164.426508			
45380	10.486485	-9.831621	0.701711	8.306428	0.144431	1.938485	-72.287806	-81.673501	163.435177			
45381	12.995117	-10.708686	-1.412559	8.801047	2.112743	4.456857	-73.376784	-81.817397	163.783857			
45382	15.221296	-5.505174	1.194021	3.418982	-0.557474	6.043527	-74.377890	-82.150998	165.048609			
45383	13.400019	-1.534532	0.984660	-0.182880	-0.507777	3.699990	-74.548695	-82.636072	165.298181			
45384	9.543215	-0.026477	-3.124000	-1.137162	3.421503	-0.440806	-74.513974	-83.255323	165.101889			
45385	4.937827	1.503916	-6.400295	-2.097046	6.509298	-5.247756	-75.784942	-84.045778	166.670304			
45386	2.940491	3.374241	-7.173585	-3.789446	7.139586	-7.331633	-81.702952	-85.134188	173.448868			
45387	4.423688	4.165140	-10.959953	-5.002697	10.739760	-5.732602	-97.938147	-86.103325	-168.354795			
45388	4.945204	7.492590	-13.417861	-8.897860	12.593308	-5.036236	-122.252183	-85.607374	-141.849171			
45389	12.006694	6.854669	-3.433943	-7.890464	2.022537	1.874206	-129.880590	-85.154083	-133.511523			
45390	10.274554	1.791420	-2.905808	-2.726976	2.023304	0.467825	-131.009414	-84.642573	-132.971677			
45391	7.791601	-0.555662	-2.701886	-0.264945	2.202729	-1.850562	-127.352229	-84.206918	-136.976500			
45392	7.926724	-0.650086	-0.066007	0.022300	-0.419235	-1.870185	-124.644542	-83.874021	-139.953792			
45393	8.348655	0.085550	-0.131299	-0.801036	-0.469363	-1.514353	-124.770282	-83.479885	-139.892098			
45394	8.816970	1.566800	-1.570271	-2.490632	0.721589	-1.098642	-127.210898	-82.887296	-137.196478			
45395	10.308693	3.995440	-2.365739	-5.140802	1.061656	0.200991	-130.141592	-82.375600	-134.501514			
45396	11.227867	4.450365	-0.942737	-5.573139	-0.518009	0.931192	-131.086212	-81.888633	-134.501249			
45397	11.525112	2.232219	0.008036	-3.416068	-1.344124	1.337798	-131.388358	-81.144372	-135.479511			
45398	12.268477	-0.013108	-0.420545	-1.423239	-0.943937	2.343548	-131.526827	-80.427979	-136.753880			
45399	11.922870	-0.789117	-0.258972	-0.711191	-1.114446	2.065694	-132.264821	-79.983213	-137.612507			
45400	11.700937	-0.352485	-0.441061	-1.184053	-0.967611	1.801610	-133.628660	-79.574121	-137.742673			
45401	11.625353	0.385608	-0.364479	-1.955451	-1.059178	1.610292	-135.003035	-79.222737	-137.799077			
45402	11.301885	1.350755	-0.289257	-2.904683	-1.044861	1.146865	-136.163980	-79.026622	-138.226040			
45403	10.384565	1.728879	-0.135254	-3.187098	-1.007130	0.171012	-137.081866	-78.889231	-139.077070			
45404	9.702949	1.316190	-0.783518	-2.636120	-0.284052	-0.354170	-138.223918	-78.711760	-139.720456			
45405	9.462695	0.749799	-1.740134	-1.919915	0.618030	-0.375271	-139.483253	-78.478442	-140.072808			
45406	9.430693	0.310771	-2.413162	-1.365956	1.186323	-0.242702	-140.692038	-78.194494	-140.272454			
45407	9.441514	-0.499890	-3.135599	-0.435270	1.688897	-0.005444	-141.495268	-77.891576	-140.754720			
45408	9.386123	-1.604918	-3.433452	0.714983	1.687564	0.142427	-141.998780	-77.628369	-141.475070			
45409	9.170555	-2.624911	-3.569470	1.769681	1.537923	0.098568	-142.275497	-77.399839	-142.337511			
45410	8.720394	-3.304881	-3.331643	2.445699	1.122199	-0.282412	-142.558175	-77.214921	-143.138155			
