// General information: 
//  MT Manager version: 2022.0.0 
//  XDA version: 2022.0.0 build 7085 rev 119802 built on 2022-11-08
// Device information: 
//  DeviceId: 00B4938A
//  ProductCode: MTW2-3A7G6
//  Firmware Version: 4.6.0
//  Hardware Version: 2.0.0
// Device settings: 
//  Filter Profile: human(46.1)
//  Option Flags: Orientation Smoother Disabled, Position/Velocity Smoother Disabled, Continuous Zero Rotation Update Disabled, AHS Disabled, ICC Disabled
// Coordinate system: ENU
PacketCounter	Acc_X	Acc_Y	Acc_Z	FreeAcc_E	FreeAcc_N	FreeAcc_U	Roll	Pitch	Yaw	Vel_E	Vel_N	Vel_U
44365	9.286410	-1.476534	3.477953	-0.707452	0.261491	0.184554	-13.347312	-70.395681	-78.287827			
44366	9.337045	-1.601453	3.413240	-0.816494	0.175331	0.222144	-13.563978	-70.315756	-78.151866			
44367	9.335105	-1.670034	3.353819	-0.871991	0.107429	0.207760	-13.757134	-70.207194	-78.038473			
44368	9.262890	-1.713422	3.385130	-0.904081	0.146730	0.155116	-13.936019	-70.091498	-77.931905			
44369	9.069214	-1.704897	3.362570	-0.896230	0.171261	-0.033546	-14.088064	-69.962555	-77.844025			
44370	8.912894	-1.704725	3.357159	-0.894679	0.202698	-0.180724	-14.240705	-69.857444	-77.751673			
44371	8.796709	-1.689591	3.213676	-0.882603	0.090804	-0.337601	-14.382630	-69.748985	-77.675621			
44372	8.669489	-1.705318	3.076115	-0.903016	-0.008701	-0.500593	-14.518399	-69.645950	-77.618353			
44373	8.586211	-1.776918	3.111720	-0.967181	0.039679	-0.559244	-14.661966	-69.533424	-77.562599			
44374	8.583381	-1.840041	3.152109	-1.015968	0.068721	-0.541277	-14.838061	-69.450367	-77.473291			
44375	8.765055	-1.905967	3.050136	-1.059689	-0.097270	-0.398347	-15.043897	-69.377520	-77.343925			
44376	8.901858	-2.018994	3.010983	-1.148744	-0.183863	-0.271619	-15.294038	-69.318885	-77.169383			
44377	8.961406	-2.194156	2.993240	-1.302333	-0.222265	-0.203572	-15.563529	-69.261334	-76.955389			
44378	8.989158	-2.440016	2.837204	-1.536639	-0.373607	-0.205008	-15.840541	-69.233308	-76.700211			
44379	8.918039	-2.482305	2.953656	-1.561434	-0.240798	-0.225129	-16.081047	-69.205381	-76.450960			
44380	8.878296	-2.296345	3.038457	-1.361026	-0.152844	-0.249539	-16.290033	-69.190271	-76.214762			
44381	9.095350	-2.055021	2.939198	-1.095101	-0.330372	-0.102951	-16.489455	-69.151947	-75.975509			
44382	9.188652	-1.786737	2.940833	-0.806220	-0.372537	-0.041124	-16.693397	-69.098339	-75.720047			
44383	9.051896	-1.561583	3.147964	-0.566690	-0.144990	-0.120275	-16.917932	-69.025994	-75.453338			
44384	8.856824	-1.496893	3.283100	-0.495919	0.042686	-0.262034	-17.176184	-68.985747	-75.177046			
44385	8.833899	-1.629428	3.224317	-0.615777	-0.003392	-0.288517	-17.466859	-68.963482	-74.894576			
44386	8.746884	-1.811386	3.356569	-0.780438	0.158512	-0.303669	-17.750642	-68.967757	-74.632957			
44387	8.846222	-1.835587	3.405212	-0.776313	0.174734	-0.190459	-18.016936	-68.973878	-74.383530			
44388	9.013814	-1.726308	3.301250	-0.644276	0.021001	-0.080694	-18.214355	-68.963388	-74.187781			
44389	8.978798	-1.565019	3.241731	-0.480772	-0.031075	-0.151176	-18.297791	-68.898206	-74.074777			
44390	8.837050	-1.362024	3.255831	-0.288026	0.018679	-0.301342	-18.278763	-68.848934	-74.012488			
44391	8.752512	-1.096427	3.575874	-0.015062	0.335525	-0.300449	-18.213061	-68.826735	-73.966173			
44392	8.991352	-0.959600	3.762197	0.149461	0.425117	-0.029216	-18.128255	-68.855402	-73.914648			
44393	9.242298	-0.921098	3.929944	0.213570	0.496358	0.258110	-18.006499	-68.870355	-73.872915			
44394	9.355422	-0.946332	3.787075	0.181715	0.321680	0.317707	-17.815706	-68.850344	-73.858355			
44395	9.145662	-0.895857	3.584687	0.190404	0.192600	0.047449	-17.593564	-68.776796	-73.833001			
44396	8.952192	-0.833902	3.581454	0.223698	0.242004	-0.140287	-17.436704	-68.692882	-73.736747			
44397	8.988923	-0.780335	3.731704	0.283899	0.352742	-0.059215	-17.385108	-68.583116	-73.531793			
44398	9.098366	-0.568904	3.894390	0.513968	0.452159	0.076780	-17.426287	-68.473814	-73.215435			
44399	9.313195	-0.380116	3.908494	0.733506	0.377490	0.260836	-17.551505	-68.367818	-72.808287			
44400	9.396176	-0.254352	3.826905	0.875748	0.267443	0.294714	-17.685296	-68.310056	-72.368781			
44401	9.939802	-0.069168	3.404661	1.120366	-0.312804	0.629682	-17.775159	-68.315577	-71.952552			
44402	10.847478	-0.115614	2.877637	1.175494	-1.109180	1.293610	-17.842182	-68.400594	-71.608393			
44403	10.714321	-0.259586	2.361369	1.012500	-1.539499	1.006042	-17.689199	-68.396133	-71.477572			
44404	10.285165	-0.050219	2.752264	1.165034	-1.020246	0.721251	-17.376413	-68.347157	-71.514682			
44405	9.732381	0.001717	2.668687	1.137123	-0.913088	0.173018	-17.003638	-68.311425	-71.618380			
44406	10.151570	0.217881	2.696829	1.381623	-1.023724	0.551568	-16.667552	-68.370444	-71.708239			
44407	10.187181	0.068205	2.381793	1.216910	-1.331294	0.492795	-16.255639	-68.432020	-71.880699			
44408	9.950171	0.250242	2.497731	1.340994	-1.123508	0.299017	-15.728968	-68.501962	-72.145257			
44409	10.074586	0.125811	2.515773	1.196777	-1.149127	0.438621	-15.167663	-68.605802	-72.483643			
44410	10.114057	0.003071	2.324488	1.043474	-1.339787	0.425153	-14.498856	-68.700647	-72.919004			
44411	10.001640	0.214800	2.335689	1.197961	-1.275667	0.310146	-13.737189	-68.749697	-73.454507			
44412	9.576719	0.214514	2.309976	1.108761	-1.156426	-0.090100	-12.910390	-68.768438	-74.047941			
44413	9.350614	0.203869	2.399756	1.026544	-1.003551	-0.264218	-12.072550	-68.776441	-74.656201			
44414	9.224768	0.257577	2.453827	1.019906	-0.912759	-0.362267	-11.242415	-68.793300	-75.241958			
44415	9.198923	0.439760	2.559137	1.150023	-0.799853	-0.357515	-10.460093	-68.792910	-75.786818			
44416	9.290665	0.440686	2.551758	1.118854	-0.846083	-0.270450	-9.764613	-68.791391	-76.290846			
44417	9.329084	0.274953	2.519170	0.923730	-0.913867	-0.233277	-9.162979	-68.754283	-76.734829			
44418	9.277943	0.049512	2.574772	0.661913	-0.876352	-0.246814	-8.620304	-68.693401	-77.134280			
44419	9.124705	-0.064606	2.448063	0.517990	-0.966789	-0.428959	-8.151031	-68.618884	-77.467648			
44420	8.993840	-0.108894	2.222175	0.457098	-1.149977	-0.630768	-7.757214	-68.546788	-77.728809			
44421	8.890245	-0.177965	2.147847	0.369867	-1.202868	-0.751912	-7.459853	-68.481136	-77.906571			
44422	8.932017	-0.368677	2.121609	0.174621	-1.269488	-0.714557	-7.245267	-68.443462	-77.987257			
44423	8.969929	-0.415938	2.185011	0.119945	-1.236265	-0.654950	-7.102799	-68.411790	-77.978118			
44424	9.052916	-0.452056	2.054120	0.098203	-1.395524	-0.624547	-7.044056	-68.392538	-77.876157			
44425	9.089496	-0.309349	2.013957	0.248927	-1.437183	-0.612514	-7.027188	-68.351793	-77.708743			
44426	9.196837	-0.173350	1.934707	0.406291	-1.540179	-0.548902	-7.094722	-68.313116	-77.457730			
44427	9.241320	-0.279098	2.058549	0.307111	-1.457448	-0.458595	-7.219892	-68.262166	-77.151042			
44428	9.228852	-0.301693	2.196982	0.287175	-1.331093	-0.419330	-7.368821	-68.221201	-76.775527			
44429	9.192525	-0.322935	2.261747	0.274925	-1.264520	-0.429315	-7.573624	-68.169474	-76.356789			
44430	9.374719	-0.361340	2.312497	0.268668	-1.291067	-0.240619	-7.814257	-68.122175	-75.902360			
44431	9.524597	-0.348415	2.150373	0.333080	-1.498968	-0.163566	-8.068003	-68.047230	-75.440074			
44432	9.546254	-0.346589	2.098219	0.367397	-1.563679	-0.165229	-8.329248	-67.941670	-74.976862			
44433	9.650612	-0.533860	2.009609	0.227785	-1.721949	-0.094623	-8.581906	-67.804091	-74.546562			
44434	9.794442	-0.542518	1.921857	0.269075	-1.877404	0.001679	-8.739839	-67.627798	-74.170203			
44435	9.868507	-0.305705	1.991717	0.528490	-1.836060	0.076563	-8.842804	-67.425068	-73.836441			
44436	9.718895	-0.324414	2.183288	0.497067	-1.639369	0.005365	-8.928895	-67.191177	-73.536648			
44437	9.424419	-0.319576	2.372590	0.470833	-1.391040	-0.200499	-8.996666	-66.951383	-73.254688			
44438	9.351967	-0.216344	2.332450	0.590291	-1.417989	-0.294959	-9.085927	-66.737275	-72.955217			
44439	9.115426	-0.055112	2.252927	0.753055	-1.409108	-0.559747	-9.178735	-66.490050	-72.660748			
44440	8.869335	-0.016121	2.366482	0.771682	-1.238292	-0.749762	-9.306793	-66.248574	-72.374126			
44441	8.846766	-0.225138	2.407954	0.580544	-1.256038	-0.746298	-9.435583	-66.020954	-72.101193			
44442	8.968330	-0.203537	2.378453	0.641497	-1.355207	-0.654019	-9.525888	-65.814128	-71.862422			
44443	8.985999	-0.284151	2.424472	0.577623	-1.362278	-0.619351	-9.597375	-65.603718	-71.660028			
44444	8.783092	-0.465159	2.513837	0.379242	-1.260213	-0.760262	-9.648121	-65.406109	-71.483287			
44445	8.865317	-0.446598	2.514991	0.422943	-1.312949	-0.690424	-9.689663	-65.254603	-71.298563			
44446	9.101921	-0.266165	2.383020	0.662212	-1.513184	-0.546280	-9.730605	-65.132749	-71.112375			
44447	9.254151	0.010250	2.336485	0.972645	-1.583368	-0.450772	-9.754872	-65.015384	-70.953284			
44448	9.386589	0.596848	2.376154	1.572275	-1.511417	-0.359966	-9.752468	-64.902207	-70.813003			
44449	9.628149	1.404561	2.482245	2.392802	-1.382348	-0.158715	-9.727539	-64.787187	-70.723695			
44450	9.717448	1.981051	2.529827	2.970750	-1.284246	-0.102964	-9.717182	-64.698820	-70.691629			
44451	9.869385	2.339559	2.138547	3.397474	-1.638794	-0.157471	-9.667387	-64.693935	-70.750286			
44452	10.633033	2.461558	1.872374	3.652409	-2.163705	0.414957	-9.586147	-64.757476	-70.926173			
44453	11.369342	2.339543	2.206824	3.569957	-2.182511	1.237084	-9.373460	-64.829854	-71.278266			
44454	11.636888	2.043409	3.457290	3.119026	-1.226879	2.032643	-9.064151	-64.889952	-71.834105			
44455	11.761294	0.779973	4.363892	1.733083	-0.688975	2.617174	-8.606938	-64.983339	-72.658861			
44456	11.765964	-1.415973	3.909232	-0.439919	-1.454076	2.573451	-7.872182	-65.174868	-73.757959			
44457	12.291343	-3.014626	2.143597	-1.851358	-3.479815	2.402955	-6.753891	-65.429682	-75.101629			
44458	12.413598	-2.789600	0.681463	-1.573549	-4.799229	1.884899	-5.352196	-65.534496	-76.512914			
44459	11.620656	-1.602844	1.709974	-0.719964	-3.398621	1.521451	-3.991201	-65.426444	-77.750549			
44460	11.158969	-1.113921	4.248262	-0.685073	-0.890160	2.126693	-3.007296	-65.344387	-78.606371			
44461	12.002000	-0.529136	6.193881	-0.358738	0.588902	3.686065	-2.383802	-65.414907	-79.052580			
44462	12.774341	0.207767	6.771980	0.305666	0.919882	4.614610	-2.131306	-65.529661	-79.163807			
44463	12.533636	0.084102	6.344155	0.206015	0.630799	4.219670	-2.171715	-65.568320	-79.039450			
44464	11.487752	0.161545	6.364719	0.202981	1.094368	3.274151	-2.307769	-65.583180	-78.770828			
44465	10.329989	0.631545	6.396927	0.574949	1.682912	2.223316	-2.461212	-65.681334	-78.424963			
44466	9.246908	0.775075	6.205170	0.657097	2.001446	1.149635	-2.656992	-65.850993	-78.070753			
44467	8.608657	0.794492	6.348079	0.602520	2.427605	0.617167	-2.845202	-66.052159	-77.746473			
44468	8.204376	0.825366	6.555706	0.568346	2.821203	0.320818	-3.028850	-66.269063	-77.501330			
44469	7.922671	0.717590	6.453671	0.452635	2.860886	0.012985	-3.154910	-66.485034	-77.385593			
44470	7.496906	0.857545	6.378537	0.565120	3.013222	-0.419829	-3.173536	-66.636275	-77.448319			
44471	6.994989	0.862122	6.007216	0.579492	2.890001	-1.033630	-3.073612	-66.746321	-77.717179			
44472	6.885159	0.663292	5.536225	0.439737	2.484892	-1.319921	-2.867706	-66.860160	-78.171151			
44473	7.367156	0.400941	5.138104	0.266424	1.909665	-1.031001	-2.548857	-67.004839	-78.777237			
44474	8.026870	-0.025179	4.918834	-0.091588	1.406288	-0.504620	-2.117744	-67.114697	-79.514702			
44475	8.266085	-0.326218	4.711344	-0.372023	1.090948	-0.362678	-1.573075	-67.189175	-80.287451			
44476	8.671050	-0.359373	4.571529	-0.393319	0.814421	-0.045547	-1.030883	-67.292250	-80.993372			
44477	9.100189	-0.462761	4.314939	-0.470226	0.417371	0.249662	-0.609464	-67.416649	-81.563590			
44478	9.396486	-0.579755	4.054320	-0.562757	0.070803	0.421851	-0.327436	-67.545804	-81.966790			
44479	9.384689	-0.732537	4.199843	-0.748157	0.201995	0.465791	-0.215587	-67.583263	-82.198019			
44480	8.751884	-0.910511	4.393259	-0.983292	0.597742	-0.045340	-0.232525	-67.559798	-82.284285			
44481	7.713487	-1.055107	4.417286	-1.177483	0.989256	-0.994612	-0.340557	-67.506660	-82.242851			
44482	7.419574	-1.366552	4.588433	-1.506737	1.217670	-1.197686	-0.663184	-67.508959	-82.078472			
44483	7.371363	-1.819333	4.384523	-1.909962	1.000697	-1.314360	-1.136088	-67.534768	-81.809366			
44484	7.641858	-1.766894	4.296318	-1.800357	0.840861	-1.093182	-1.740256	-67.589624	-81.450013			
44485	7.639598	-1.661251	3.927365	-1.619659	0.534216	-1.231395	-2.378975	-67.639415	-81.048397			
44486	7.395096	-1.528655	3.700195	-1.443382	0.450752	-1.540504	-3.002540	-67.681698	-80.679683			
44487	7.371104	-1.335870	3.366862	-1.189267	0.191855	-1.688512	-3.560362	-67.745957	-80.345659			
44488	7.334772	-1.119682	3.005432	-0.918150	-0.084476	-1.860644	-4.006135	-67.841995	-80.094171			
44489	7.462223	-0.848792	3.062954	-0.627652	-0.028860	-1.726152	-4.373201	-67.967234	-79.892469			
44490	7.558370	-0.666627	3.148853	-0.433680	0.060013	-1.609220	-4.680033	-68.142922	-79.761272			
44491	7.603233	-0.522358	2.993658	-0.264781	-0.053829	-1.629113	-4.929089	-68.365687	-79.675128			
44492	7.832193	-0.440730	2.894730	-0.155572	-0.185194	-1.454557	-5.099968	-68.598297	-79.687736			
44493	8.001671	-0.563532	2.685357	-0.250538	-0.421237	-1.367857	-5.158972	-68.776192	-79.820427			
44494	7.952877	-0.922113	2.615787	-0.610411	-0.478985	-1.425863	-5.105794	-68.891225	-80.091398			
44495	7.933695	-1.308677	2.424384	-0.993053	-0.668153	-1.499976	-4.941009	-68.985112	-80.468324			
44496	8.080017	-1.399900	2.356349	-1.086553	-0.775109	-1.385509	-4.679551	-69.078379	-80.930814			
44497	8.189419	-1.027434	2.361104	-0.730156	-0.766625	-1.293525	-4.331331	-69.145444	-81.443166			
44498	8.414235	-0.713342	2.311583	-0.424883	-0.860124	-1.110318	-3.974441	-69.180933	-82.008482			
44499	8.512116	-0.534122	2.121394	-0.253705	-1.056457	-1.091381	-3.602197	-69.195819	-82.592002			
44500	8.709168	-0.435412	1.961273	-0.162952	-1.269590	-0.966936	-3.197139	-69.186021	-83.218035			
44501	8.622652	-0.549089	1.661862	-0.291713	-1.534335	-1.153932	-2.738066	-69.113000	-83.865261			
44502	8.525785	-0.483470	1.864136	-0.270796	-1.320781	-1.176724	-2.220370	-69.025100	-84.561490			
44503	8.683227	-0.622201	2.040597	-0.445248	-1.234358	-0.968050	-1.673905	-68.951161	-85.290282			
44504	9.148821	-1.022718	2.166468	-0.873082	-1.314705	-0.488009	-1.119893	-68.905578	-86.053979			
44505	9.183224	-1.516291	1.811091	-1.388607	-1.691520	-0.586574	-0.517748	-68.817977	-86.859086			
44506	9.256401	-1.746881	1.798170	-1.658830	-1.751414	-0.531167	0.109542	-68.720497	-87.659256			
44507	9.448375	-2.206342	1.896459	-2.160944	-1.761930	-0.327855	0.699693	-68.593184	-88.421995			
44508	9.506077	-2.798240	1.976535	-2.795890	-1.746115	-0.260921	1.310210	-68.470170	-89.119347			
44509	9.329118	-2.868276	2.332966	-2.917955	-1.367703	-0.309163	1.864232	-68.361391	-89.691007			
44510	9.053186	-2.611888	2.445360	-2.697746	-1.164011	-0.532111	2.315772	-68.307633	-90.132669			
44511	9.026931	-1.826747	2.398245	-1.934609	-1.168911	-0.567961	2.647656	-68.377912	-90.416643			
44512	9.131666	-1.056615	2.387130	-1.178157	-1.172030	-0.461731	2.759057	-68.532785	-90.552618			
44513	9.348693	-0.309184	2.243864	-0.428312	-1.327287	-0.295160	2.690627	-68.748235	-90.542488			
44514	9.558708	0.210195	2.175523	0.100731	-1.414598	-0.110387	2.426909	-68.946135	-90.423492			
44515	9.759825	-0.319221	1.920544	-0.402787	-1.707295	-0.016395	1.996876	-69.146950	-90.217301			
44516	9.888290	-1.235367	1.811110	-1.294593	-1.843824	0.061962	1.565687	-69.357300	-89.988051			
44517	10.162837	-1.974695	2.010651	-2.019268	-1.734751	0.392137	1.213688	-69.539660	-89.765731			
44518	10.675676	-2.137917	2.654933	-2.181044	-1.287689	1.104010	0.975983	-69.625529	-89.568767			
44519	11.389533	-1.897401	3.903236	-1.954102	-0.355247	2.212790	0.788059	-69.600006	-89.349585			
44520	12.231604	-1.087932	5.133041	-1.156273	0.522455	3.436233	0.559329	-69.635543	-88.984054			
44521	13.557723	0.455476	5.829244	0.408577	0.800910	4.924688	-0.021210	-69.960683	-88.261215			
44522	15.531315	1.653723	5.933353	1.702120	0.376460	6.804154	-1.207725	-70.450084	-87.040178			
44523	16.963364	2.176181	6.346767	2.383654	0.433876	8.267664	-3.007588	-70.758798	-85.338817			
44524	15.949334	1.733316	7.384336	2.090133	1.793966	7.632167	-5.178821	-70.751581	-83.438987			
44525	13.623029	-0.005585	7.163635	0.484166	2.303788	5.397809	-7.400190	-70.666139	-81.642229			
44526	11.699371	-1.645936	5.792430	-1.057118	1.607580	3.203956	-9.252134	-70.615398	-80.191941			
44527	10.257393	-2.613677	5.063217	-1.982234	1.388460	1.668763	-10.588527	-70.565194	-79.237074			
44528	9.152480	-3.500909	5.106901	-2.854677	1.795941	0.710131	-11.490219	-70.512446	-78.712882			
44529	8.631827	-3.898540	5.085795	-3.233412	1.960157	0.250863	-12.017446	-70.501656	-78.432645			
44530	8.814418	-3.350805	5.063249	-2.650943	1.892443	0.382875	-12.206257	-70.519352	-78.266543			
44531	8.997945	-2.877356	5.272899	-2.159598	2.031827	0.591805	-12.193370	-70.513788	-78.123524			
44532	8.953522	-2.240250	5.239395	-1.539399	2.008224	0.494241	-12.084463	-70.491452	-77.901547			
44533	9.026263	-1.544526	5.219760	-0.854931	1.959493	0.508859	-12.072741	-70.438059	-77.515672			
44534	8.614633	-1.191367	5.141226	-0.538192	2.007516	0.073851	-12.264331	-70.310279	-76.945056			
44535	7.835336	-0.765846	5.156662	-0.166044	2.267032	-0.680157	-12.682544	-70.149215	-76.147856			
44536	7.358675	-0.113232	4.742978	0.463103	2.042363	-1.311334	-13.279866	-70.034561	-75.150219			
44537	7.547714	0.327867	4.203143	0.948233	1.487618	-1.349255	-13.986344	-69.939208	-74.045180			
44538	7.428705	0.576829	3.998373	1.215003	1.347261	-1.553513	-14.628731	-69.808314	-73.043901			
44539	7.783629	0.567588	4.014393	1.269606	1.246547	-1.218705	-15.282765	-69.726773	-72.153647			
44540	8.371349	0.102710	3.859782	0.903218	0.885379	-0.680974	-15.846195	-69.700334	-71.484925			
44541	8.561764	-0.487358	3.776862	0.363788	0.709256	-0.476168	-16.136139	-69.634718	-71.139176			
44542	8.262512	-0.513613	3.782123	0.315576	0.801858	-0.752070	-16.163033	-69.533270	-71.043418			
44543	8.006998	-0.341312	3.639207	0.463542	0.748973	-1.055034	-16.053457	-69.446930	-71.053774			
44544	7.816760	0.024564	3.745176	0.796148	0.926305	-1.231500	-15.881270	-69.405953	-71.077486			
44545	7.294065	0.325169	3.732731	1.024512	1.104559	-1.752122	-15.660766	-69.385100	-71.082130			
44546	7.164608	0.748684	3.801035	1.411146	1.244491	-1.888050	-15.387530	-69.410900	-71.070336			
44547	7.076836	1.036064	3.653978	1.670707	1.162764	-2.043308	-14.995393	-69.425322	-71.141342			
44548	7.225479	1.147451	3.619580	1.773494	1.093231	-1.920600	-14.501517	-69.429179	-71.331678			
44549	7.584606	1.183716	3.735537	1.814708	1.085077	-1.541592	-13.958174	-69.423793	-71.611415			
44550	7.881244	1.041724	3.703419	1.678651	0.942228	-1.256475	-13.450309	-69.448763	-71.906977			
44551	8.376991	0.970996	3.606338	1.640868	0.680470	-0.814525	-13.022609	-69.488660	-72.165349			
44552	8.639050	0.911371	3.560675	1.590139	0.546491	-0.576077	-12.706303	-69.513065	-72.363962			
44553	8.784791	0.469115	3.484268	1.157125	0.381685	-0.429292	-12.518351	-69.512560	-72.473922			
44554	8.849961	0.372764	3.314715	1.071858	0.190405	-0.417850	-12.420504	-69.512058	-72.484180			
44555	8.715191	0.325137	3.178429	1.016979	0.102028	-0.586744	-12.401917	-69.499509	-72.429694			
44556	8.815997	0.370190	3.377581	1.060492	0.257469	-0.427808	-12.471434	-69.464019	-72.330131			
44557	9.052122	0.202647	3.603545	0.912652	0.364162	-0.117228	-12.616231	-69.369102	-72.231882			
44558	9.196733	0.095905	3.817440	0.823553	0.485993	0.099297	-12.789484	-69.203527	-72.134441			
44559	9.049346	-0.121323	3.617634	0.627388	0.297676	-0.091047	-12.991599	-68.985465	-72.051017			
44560	8.666018	-0.371476	3.327221	0.379449	0.099253	-0.530754	-13.189593	-68.752781	-71.973639			
44561	8.243667	-0.387091	3.088074	0.353264	-0.011232	-1.008196	-13.369759	-68.535548	-71.889508			
44562	8.210119	-0.282394	3.087843	0.471189	-0.013304	-1.049222	-13.535463	-68.386965	-71.747209			
44563	8.142520	0.155542	2.904294	0.923158	-0.132718	-1.216765	-13.688450	-68.287430	-71.555677			
44564	8.625969	0.204939	2.893326	1.043051	-0.312374	-0.777472	-13.925539	-68.262158	-71.312739			
44565	8.997874	-0.212186	2.759465	0.697490	-0.610836	-0.444562	-14.158204	-68.202657	-71.086415			
44566	9.138447	-0.183833	3.035780	0.744996	-0.409478	-0.219032	-14.419631	-68.080706	-70.881277			
44567	8.907307	-0.466404	2.984669	0.464262	-0.420732	-0.427952	-14.750303	-67.916425	-70.692331			
44568	8.707998	-0.665904	2.884574	0.275442	-0.485038	-0.632155	-15.080811	-67.706413	-70.534895			
44569	8.209312	-0.753211	2.542937	0.171106	-0.660202	-1.212607	-15.361527	-67.462139	-70.414305			
44570	7.799412	-0.596131	2.333145	0.308569	-0.722305	-1.687867	-15.585581	-67.204550	-70.296965			
44571	7.346071	-0.503228	1.966120	0.380379	-0.916685	-2.256330	-15.829171	-66.969692	-70.133970			
44572	7.063417	-0.661972	1.591659	0.224249	-1.196962	-2.644678	-16.123813	-66.744805	-69.888340			
44573	6.953610	-0.712005	1.689738	0.179513	-1.090228	-2.706777	-16.468702	-66.536038	-69.559583			
44574	7.344621	-0.916032	1.974560	0.047558	-1.007346	-2.218982	-16.896823	-66.366463	-69.138636			
44575	8.035850	-0.967325	2.391159	0.110678	-0.896960	-1.421540	-17.392778	-66.235125	-68.657739			
44576	9.050208	-0.786206	2.915540	0.454761	-0.778523	-0.314702	-17.962982	-66.174175	-68.121062			
44577	10.216462	-0.950767	3.271270	0.494953	-0.893733	0.908197	-18.549815	-66.156993	-67.589717			
44578	10.856206	-1.198637	2.930923	0.400377	-1.460203	1.394081	-18.994470	-66.111322	-67.179274			
44579	11.003215	-1.125684	2.731232	0.534116	-1.695034	1.440714	-19.257675	-66.011432	-66.929298			
44580	10.880449	-1.081114	2.576053	0.585867	-1.800569	1.259968	-19.367371	-65.905481	-66.809204			
44581	10.875373	-0.803655	2.226375	0.882205	-2.109884	1.079807	-19.347534	-65.825488	-66.777839			
44582	10.815506	-0.177949	1.660895	1.513205	-2.561949	0.718791	-19.261450	-65.765058	-66.797198			
44583	10.608243	0.387653	1.566083	2.041529	-2.528300	0.413629	-19.213575	-65.707882	-66.851029			
44584	10.624724	0.882823	2.052706	2.514834	-2.050243	0.548289	-19.176521	-65.661033	-66.934613			
44585	10.697267	1.204579	3.176965	2.803139	-1.026635	1.006926	-19.117389	-65.601101	-67.091767			
44586	10.840648	0.731575	4.228982	2.322535	-0.174495	1.611607	-19.049729	-65.560621	-67.340704			
44587	10.840021	-0.383273	4.593359	1.202371	0.055101	1.904955	-18.936720	-65.642482	-67.709938			
44588	11.429448	-1.779933	4.301701	-0.107213	-0.536133	2.516377	-18.625670	-65.873106	-68.244933			
44589	12.125298	-2.770990	5.345089	-1.070311	0.115934	3.682185	-17.940137	-66.115861	-69.056190			
44590	12.194727	-3.672630	6.831281	-2.083852	1.422677	4.417504	-16.952701	-66.377436	-70.059739			
44591	12.557694	-4.180117	8.674723	-2.715874	2.989570	5.487773	-15.773784	-66.748018	-71.093942			
44592	13.172170	-3.895874	8.920322	-2.537601	3.055315	6.076873	-14.323491	-67.142776	-72.190673			
44593	13.200446	-2.634337	7.578484	-1.426215	1.923909	5.447926	-12.676907	-67.368546	-73.363907			
44594	11.500041	-0.980112	6.608921	-0.092175	1.772500	3.368256	-11.113986	-67.351648	-74.448668			
44595	9.057922	0.119910	6.117615	0.657577	2.284718	0.856536	-9.892814	-67.242314	-75.207739			
44596	8.405443	1.243378	6.389053	1.606051	2.870732	0.296539	-9.059339	-67.265265	-75.586112			
44597	8.534454	2.249009	6.917094	2.509334	3.427770	0.564904	-8.535069	-67.381634	-75.739394			
44598	8.564909	2.523698	7.334755	2.701986	3.860174	0.738306	-8.262177	-67.535210	-75.814900			
44599	8.250833	2.354140	7.037787	2.499538	3.711962	0.342223	-8.056208	-67.701426	-75.979661			
44600	7.658412	2.087541	5.821324	2.268959	2.797872	-0.651867	-7.858857	-67.851434	-76.303784			
44601	7.255773	1.455592	4.548268	1.705589	1.707571	-1.468414	-7.675278	-67.946225	-76.745974			
44602	7.206137	0.602642	3.992447	0.894136	1.122578	-1.678097	-7.489908	-68.000167	-77.224685			
44603	7.238685	-0.413275	4.104779	-0.129063	1.114770	-1.556830	-7.230474	-68.061529	-77.742656			
44604	7.929552	-1.084252	4.451758	-0.781895	1.131633	-0.758433	-6.883795	-68.194115	-78.239207			
44605	8.534430	-1.237415	4.516664	-0.918823	0.980004	-0.170947	-6.468025	-68.381265	-78.695340			
44606	8.891411	-1.081560	4.158122	-0.744335	0.560790	0.018297	-6.039929	-68.584170	-79.090812			
44607	9.062161	0.283739	3.845898	0.613962	0.361167	0.010075	-5.559486	-68.748478	-79.411677			
44608	8.600446	-0.668699	4.364434	-0.426253	0.940402	-0.200351	-5.415492	-68.878648	-79.677462			
44609	7.639856	-4.025935	3.541983	-3.774517	0.231977	-1.279204	-5.441768	-68.987261	-79.842915			
44610	7.580570	-1.803095	3.717693	-1.587251	0.633644	-1.350033	-5.199898	-69.123183	-79.864335			
44611	7.879086	-0.245754	3.788413	-0.034423	0.754780	-1.099390	-5.219207	-69.269832	-79.871927			
44612	7.675339	-1.702195	3.872840	-1.499889	0.793181	-1.214528	-5.402685	-69.376964	-79.831049			
44613	7.513135	-1.583941	4.425496	-1.427682	1.396041	-1.178231	-5.483969	-69.507747	-79.731538			
44614	7.418305	-1.740416	3.641306	-1.528161	0.705371	-1.537029	-5.720919	-69.664946	-79.603753			
44615	7.402307	-2.230022	2.769192	-1.945800	-0.122487	-1.835572	-6.012547	-69.803217	-79.422432			
44616	7.384988	-2.199303	2.896375	-1.916844	0.028824	-1.807139	-6.229232	-69.961662	-79.177221			
44617	7.407667	-1.702829	2.894254	-1.416820	0.083447	-1.804224	-6.378797	-70.131185	-78.875732			
44618	7.706454	-1.353485	3.022781	-1.056629	0.158360	-1.493013	-6.536167	-70.315960	-78.544836			
44619	8.117421	-1.128344	3.233069	-0.820122	0.266055	-1.044850	-6.658344	-70.501415	-78.220445			
44620	8.451413	-0.858267	3.264161	-0.532287	0.239680	-0.731008	-6.758535	-70.690606	-77.949719			
44621	8.837219	-0.677040	3.096162	-0.314540	0.003496	-0.429617	-6.812706	-70.873707	-77.777060			
44622	8.942082	-0.773948	2.686666	-0.374659	-0.401424	-0.459802	-6.760102	-70.997431	-77.739900			
44623	8.795301	-0.607202	2.745189	-0.232855	-0.270725	-0.585849	-6.565114	-71.048367	-77.832793			
44624	8.552758	-0.529704	2.678937	-0.179033	-0.244909	-0.839678	-6.303808	-71.071603	-77.993294			
44625	8.352854	-0.397494	2.642255	-0.072433	-0.203055	-1.045522	-5.978967	-71.082045	-78.183640			
44626	8.533893	-0.453123	2.671706	-0.135687	-0.240817	-0.863149	-5.593210	-71.092034	-78.435982			
44627	8.886399	-0.585340	2.398028	-0.239676	-0.630978	-0.614556	-5.100415	-71.070871	-78.780408			
44628	9.232972	-0.392460	2.405587	-0.051610	-0.727188	-0.291286	-4.522956	-70.981961	-79.202626			
44629	9.455253	-0.518367	2.341725	-0.181339	-0.900167	-0.101309	-3.984605	-70.812757	-79.636255			
44630	9.703037	-0.666600	2.260514	-0.326347	-1.108431	0.105375	-3.545716	-70.627350	-80.019716			
44631	9.979717	-0.599567	1.819593	-0.213989	-1.639764	0.213799	-3.247933	-70.449781	-80.308490			
44632	10.364610	-0.913612	1.312088	-0.461335	-2.311295	0.406236	-3.078211	-70.272960	-80.507830			
44633	10.493649	-1.649829	1.152760	-1.174156	-2.623215	0.478446	-2.936386	-70.064805	-80.669854			
44634	9.506498	-1.969192	1.413714	-1.576450	-2.127185	-0.366023	-2.671764	-69.789536	-80.830565			
44635	8.679019	-1.989488	1.934372	-1.701453	-1.405380	-0.972152	-2.361890	-69.599600	-80.916900			
44636	8.463233	-2.180017	2.153953	-1.934539	-1.182263	-1.101888	-1.997944	-69.500957	-80.947252			
44637	7.941936	-2.019200	1.982892	-1.794719	-1.167647	-1.658002	-1.596965	-69.432635	-80.937093			
44638	7.833716	-1.583710	2.515972	-1.443774	-0.597573	-1.580813	-1.286564	-69.407035	-80.871197			
44639	7.811090	-0.918033	2.523877	-0.795089	-0.503470	-1.606579	-1.103640	-69.373899	-80.732776			
44640	7.665360	-0.569176	2.051269	-0.398188	-0.849305	-1.912717	-1.023635	-69.342588	-80.525613			
44641	8.257216	-0.748394	2.199104	-0.556818	-0.948552	-1.305751	-1.110064	-69.349917	-80.240484			
44642	8.816667	-0.883466	2.385865	-0.674011	-0.989364	-0.714702	-1.251214	-69.371188	-79.927992			
44643	8.893097	-0.517819	2.632748	-0.332646	-0.728701	-0.558229	-1.403286	-69.381238	-79.598550			
44644	8.621217	-0.338864	2.464620	-0.139306	-0.757792	-0.872839	-1.536370	-69.412019	-79.296501			
44645	8.305986	-0.241779	2.382711	-0.043505	-0.699520	-1.196776	-1.705843	-69.492139	-78.999622			
44646	8.229316	-0.681186	2.139618	-0.437603	-0.950849	-1.346995	-1.935525	-69.646566	-78.721096			
44647	8.713925	-1.448560	2.169309	-1.157991	-1.186379	-0.869077	-2.187844	-69.846561	-78.466148			
44648	9.629991	-2.133145	2.249883	-1.776359	-1.501042	0.033142	-2.353184	-70.034838	-78.266450			
44649	10.537720	-2.366128	2.705236	-2.008575	-1.394010	1.049299	-2.418047	-70.166708	-78.081525			
44650	11.508408	-2.016713	3.928637	-1.782258	-0.504952	2.373917	-2.448920	-70.259403	-77.837490			
44651	12.468364	-0.690960	5.187145	-0.605808	0.603306	3.682231	-2.600456	-70.468625	-77.356085			
44652	13.663661	1.235595	5.362341	1.355735	0.800596	4.833023	-3.139234	-70.872488	-76.465908			
44653	15.105706	3.221521	5.060120	3.507193	0.562150	6.047533	-4.200899	-71.294824	-75.147751			
44654	15.634629	4.358980	5.875717	4.618748	1.499605	6.751810	-5.762876	-71.481675	-73.583770			
44655	14.205304	3.297998	6.894858	3.419561	2.746574	5.710425	-7.633797	-71.435627	-71.972918			
44656	12.257246	1.393231	6.955223	1.508664	3.069217	3.929873	-9.562239	-71.432750	-70.441481			
44657	10.869246	-0.388793	5.556589	-0.033011	1.895869	2.252576	-11.297985	-71.476403	-69.190239			
44658	9.920617	-1.554691	4.794627	-1.069901	1.308825	1.185748	-12.729019	-71.535595	-68.327385			
44659	9.375886	-2.397026	4.945011	-1.904210	1.526580	0.777353	-13.868691	-71.639805	-67.777253			
44660	9.370166	-3.005053	4.888927	-2.440165	1.435905	0.804062	-14.644306	-71.741838	-67.424686			
44661	8.889873	-3.034101	4.972704	-2.502313	1.681701	0.379154	-15.021695	-71.734747	-67.211099			
44662	8.690453	-3.202759	5.602606	-2.748001	2.314355	0.398241	-15.240767	-71.689050	-66.944560			
44663	9.032930	-3.085808	5.339633	-2.554653	1.975937	0.637056	-15.384643	-71.683966	-66.524745			
44664	9.062909	-2.160653	4.898162	-1.589306	1.677678	0.456499	-15.459486	-71.630597	-66.057813			
44665	8.342066	-1.240640	4.914083	-0.779221	2.029481	-0.296835	-15.643472	-71.522516	-65.497654			
44666	7.738190	-0.091357	5.315135	0.220630	2.764036	-0.843294	-16.074806	-71.438530	-64.680168			
44667	8.650462	0.810579	5.269941	1.246434	2.631444	-0.077104	-16.839879	-71.482169	-63.558809			
44668	10.541687	1.466389	4.899784	2.234418	1.906751	1.530005	-17.768973	-71.560930	-62.348720			
44669	11.540207	1.866790	4.581452	2.861337	1.442379	2.327453	-18.609326	-71.514303	-61.325701			
44670	12.004044	1.710280	4.288491	2.874745	1.018278	2.681791	-19.221776	-71.340081	-60.671160			
44671	11.053014	1.068250	3.804323	2.221378	0.669961	1.693803	-19.348398	-70.973756	-60.591010			
44672	9.213967	0.802952	4.134385	1.655582	1.380777	0.086148	-19.099927	-70.499494	-60.919813			
44673	8.204701	0.586985	4.530639	1.246861	1.936268	-0.708608	-18.830225	-70.157773	-61.303249			
44674	7.495325	0.003874	4.402524	0.593315	1.870277	-1.344391	-18.531461	-69.930145	-61.727041			
44675	6.807382	-0.218332	4.270632	0.284776	1.879207	-2.001553	-18.114128	-69.760275	-62.178468			
44676	6.207772	-0.128647	3.924587	0.314583	1.732334	-2.681392	-17.615228	-69.685107	-62.630350			
44677	6.514125	0.402407	3.787036	0.882247	1.594052	-2.490258	-17.055594	-69.686695	-63.091818			
44678	6.979377	0.812963	3.534278	1.367637	1.282812	-2.174126	-16.480608	-69.716800	-63.587171			
44679	6.877209	1.205445	3.415677	1.725331	1.267850	-2.340629	-15.805178	-69.713551	-64.173471			
44680	7.106441	1.628491	3.568163	2.122945	1.407346	-2.105699	-15.182369	-69.728348	-64.738822			
44681	7.660553	1.428433	3.736332	1.959324	1.341913	-1.503359	-14.691646	-69.743975	-65.250571			
44682	8.147153	0.921296	3.760828	1.510929	1.107972	-0.988959	-14.353965	-69.766444	-65.639648			
44683	8.493644	0.646645	3.661321	1.291914	0.849816	-0.670797	-14.121827	-69.788361	-65.896052			
44684	8.780462	0.339576	3.666018	1.023161	0.704446	-0.372962	-14.049499	-69.801141	-66.049497			
44685	8.761288	-0.050614	3.514313	0.659473	0.493283	-0.408705	-14.018934	-69.778104	-66.180725			
44686	8.114801	0.065199	3.495728	0.688366	0.691180	-1.030731	-13.969189	-69.678974	-66.341616			
44687	7.755700	-0.110108	3.371997	0.492337	0.638957	-1.393503	-13.970913	-69.526114	-66.500589			
44688	7.378463	-0.591174	3.251543	-0.001174	0.536722	-1.745744	-14.011161	-69.300822	-66.657287			
44689	7.378592	-1.156335	3.061860	-0.512620	0.232104	-1.760422	-14.074327	-69.058759	-66.799580			
44690	7.533757	-1.538625	2.931119	-0.832749	-0.034408	-1.626016	-14.093902	-68.824504	-66.939163			
44691	7.910854	-1.479792	2.814798	-0.694932	-0.284823	-1.319728	-14.064573	-68.632401	-67.052340			
44692	8.404150	-1.560147	2.819943	-0.696377	-0.482386	-0.851762	-14.031807	-68.485253	-67.144525			
44693	8.912014	-1.667366	2.670571	-0.706070	-0.829421	-0.423887	-13.951557	-68.392447	-67.194912			
44694	9.271931	-1.260936	2.785554	-0.269208	-0.792112	-0.085507	-13.836276	-68.312275	-67.157664			
44695	9.735341	-0.948383	2.562297	0.136320	-1.117496	0.235907	-13.801475	-68.232828	-67.041868			
44696	9.758808	-0.683444	2.432322	0.426014	-1.215697	0.185221	-13.805050	-68.099646	-66.893953			
44697	9.193231	-0.190550	2.764261	0.795056	-0.650715	-0.266099	-13.825957	-67.923485	-66.744007			
44698	8.951293	-0.018256	2.805490	0.936967	-0.517216	-0.493283	-13.941746	-67.802909	-66.561132			
44699	8.822184	0.005584	2.387383	1.011942	-0.863490	-0.770514	-14.071499	-67.726058	-66.364354			
44700	8.738623	0.065977	2.047141	1.117852	-1.140985	-0.980518	-14.215575	-67.671200	-66.164383			
44701	8.506150	-0.287684	1.771714	0.786044	-1.382336	-1.265899	-14.347894	-67.613161	-65.990309			
44702	8.801389	-0.735070	1.722140	0.412059	-1.616937	-0.970389	-14.445919	-67.567728	-65.819225			
44703	9.225265	-0.934517	1.721749	0.293065	-1.808620	-0.561404	-14.447301	-67.499239	-65.671347			
44704	9.653535	-0.781537	2.056610	0.472235	-1.633377	-0.058702	-14.395567	-67.403447	-65.515076			
44705	10.034732	-0.480546	2.305423	0.800987	-1.498732	0.353626	-14.317100	-67.266875	-65.373229			
44706	10.032300	0.094298	2.608253	1.328518	-1.133735	0.405361	-14.199076	-67.062571	-65.252428			
44707	9.710701	0.375947	2.744031	1.542784	-0.871479	0.128590	-14.083573	-66.835088	-65.116886			
44708	9.418949	0.476149	2.563712	1.634458	-0.941984	-0.223263	-14.024489	-66.611653	-64.961050			
44709	9.065234	0.456085	2.331973	1.609281	-1.060567	-0.641544	-14.013040	-66.363613	-64.811017			
44710	8.770159	0.414680	2.437689	1.521614	-0.897007	-0.873452	-14.053580	-66.122328	-64.660899			
44711	8.837225	0.392359	2.535494	1.516034	-0.866650	-0.777773	-14.131642	-65.902147	-64.522011			
44712	9.077550	0.588237	2.437637	1.785418	-1.027483	-0.623211	-14.258757	-65.700478	-64.391929			
44713	9.954110	0.790327	2.439368	2.158598	-1.328771	0.148948	-14.446358	-65.565373	-64.266254			
44714	10.506550	0.904294	2.062592	2.449779	-1.867086	0.481589	-14.679604	-65.439856	-64.163972			
44715	10.724636	1.146220	2.268416	2.714387	-1.732779	0.728035	-14.904205	-65.287355	-64.118272			
44716	10.917342	1.252652	3.266716	2.724879	-0.906458	1.286061	-15.117096	-65.157969	-64.110958			
44717	10.834701	0.396720	3.912125	1.802927	-0.495248	1.560833	-15.259016	-65.047728	-64.248955			
44718	10.550931	-0.820392	4.420312	0.504532	-0.194074	1.643408	-15.247910	-65.005770	-64.548940			
44719	10.949707	-2.142949	4.289059	-0.707350	-0.726293	2.097661	-15.020546	-65.111950	-65.026654			
44720	12.009390	-3.308839	4.683179	-1.756178	-0.991369	3.341730	-14.441298	-65.221043	-65.739315			
44721	12.537482	-4.658007	6.076675	-3.251839	-0.193084	4.512074	-13.495262	-65.326774	-66.726126			
44722	12.960849	-5.677497	7.798638	-4.544430	1.008150	5.658756	-12.190485	-65.620620	-67.820420			
44723	13.193095	-4.938134	7.851133	-3.985660	1.122051	5.773666	-10.547347	-66.043289	-69.010407			
44724	13.590175	-3.348987	6.745618	-2.418429	0.294887	5.532429	-8.870401	-66.388527	-70.127056			
44725	12.376453	-1.761601	5.994819	-1.089446	0.371949	4.003615	-7.247198	-66.425612	-71.093051			
44726	10.181554	-0.016015	6.701779	0.062282	2.162675	2.182956	-5.870539	-66.403880	-71.686684			
44727	9.038440	1.109104	7.306405	0.770885	3.381436	1.335286	-4.858573	-66.601666	-71.960472			
44728	9.189583	1.838799	7.474585	1.348896	3.683455	1.514735	-4.163742	-66.906341	-72.056670			
44729	8.926896	2.460853	7.669136	1.791872	4.155709	1.326416	-3.714382	-67.150328	-72.161866			
44730	8.506605	2.531755	7.217508	1.857896	3.960384	0.757458	-3.444959	-67.322579	-72.328487			
44731	8.044469	2.805815	6.283992	2.253847	3.380631	-0.036895	-3.247146	-67.429621	-72.598261			
44732	7.293866	2.845275	5.391046	2.397082	2.865232	-1.071755	-3.061547	-67.448038	-72.991931			
44733	6.732705	2.444845	4.856001	2.065688	2.474596	-1.781711	-2.815198	-67.376395	-73.559474			
44734	6.338379	1.582198	4.465479	1.270995	2.038181	-2.272844	-2.485596	-67.279439	-74.214947			
44735	6.335723	0.856830	4.444719	0.565648	1.830606	-2.265505	-2.044374	-67.225354	-74.967954			
44736	6.571477	-0.071921	4.485091	-0.336080	1.554923	-2.016870	-1.527683	-67.192622	-75.765879			
44737	7.079871	-1.045202	4.513380	-1.262584	1.168635	-1.528501	-0.966872	-67.196616	-76.593936			
44738	7.754378	-1.615578	4.575548	-1.800834	0.853147	-0.884915	-0.375437	-67.293462	-77.343816			
44739	8.510734	-2.000388	4.294663	-2.096582	0.251680	-0.303793	0.215800	-67.461389	-78.016899			
44740	9.592240	-1.844673	4.311027	-1.904017	-0.083551	0.692854	0.753315	-67.621940	-78.534760			
44741	9.194627	-1.838555	4.041718	-1.909320	-0.170810	0.216380	1.151512	-67.599833	-78.891238			
44742	8.153348	-1.635628	4.474285	-1.891801	0.635688	-0.582925	1.400634	-67.490576	-79.037842			
44743	7.547831	-1.414482	4.781787	-1.790639	1.172700	-1.023241	1.503191	-67.465057	-79.062992			
44744	7.633869	-1.030141	4.950928	-1.445327	1.375950	-0.875875	1.410668	-67.530950	-78.918676			
44745	7.660841	-1.241187	4.483921	-1.547693	0.911447	-1.031545	1.147349	-67.606720	-78.696771			
44746	7.130072	-1.533992	3.994462	-1.759407	0.618545	-1.709068	0.796884	-67.648027	-78.424522			
44747	6.960162	-1.725447	3.631950	-1.868976	0.328343	-2.001724	0.394524	-67.732536	-78.129782			
44748	7.184079	-1.957781	3.175582	-1.970605	-0.195643	-1.963700	-0.033855	-67.872911	-77.755697			
44749	7.398222	-1.791844	3.167773	-1.772481	-0.221260	-1.763560	-0.457027	-68.028473	-77.349782			
44750	7.868966	-1.356080	3.448813	-1.346062	-0.017989	-1.219575	-0.874243	-68.215453	-76.887569			
44751	8.296974	-1.066178	3.523766	-1.024916	-0.008514	-0.793665	-1.307202	-68.432761	-76.420507			
44752	8.671127	-0.718136	3.334892	-0.601417	-0.198276	-0.516211	-1.677122	-68.687038	-75.982298			
44753	8.978321	-0.388590	3.084527	-0.193923	-0.421164	-0.322670	-1.945076	-68.919438	-75.632615			
44754	9.032597	-0.004413	3.089945	0.189434	-0.314933	-0.273273	-2.108249	-69.100503	-75.389663			
44755	8.962709	0.350928	3.255304	0.496759	-0.036139	-0.283669	-2.153471	-69.220091	-75.267603			
44756	8.924757	0.638254	3.235383	0.773550	0.038475	-0.329730	-2.107969	-69.293434	-75.250606			
44757	8.675934	0.764288	3.181221	0.879322	0.107098	-0.582766	-2.006099	-69.296234	-75.344145			
44758	8.496479	0.712408	3.170122	0.809730	0.141599	-0.753348	-1.881160	-69.244409	-75.490952			
44759	8.339720	0.307071	2.986186	0.432638	-0.074754	-0.960019	-1.721535	-69.164060	-75.737710			
44760	8.191269	-0.066910	2.710804	0.103854	-0.374743	-1.193026	-1.506249	-69.038711	-76.008393			
44761	7.851051	-0.114817	2.588569	0.044472	-0.401868	-1.555003	-1.247268	-68.882780	-76.323191			
44762	7.558853	-0.078176	2.227047	0.119489	-0.642569	-1.959350	-1.028399	-68.767363	-76.622892			
44763	7.720094	-0.094685	1.915849	0.169515	-1.000295	-1.922824	-0.866417	-68.715191	-76.977453			
44764	7.570622	-0.133850	1.541277	0.181139	-1.303400	-2.198484	-0.701757	-68.706268	-77.356148			
44765	8.090610	-0.435624	1.450414	-0.071720	-1.632380	-1.745371	-0.499922	-68.759553	-77.824999			
44766	8.388755	-0.647529	1.419029	-0.272197	-1.802747	-1.477215	-0.211964	-68.830875	-78.325027			
44767	8.537929	-0.819177	1.455805	-0.463060	-1.847215	-1.323874	0.166913	-68.915158	-78.891407			
44768	8.923009	-0.943287	1.717340	-0.637451	-1.756650	-0.870268	0.621451	-69.013309	-79.517323			
44769	8.958687	-0.895367	1.797790	-0.637902	-1.676782	-0.808623	1.121369	-69.071038	-80.210942			
44770	9.058352	-0.820296	1.858350	-0.605397	-1.637179	-0.694951	1.660597	-69.110964	-80.939788			
44771	8.916177	-0.909144	1.772771	-0.722765	-1.680664	-0.861691	2.183600	-69.114638	-81.687543			
44772	8.999095	-1.163319	1.898275	-1.025879	-1.642405	-0.746793	2.679185	-69.082617	-82.427725			
44773	9.309334	-1.378010	2.150352	-1.301578	-1.562866	-0.376065	3.218100	-69.040104	-83.185611			
44774	9.698215	-1.625388	2.725331	-1.662754	-1.222512	0.180573	3.798210	-68.965868	-83.938332			
44775	9.757021	-1.739118	2.788101	-1.822349	-1.220342	0.246494	4.418816	-68.848254	-84.629847			
44776	9.612742	-1.458965	2.523232	-1.545262	-1.385492	0.015462	5.047065	-68.769835	-85.160706			
44777	9.741040	-1.306146	2.324915	-1.389477	-1.601029	0.061780	5.522004	-68.757488	-85.523115			
44778	9.728598	-1.159973	2.193954	-1.245211	-1.691726	0.005259	5.813722	-68.821118	-85.689843			
44779	9.751776	-0.841289	2.127264	-0.930967	-1.691874	0.015892	5.926192	-68.967607	-85.736308			
44780	10.081033	-1.223210	1.786187	-1.242970	-2.157959	0.192914	5.880771	-69.174804	-85.700596			
44781	10.530558	-1.764755	1.662349	-1.741010	-2.485559	0.558482	5.760658	-69.386448	-85.605578			
44782	11.092340	-2.368608	2.295013	-2.420415	-2.170186	1.293582	5.522961	-69.507105	-85.409319			
44783	11.543183	-2.752968	2.847541	-2.860319	-1.869994	1.902859	5.171405	-69.521452	-85.008290			
44784	12.137809	-1.999188	3.655932	-2.202567	-1.195973	2.773304	4.631708	-69.603552	-84.282374			
44785	13.189938	-0.469846	4.239106	-0.705950	-0.704612	4.013713	3.747798	-69.962705	-83.139140			
44786	14.590717	0.867495	4.606632	0.691041	-0.477677	5.489400	2.325129	-70.473324	-81.499617			
44787	15.306529	1.823153	5.502189	1.642537	0.434973	6.466041	0.376662	-70.813579	-79.481628			
44788	14.115309	1.960264	7.339961	1.556168	2.638427	5.921774	-1.850086	-70.832229	-77.365668			
44789	12.677091	2.219808	9.072052	1.596955	4.803644	5.097369	-4.152120	-70.843116	-75.179271			
44790	12.876964	2.897342	9.064487	2.466596	4.942834	5.215812	-6.569692	-71.067571	-72.905313			
44791	13.383877	2.474503	7.797564	2.502400	3.627150	5.241579	-9.018569	-71.204328	-70.771724			
44792	11.535608	1.270986	7.205671	1.413134	3.474341	3.322619	-11.301445	-71.118906	-68.995411			
44793	8.785861	0.152150	6.562466	0.260869	3.525651	0.569043	-13.302826	-70.962973	-67.578921			
44794	7.830395	-0.575304	6.154952	-0.387437	3.331801	-0.417081	-14.987028	-70.928587	-66.394384			
44795	7.516454	-1.447123	5.551424	-1.106997	2.749616	-0.833660	-16.455794	-70.890588	-65.457753			
44796	6.858132	-2.666631	5.180141	-2.270358	2.438284	-1.453350	-17.589213	-70.815390	-64.774521			
44797	6.281028	-3.647729	5.001277	-3.236264	2.318393	-1.943672	-18.383910	-70.700943	-64.307171			
44798	6.157448	-4.489732	4.634545	-4.002969	1.894986	-2.070852	-18.821238	-70.521263	-64.020143			
44799	6.360575	-4.326647	4.316733	-3.756373	1.541141	-1.981632	-18.937910	-70.307658	-63.856805			
44800	7.027809	-3.328430	4.323344	-2.666314	1.457245	-1.450454	-18.846862	-70.124802	-63.768619			
44801	7.910220	-2.092456	4.410892	-1.330010	1.422823	-0.723544	-18.667085	-70.040859	-63.714351			
44802	9.228243	-1.042195	4.948788	-0.172373	1.672657	0.575267	-18.424995	-70.092916	-63.751582			
44803	10.312315	-0.454704	5.023541	0.531639	1.502937	1.555910	-18.024282	-70.163340	-64.022693			
44804	10.544859	0.136943	4.571310	1.161380	1.093506	1.569973	-17.402179	-70.182924	-64.505991			
44805	10.255288	0.585444	3.868125	1.602010	0.572991	1.030796	-16.694731	-70.132412	-65.065137			
44806	9.463340	0.701511	3.682529	1.592803	0.630828	0.220897	-16.048410	-69.993210	-65.617136			
44807	8.446674	0.687522	3.969063	1.380629	1.179210	-0.632510	-15.569228	-69.842171	-66.026655			
44808	7.927900	0.511215	4.133562	1.101631	1.446067	-1.043734	-15.303998	-69.784297	-66.208952			
44809	7.729914	0.682947	4.110709	1.234271	1.507483	-1.249980	-15.120465	-69.769727	-66.226451			
44810	7.335183	1.153284	4.088673	1.631895	1.686949	-1.667546	-14.932738	-69.729671	-66.199712			
44811	7.178882	1.370520	3.850082	1.844299	1.543876	-1.909980	-14.746256	-69.632858	-66.180694			
44812	6.807441	1.406491	3.335664	1.889913	1.175520	-2.430785	-14.526202	-69.477927	-66.242115			
44813	6.368698	1.259571	3.302617	1.685601	1.242740	-2.836410	-14.348119	-69.346979	-66.360439			
44814	6.509122	0.805567	3.406127	1.245003	1.202908	-2.627822	-14.275436	-69.314128	-66.458889			
44815	7.311675	0.373885	3.320985	0.946272	0.788176	-1.868339	-14.319549	-69.370686	-66.510967			
44816	8.341082	0.074710	3.195775	0.813753	0.303779	-0.922374	-14.498465	-69.539620	-66.444626			
44817	8.895055	-0.277204	2.955675	0.577253	-0.125548	-0.453962	-14.778813	-69.761270	-66.255181			
44818	9.361107	-0.413608	2.866751	0.521543	-0.338269	-0.033471	-15.127393	-69.983559	-65.956382			
44819	9.646444	-0.330766	2.778498	0.661878	-0.459420	0.199011	-15.534942	-70.118522	-65.623555			
44820	9.417131	-0.229123	3.105359	0.704241	-0.045930	0.080745	-15.949310	-70.111824	-65.365160			
44821	9.275048	-0.570512	3.494756	0.326644	0.303386	0.105300	-16.345071	-69.980753	-65.204130			
44822	9.052014	-1.114586	3.609915	-0.222369	0.375911	-0.013612	-16.649731	-69.791855	-65.099079			
44823	8.973127	-1.319481	3.528073	-0.398236	0.265562	-0.092805	-16.784789	-69.572656	-65.048414			
44824	8.959465	-1.386723	3.076743	-0.393633	-0.197484	-0.248835	-16.757168	-69.312640	-65.090258			
44825	8.779552	-1.338112	2.931881	-0.341373	-0.310103	-0.471695	-16.620886	-69.033385	-65.172407			
44826	8.166429	-1.281743	2.475204	-0.313801	-0.570973	-1.208303	-16.457316	-68.754007	-65.239882			
44827	8.292647	-0.798590	2.315424	0.208653	-0.716768	-1.198189	-16.406183	-68.576399	-65.153253			
44828	8.527884	-0.396523	2.219570	0.662661	-0.836266	-1.056544	-16.489551	-68.458103	-64.938772			
44829	8.628314	0.110641	2.351725	1.175143	-0.672869	-0.972048	-16.665753	-68.354217	-64.655743			
44830	8.879051	0.593541	2.502002	1.688562	-0.540580	-0.740403	-16.935492	-68.269712	-64.332239			
44831	9.009585	1.028725	2.881535	2.111497	-0.162333	-0.536410	-17.251152	-68.175574	-64.023509			
44832	8.934357	1.008845	2.907757	2.100866	-0.120247	-0.600336	-17.607301	-68.094644	-63.727919			
44833	8.843600	0.780963	2.634509	1.918754	-0.384514	-0.761152	-17.936238	-68.034009	-63.455687			
44834	8.788851	0.731509	2.370244	1.912589	-0.617981	-0.904425	-18.255910	-68.004397	-63.176285			
44835	8.714728	0.486296	2.198654	1.698869	-0.790748	-1.008962	-18.585720	-67.971840	-62.910898			
44836	8.597094	-0.056969	2.294945	1.155740	-0.754548	-1.022072	-18.886638	-67.885758	-62.689926			
44837	8.549679	-0.484932	2.551838	0.720017	-0.579990	-0.925101	-19.127997	-67.768626	-62.504088			
44838	8.784603	-0.905797	2.630838	0.359989	-0.664358	-0.629005	-19.345914	-67.675725	-62.318334			
44839	9.196990	-1.061861	2.661456	0.293601	-0.809936	-0.218247	-19.479458	-67.576347	-62.183658			
44840	9.398313	-1.129451	2.696688	0.273989	-0.871409	-0.012606	-19.519602	-67.438545	-62.128496			
44841	9.405569	-0.968409	2.742378	0.439498	-0.827994	-0.012464	-19.456245	-67.271341	-62.144476			
44842	9.302570	-0.645424	2.505135	0.773691	-0.984514	-0.238652	-19.389913	-67.094608	-62.155689			
44843	9.176836	-0.388844	2.135531	1.053806	-1.264935	-0.527463	-19.341414	-66.928993	-62.153308			
44844	9.171764	-0.147063	1.869666	1.329802	-1.488679	-0.666433	-19.322437	-66.786834	-62.126676			
44845	9.366548	0.155961	1.692515	1.692395	-1.686928	-0.597961	-19.329009	-66.650146	-62.106319			
44846	9.727108	0.574053	1.544624	2.194643	-1.894682	-0.382644	-19.353896	-66.533179	-62.097799			
44847	10.311960	1.180505	1.755590	2.880699	-1.816682	0.147907	-19.405786	-66.455331	-62.104358			
44848	10.522958	1.630040	2.495104	3.284946	-1.147169	0.555935	-19.475759	-66.387669	-62.142200			
44849	10.949306	1.513214	3.886812	3.107710	-0.052747	1.484381	-19.554426	-66.344451	-62.243757			
44850	11.323282	0.571306	4.642493	2.182245	0.352404	2.237600	-19.671320	-66.454002	-62.392678			
44851	12.221243	-1.217667	3.962352	0.651315	-0.847207	3.048081	-19.675065	-66.756607	-62.641796			
44852	13.816858	-3.437266	3.762438	-1.266835	-1.891670	4.736965	-19.222876	-67.014029	-63.255909			
44853	13.839583	-5.028835	5.358862	-3.069374	-0.662254	5.539182	-18.173396	-67.087252	-64.264273			
44854	12.944581	-5.247114	7.553911	-3.781773	1.625131	5.523903	-16.917495	-67.330023	-65.190821			
44855	13.723625	-5.386357	7.658563	-3.973015	1.437475	6.254357	-15.637035	-67.782067	-65.981109			
44856	13.837228	-4.658233	6.117214	-3.240191	0.092756	5.681771	-14.113502	-68.037705	-66.801981			
44857	11.200852	-2.548608	6.118423	-1.710253	1.306330	3.023044	-12.520782	-67.941665	-67.637167			
44858	8.783801	-1.764666	5.887765	-1.368224	2.002256	0.630147	-11.269583	-67.855301	-68.122148			
44859	8.513894	-0.856212	5.589243	-0.566037	1.959176	0.202280	-10.250945	-67.909100	-68.263002			
44860	8.415404	0.317407	6.042935	0.396292	2.637872	0.203338	-9.443698	-67.925221	-68.221519			
44861	7.752475	0.971753	6.602632	0.760404	3.512652	-0.235496	-8.906791	-67.866414	-68.114804			
44862	6.930525	1.104349	6.407680	0.760528	3.639634	-1.067138	-8.589734	-67.760795	-67.990596			
44863	6.659688	1.470749	5.997250	1.130927	3.441739	-1.484606	-8.392520	-67.721650	-67.913226			
44864	6.600423	2.266301	5.660388	1.939207	3.357697	-1.706702	-8.217423	-67.774894	-67.893024			
44865	6.771862	2.505069	5.149494	2.284290	2.909131	-1.752310	-8.074529	-67.922913	-68.004471			
44866	7.210765	2.110260	4.827352	2.018069	2.383207	-1.446127	-7.908460	-68.085081	-68.249530			
44867	7.641545	0.884723	4.830547	0.880203	1.939739	-0.982468	-7.656900	-68.146928	-68.697172			
44868	8.254486	-0.368087	5.165903	-0.334588	1.721856	-0.227188	-7.259202	-68.163201	-69.264519			
44869	9.116133	-1.340610	5.183935	-1.193144	1.201865	0.623123	-6.739128	-68.225573	-69.915677			
44870	10.079612	-2.106291	5.002678	-1.813273	0.525452	1.478797	-6.221803	-68.330629	-70.524959			
44871	10.668067	-2.550846	4.250581	-2.061983	-0.459303	1.759650	-5.638927	-68.421473	-71.094095			
44872	10.913743	-2.041835	4.010053	-1.534334	-0.644306	1.874482	-5.046330	-68.470569	-71.567866			
44873	9.983297	-1.673929	4.038445	-1.325224	-0.226647	1.002560	-4.579272	-68.354924	-71.959540			
44874	8.417660	-1.742368	4.604529	-1.706121	0.788063	-0.243855	-4.310483	-68.206369	-72.174058			
44875	7.936496	-1.370080	4.949283	-1.480368	1.339432	-0.572833	-4.183115	-68.174392	-72.220001			
44876	8.090776	-0.989174	4.798009	-1.064413	1.237331	-0.496247	-4.249558	-68.205282	-72.089046			
44877	7.611837	-1.232938	4.327104	-1.246955	0.927425	-1.108149	-4.528025	-68.214140	-71.823396			
44878	6.816667	-1.864809	3.800461	-1.821576	0.585718	-2.019953	-4.972098	-68.213616	-71.412382			
44879	6.695821	-1.916420	3.229807	-1.742336	0.111363	-2.336717	-5.535636	-68.278155	-70.872278			
44880	6.582319	-2.202117	2.781262	-1.912715	-0.303417	-2.590430	-6.278823	-68.394453	-70.169658			
44881	6.883334	-2.243277	2.773069	-1.884197	-0.398372	-2.303130	-7.084373	-68.534578	-69.349995			
44882	7.237725	-2.038287	3.019175	-1.660307	-0.215910	-1.884807	-7.931100	-68.703383	-68.423640			
44883	8.162898	-1.121172	3.697268	-0.761342	0.354907	-0.820812	-8.790744	-68.956179	-67.406244			
44884	8.995383	-0.537641	3.623879	-0.036688	0.214829	-0.102355	-9.683781	-69.228544	-66.358490			
44885	9.285876	-0.068267	3.380534	0.539316	0.076549	0.054587	-10.460344	-69.454968	-65.390284			
44886	9.149491	0.216305	2.767995	0.953939	-0.318530	-0.304263	-11.097638	-69.583364	-64.599345			
44887	8.438736	0.238496	2.679916	0.912489	-0.143978	-1.003733	-11.554826	-69.582360	-64.018462			
44888	7.635160	-0.032312	2.938563	0.490139	0.281380	-1.651043	-11.842383	-69.539621	-63.616551			
44889	7.348782	-0.427579	2.865258	0.093184	0.201032	-1.916611	-11.993988	-69.510374	-63.375579			
44890	7.359643	-1.052528	2.650439	-0.453583	-0.165196	-1.934619	-11.972751	-69.491872	-63.300362			
44891	7.620839	-1.468501	2.579547	-0.799914	-0.427753	-1.684656	-11.766937	-69.479547	-63.411513			
44892	7.976040	-1.490721	2.639969	-0.791801	-0.498768	-1.331346	-11.375628	-69.478547	-63.679108			
44893	8.049532	-1.552967	2.639435	-0.860690	-0.551838	-1.261202	-10.836371	-69.474804	-64.068460			
44894	8.029735	-1.294367	2.462005	-0.601205	-0.650825	-1.361155	-10.172287	-69.498223	-64.515213			
44895	8.014766	-0.677659	2.107797	0.040592	-0.810216	-1.537404	-9.452872	-69.546903	-65.004309			
44896	8.149739	-0.282788	1.585351	0.531463	-1.224012	-1.613249	-8.706509	-69.618629	-65.548032			
44897	8.263453	-0.212263	1.475182	0.605696	-1.344677	-1.546448	-7.902658	-69.704672	-66.174474			
44898	8.054949	-0.248531	1.564860	0.477980	-1.210407	-1.707193	-6.993621	-69.813876	-66.880997			
44899	7.957204	-0.226509	1.820249	0.374428	-0.944426	-1.710258	-5.991984	-69.936334	-67.678080			
44900	8.280662	-0.271148	1.793030	0.328056	-1.084428	-1.411856	-4.900474	-70.091744	-68.550577			
44901	8.529048	-0.418012	1.644475	0.199510	-1.340934	-1.222840	-3.711375	-70.218505	-69.516840			
44902	8.506481	-0.536895	1.649630	0.023481	-1.369333	-1.239832	-2.549684	-70.304226	-70.498219			
44903	8.373673	-0.846092	1.533470	-0.309865	-1.530414	-1.401541	-1.483679	-70.379824	-71.456263			
44904	8.665297	-0.959191	1.505403	-0.431361	-1.686582	-1.138427	-0.466311	-70.473076	-72.380310			
44905	8.913155	-0.792672	1.364078	-0.260611	-1.846592	-0.955186	0.550468	-70.560919	-73.300360			
44906	9.363773	-0.431265	1.316842	0.088966	-1.929610	-0.546147	1.517177	-70.619551	-74.168145			
44907	10.274374	-0.054102	1.393220	0.458784	-2.046822	0.341452	2.421237	-70.650394	-74.982438			
44908	11.042068	0.174409	1.686213	0.611678	-1.975761	1.165610	3.227316	-70.599708	-75.651433			
44909	11.385368	0.254288	2.133325	0.550428	-1.687955	1.636767	3.832788	-70.476180	-76.114208			
44910	11.100250	0.026576	2.352204	0.225888	-1.500823	1.432112	4.171584	-70.323285	-76.341111			
44911	10.602285	-0.189051	2.610251	-0.099216	-1.199886	1.041252	4.215898	-70.211114	-76.345952			
44912	10.279807	-0.621647	2.603892	-0.528658	-1.238229	0.724316	4.021716	-70.222938	-76.211984			
44913	10.481835	-1.244880	2.248189	-0.992384	-1.791679	0.783439	3.682573	-70.370332	-76.015032			
44914	10.903621	-2.019252	1.953433	-1.603531	-2.386030	1.073892	3.340865	-70.563342	-75.854145			
44915	11.466916	-2.690697	2.741321	-2.416969	-2.021971	1.862700	3.037913	-70.654283	-75.730297			
44916	12.139311	-2.956864	3.894924	-2.930318	-1.263187	2.879591	2.815168	-70.629922	-75.531205			
44917	13.063629	-2.026447	5.326923	-2.352194	0.005830	4.244628	2.551703	-70.664994	-75.114400			
44918	14.010563	-0.325997	5.763669	-0.750776	0.641788	5.308357	1.996045	-70.920311	-74.311664			
44919	14.777138	1.562197	5.222938	1.316913	0.568635	5.872486	1.018957	-71.164562	-73.090337			
44920	14.097184	2.849626	5.973704	2.347416	1.912638	5.463645	-0.379520	-71.129428	-71.704520			
44921	12.445607	2.575090	7.014472	1.750168	3.284243	4.218554	-2.038128	-70.948906	-70.373867			
44922	11.691415	2.302513	7.379530	1.457594	3.770221	3.607709	-3.765091	-70.880677	-69.113188			
44923	11.126445	1.190293	6.146652	0.815343	2.519216	2.676629	-5.427134	-70.818757	-68.068819			
44924	10.164652	0.171857	4.932142	0.160461	1.427834	1.394921	-6.646352	-70.663434	-67.409695			
44925	8.863701	-0.574748	4.798902	-0.602345	1.489503	0.154414	-7.490016	-70.446727	-67.136786			
44926	8.005936	-1.763257	4.686776	-1.768315	1.328848	-0.632439	-8.074862	-70.327948	-67.109690			
44927	7.790030	-2.810597	4.444513	-2.713231	0.910926	-0.860243	-8.359825	-70.264501	-67.202584			
44928	7.639526	-3.196977	4.911831	-3.192466	1.287455	-0.820486	-8.407923	-70.115056	-67.331805			
44929	7.452870	-3.537124	5.691687	-3.704317	1.951706	-0.706613	-8.419425	-69.887003	-67.351532			
44930	7.710703	-3.494028	5.840134	-3.646862	1.986498	-0.403944	-8.532155	-69.714146	-67.164709			
44931	8.049728	-2.760636	5.498684	-2.800407	1.729917	-0.230422	-8.842376	-69.599276	-66.700193			
44932	8.262013	-1.408447	5.358610	-1.411718	1.874741	-0.145650	-9.395692	-69.542593	-66.028184			
44933	8.318591	-0.216391	5.151085	-0.174157	1.989863	-0.232008	-10.188603	-69.561523	-65.223897			
44934	9.622400	0.543545	5.026735	0.820424	1.697995	0.892331	-11.179312	-69.695086	-64.344884			
44935	11.290047	0.790196	4.658684	1.444738	0.952217	2.303354	-12.168695	-69.793478	-63.570492			
44936	11.881075	0.504865	4.224111	1.414763	0.321276	2.723376	-12.879084	-69.695712	-63.136342			
44937	11.634251	0.226532	3.987645	1.206656	0.089395	2.428398	-13.101663	-69.465945	-63.125956			
44938	10.043358	-0.066016	3.696684	0.759850	0.203907	0.860631	-13.003770	-69.213289	-63.355469			
44939	9.165764	-0.064738	4.141092	0.538227	0.850732	0.194837	-12.797929	-69.066112	-63.672305			
44940	8.733803	-0.290471	4.520562	0.173859	1.255205	-0.055978	-12.573873	-68.972651	-64.049172			
44941	8.470531	-0.155974	4.302689	0.302716	1.155561	-0.386109	-12.315889	-68.920477	-64.455016			
44942	8.492590	0.231471	4.005397	0.730728	0.955085	-0.497394	-11.982648	-68.884150	-64.903777			
44943	8.284070	0.821230	3.741939	1.307743	0.903033	-0.825107	-11.526412	-68.804380	-65.449950			
44944	7.711352	1.536299	3.691678	1.907593	1.185968	-1.421734	-10.955369	-68.674009	-66.119173			
44945	7.269865	1.808367	3.556302	2.116746	1.236272	-1.890612	-10.342614	-68.524175	-66.898958			
44946	6.960484	1.505926	3.364067	1.801760	1.055381	-2.218428	-9.749418	-68.359167	-67.734808			
44947	6.647741	0.990462	3.207147	1.273783	0.863738	-2.526359	-9.161765	-68.212248	-68.613918			
44948	6.703259	0.919774	3.196991	1.199159	0.790862	-2.468512	-8.626900	-68.155177	-69.438919			
44949	6.906080	0.864131	3.136813	1.167351	0.634671	-2.295060	-8.241791	-68.160778	-70.194304			
44950	7.256924	0.498790	3.135839	0.843616	0.426573	-1.948111	-8.039346	-68.221815	-70.806296			
44951	7.883976	0.381249	3.038239	0.813579	0.096345	-1.394723	-7.983982	-68.324579	-71.271902			
44952	8.326309	0.376447	3.120909	0.844675	0.023597	-0.952937	-8.068239	-68.402550	-71.633957			
44953	8.502585	0.721226	3.399276	1.166334	0.281192	-0.706109	-8.240577	-68.391323	-71.956559			
44954	8.338733	0.911868	3.694168	1.309978	0.628492	-0.762731	-8.501976	-68.288096	-72.249076			
44955	8.229175	0.408026	3.525505	0.852415	0.401482	-0.900500	-8.816982	-68.143273	-72.577271			
44956	8.118021	-0.012235	3.351698	0.474768	0.185613	-1.044774	-9.060629	-67.934489	-72.932491			
44957	7.714039	-0.388783	3.067386	0.114797	-0.020449	-1.502893	-9.250213	-67.678375	-73.323227			
44958	7.591626	-0.708105	2.936204	-0.181986	-0.171625	-1.646119	-9.399763	-67.454408	-73.698805			
44959	7.474897	-1.135978	2.334435	-0.546427	-0.761852	-1.955520	-9.550397	-67.260376	-74.061098			
44960	7.687900	-1.283073	1.934003	-0.627740	-1.241499	-1.903512	-9.694822	-67.138450	-74.354857			
44961	7.948632	-1.577918	1.484461	-0.853846	-1.789858	-1.816341	-9.900151	-67.104533	-74.532517			
44962	8.251333	-1.742197	1.390078	-0.976424	-1.999381	-1.560347	-10.143747	-67.146322	-74.561094			
44963	8.638017	-1.777262	1.726667	-0.988645	-1.824960	-1.069264	-10.462817	-67.171793	-74.467824			
44964	8.971758	-1.988354	2.156220	-1.175328	-1.569618	-0.579587	-10.891812	-67.088256	-74.286358			
44965	9.072711	-2.049779	2.672307	-1.228417	-1.146872	-0.282081	-11.400361	-66.897707	-74.039027			
44966	8.949125	-1.958230	2.753648	-1.115390	-1.037370	-0.368979	-11.991695	-66.643853	-73.730576			
44967	8.723371	-1.812151	2.944510	-0.958136	-0.788886	-0.511580	-12.650672	-66.361887	-73.380636			
44968	8.474678	-1.837254	2.748294	-0.952709	-0.901483	-0.811121	-13.324864	-66.095378	-72.995940			
44969	8.383677	-1.427055	2.789653	-0.509886	-0.818283	-0.914660	-13.952207	-65.844910	-72.578983			
44970	8.119617	-1.105468	2.453210	-0.166372	-1.021549	-1.321690	-14.539245	-65.596891	-72.166583			
44971	8.055666	-0.686962	2.467495	0.281237	-0.972283	-1.420452	-15.081658	-65.385015	-71.767936			
44972	8.359924	-0.593707	2.524188	0.449113	-1.048080	-1.134435	-15.588313	-65.251648	-71.381173			
44973	8.509731	-0.779733	2.520687	0.316654	-1.133120	-0.981319	-15.996840	-65.152235	-71.101822			
44974	9.301486	-0.782116	2.867514	0.439891	-1.133090	-0.123800	-16.338265	-65.119457	-70.900152			
44975	9.719991	-1.215021	2.616871	0.090595	-1.558081	0.205630	-16.551531	-65.106990	-70.852892			
44976	9.950420	-1.456341	2.579012	-0.111039	-1.695238	0.429232	-16.606347	-65.151250	-70.910442			
44977	10.411386	-1.461892	2.262572	-0.056615	-2.156048	0.723039	-16.531069	-65.252050	-71.039595			
44978	10.672169	-1.283203	2.016061	0.142317	-2.462886	0.841898	-16.323750	-65.307350	-71.268721			
44979	10.602730	-1.270094	1.827104	0.127259	-2.608497	0.701534	-16.069060	-65.309952	-71.574521			
44980	10.636568	-0.846066	2.087855	0.527531	-2.363507	0.786702	-15.822114	-65.289382	-71.879201			
44981	10.522130	-0.450970	3.427506	0.870925	-1.079391	1.175614	-15.652621	-65.239421	-72.167791			
44982	10.907536	-0.860056	4.718625	0.491413	-0.085241	2.092383	-15.594371	-65.247789	-72.417007			
44983	11.826052	-1.411495	4.918265	0.048273	-0.288998	3.069519	-15.528851	-65.380268	-72.669858			
44984	12.760287	-2.235809	4.166447	-0.676482	-1.355158	3.710944	-15.347375	-65.623272	-72.999086			
44985	13.602115	-3.184143	4.475963	-1.569674	-1.408098	4.704318	-14.858075	-65.820038	-73.581753			
44986	13.497342	-3.696398	5.712923	-2.175091	-0.232284	5.143694	-14.033567	-65.956585	-74.355226			
44987	13.049736	-3.521533	7.140304	-2.164991	1.283769	5.265249	-13.048622	-66.195798	-75.192631			
44988	12.667644	-2.977633	7.010666	-1.790418	1.374596	4.795122	-11.899757	-66.489104	-76.062810			
44989	11.505934	-1.689577	6.090144	-0.739646	1.070860	3.250074	-10.594855	-66.702386	-76.945436			
44990	9.876349	-0.325126	6.171774	0.347537	1.860546	1.683192	-9.318836	-66.806717	-77.749125			
44991	9.237475	0.245287	6.814974	0.734029	2.741414	1.312959	-8.290528	-66.934609	-78.361671			
44992	8.473742	1.081354	7.181311	1.390634	3.450523	0.708906	-7.315380	-67.107305	-78.808834			
44993	7.842233	2.364568	7.551536	2.502721	4.167272	0.211622	-6.419317	-67.323578	-79.232311			
44994	7.754865	2.628513	7.571183	2.675253	4.285078	0.129666	-5.669016	-67.601494	-79.783116			
44995	8.023161	2.393762	7.419920	2.408613	4.064358	0.328102	-4.899408	-67.870957	-80.561123			
44996	7.719716	2.037669	7.007137	2.014169	3.790081	-0.095470	-4.054286	-68.052285	-81.576191			
44997	7.303935	1.717528	6.431928	1.674176	3.393473	-0.683150	-3.207161	-68.184504	-82.742899			
44998	7.632050	1.437897	5.394135	1.443247	2.294956	-0.753849	-2.424153	-68.322731	-83.868872			
44999	8.767901	0.911469	4.769544	0.965718	1.274433	0.081679	-1.788539	-68.488132	-84.871132			
45000	9.615220	-0.026953	4.447013	0.040329	0.628130	0.762416	-1.276697	-68.619015	-85.705014			
45001	10.025283	-0.607677	4.385977	-0.555502	0.404057	1.125341	-0.856340	-68.647049	-86.349100			
45002	10.079621	-0.955401	4.352845	-0.923468	0.341324	1.164082	-0.574405	-68.663876	-86.751016			
45003	9.460813	-0.980374	4.118219	-0.964182	0.346032	0.501306	-0.455646	-68.632956	-86.900862			
45004	8.277499	-0.796979	3.955978	-0.798397	0.624547	-0.659851	-0.535088	-68.544038	-86.819066			
45005	7.742246	-0.751553	3.967627	-0.752497	0.824055	-1.152207	-0.848625	-68.509104	-86.570579			
45006	7.649658	-0.986127	3.994290	-0.965184	0.872496	-1.224838	-1.395847	-68.516893	-86.162503			
45007	7.592471	-1.302212	4.284858	-1.255724	1.158011	-1.164949	-2.135545	-68.554828	-85.637468			
45008	7.178789	-1.767536	4.210164	-1.685686	1.235276	-1.565444	-2.936268	-68.626175	-85.046022			
45009	7.027132	-1.889825	4.034350	-1.764498	1.143529	-1.762426	-3.727292	-68.749093	-84.441214			
45010	6.876970	-2.210344	3.650830	-2.040928	0.856606	-2.027603	-4.512333	-68.920445	-83.820720			
45011	6.920212	-2.704739	3.089785	-2.485997	0.336137	-2.166882	-5.253844	-69.164162	-83.210666			
45012	6.997851	-2.378926	2.810033	-2.123767	0.099900	-2.196592	-5.890189	-69.479313	-82.593536			
45013	7.361592	-1.794415	2.706714	-1.499075	-0.054879	-1.907705	-6.469743	-69.857612	-81.995220			
45014	8.058879	-1.378916	2.927561	-1.034023	-0.011627	-1.190169	-7.060826	-70.274853	-81.361673			
45015	8.959888	-0.813990	2.767659	-0.401725	-0.377793	-0.416007	-7.558334	-70.664321	-80.735582			
45016	9.627166	-0.108461	2.826309	0.352408	-0.450109	0.205047	-7.929307	-70.995651	-80.203301			
45017	9.625334	0.367438	2.781886	0.837954	-0.425005	0.169199	-8.114207	-71.168236	-79.869678			
45018	9.316280	0.812934	2.585429	1.273949	-0.472491	-0.205805	-8.140406	-71.201400	-79.719118			
45019	8.844081	0.685413	2.373216	1.126699	-0.530821	-0.714968	-8.112709	-71.130105	-79.704616			
45020	8.138628	0.027273	2.298826	0.432166	-0.420581	-1.377112	-8.061817	-71.011645	-79.746494			
45021	7.968593	-0.370526	2.385331	0.022934	-0.316760	-1.492549	-8.008236	-70.940179	-79.799987			
45022	8.069587	-1.126596	2.317321	-0.724647	-0.454922	-1.385032	-7.979045	-70.917148	-79.861582			
45023	8.339734	-1.746176	2.401274	-1.333409	-0.492527	-1.075077	-7.853549	-70.918209	-79.984240			
45024	8.679184	-2.023990	2.143768	-1.594268	-0.861433	-0.827325	-7.545232	-70.908619	-80.197921			
45025	8.594036	-1.657563	2.028027	-1.246262	-0.939866	-0.965016	-7.072887	-70.823787	-80.480416			
45026	8.453438	-1.163760	1.841100	-0.772782	-1.065683	-1.182991	-6.619040	-70.741369	-80.752759			
45027	8.356144	-0.881997	1.748592	-0.509514	-1.120236	-1.318803	-6.256328	-70.704171	-81.011417			
45028	8.409543	-0.921800	1.442555	-0.549906	-1.431791	-1.368834	-5.929799	-70.739688	-81.290082			
45029	8.166453	-0.932690	1.189728	-0.579864	-1.586166	-1.681014	-5.570989	-70.820612	-81.629979			
45030	8.123361	-0.920599	1.267672	-0.593207	-1.484367	-1.695534	-5.148078	-70.969900	-82.018343			
45031	8.557678	-0.952977	1.422428	-0.638383	-1.459189	-1.231986	-4.581155	-71.160786	-82.504154			
45032	8.806582	-0.968062	1.539593	-0.680399	-1.407720	-0.957259	-3.889973	-71.314296	-83.066579			
45033	8.791849	-1.067677	1.755531	-0.828136	-1.190749	-0.901200	-3.065491	-71.413203	-83.750168			
45034	8.726281	-1.389763	1.800647	-1.195021	-1.140611	-0.947445	-2.204664	-71.463036	-84.482404			
45035	8.650941	-1.689149	1.852049	-1.540741	-1.089387	-1.005799	-1.292595	-71.451578	-85.252746			
45036	8.531555	-1.631250	1.704067	-1.519388	-1.198596	-1.175157	-0.386773	-71.405963	-86.009045			
45037	8.598498	-2.055314	1.616701	-1.975594	-1.343226	-1.148692	0.456747	-71.338133	-86.748180			
45038	9.438683	-2.191000	1.732259	-2.142978	-1.529132	-0.328008	1.309885	-71.248947	-87.447136			
45039	10.421276	-2.102666	2.122529	-2.108958	-1.498098	0.715229	2.143993	-71.103147	-88.071351			
45040	11.109083	-2.174375	2.097187	-2.212974	-1.791245	1.342207	2.898619	-70.907586	-88.550484			
45041	11.256840	-1.472250	1.935810	-1.534253	-1.988083	1.426737	3.579178	-70.724406	-88.818245			
45042	11.531813	-0.221497	2.033097	-0.317105	-1.923313	1.735711	4.047448	-70.620079	-88.834625			
45043	11.677020	0.844026	2.298529	0.713108	-1.646368	1.982624	4.185265	-70.556614	-88.643109			
45044	11.195728	1.188500	2.151670	1.074463	-1.599279	1.486620	4.028088	-70.508482	-88.282146			
45045	10.854172	0.821123	1.751083	0.765763	-1.900510	1.020374	3.688302	-70.482189	-87.856085			
45046	10.361008	-0.045977	1.412079	-0.044833	-2.145872	0.421556	3.337508	-70.410820	-87.456334			
45047	10.379758	-0.782525	1.824551	-0.796319	-1.855680	0.560497	3.065072	-70.291394	-87.114436			
45048	10.970086	-0.910870	2.826926	-0.996122	-1.156625	1.449365	2.884360	-70.135117	-86.756838			
45049	11.582912	-0.584617	3.762233	-0.737670	-0.483884	2.347972	2.653073	-70.043752	-86.256539			
45050	12.201994	0.197562	4.386799	0.014353	-0.023100	3.155381	2.164215	-70.158079	-85.464925			
45051	12.821717	1.242117	3.838965	1.179369	-0.567816	3.565005	1.320650	-70.473750	-84.349936			
45052	13.170988	2.205686	3.993625	2.205562	-0.343403	3.946145	0.128004	-70.708045	-83.020606			
45053	12.828366	1.930401	6.342716	1.752700	1.980749	4.383325	-1.432151	-70.713543	-81.580919			
45054	12.293169	1.467731	8.364206	1.174821	4.018686	4.529706	-3.190231	-70.761227	-79.986719			
45055	12.384931	1.318627	8.263274	1.195870	3.936977	4.556526	-5.186228	-71.006104	-78.238002			
45056	12.398876	0.373941	6.183348	0.631890	1.939956	3.896458	-7.233473	-71.140582	-76.554778			
45057	10.856927	-0.666609	5.472239	-0.304078	1.668927	2.244817	-8.981566	-71.011096	-75.236227			
45058	8.533080	-1.612445	6.595194	-1.409406	3.362415	0.464308	-10.496539	-70.866334	-74.214271			
45059	7.763432	-2.394300	6.681194	-2.157789	3.629956	-0.178971	-11.814407	-70.898847	-73.307200			
45060	7.835639	-2.499517	5.798244	-2.121182	2.797057	-0.381824	-12.809183	-70.949758	-72.529820			
45061	7.629405	-2.315306	5.345623	-1.880133	2.462608	-0.727277	-13.483607	-70.836745	-71.931436			
45062	7.361240	-2.360197	5.432633	-1.921675	2.603420	-0.935693	-13.928970	-70.555444	-71.429368			
45063	7.029800	-2.537112	5.331065	-2.098199	2.553428	-1.248075	-14.279522	-70.233256	-70.902205			
45064	7.056260	-2.555753	5.220584	-2.086186	2.397992	-1.240961	-14.652538	-70.010109	-70.282515			
45065	7.542011	-1.982900	5.086652	-1.435781	2.148999	-0.867960	-15.100647	-69.899593	-69.552993			
45066	8.366763	-1.198633	5.204810	-0.550116	2.072092	-0.120770	-15.637215	-69.854620	-68.748063			
45067	9.283856	-0.419208	5.312148	0.352766	1.972598	0.702491	-16.236737	-69.827347	-67.970338			
45068	9.654111	-0.128636	4.978949	0.744881	1.578376	0.909352	-16.716433	-69.725730	-67.387041			
45069	9.992062	0.002049	4.584075	0.979754	1.105455	1.081028	-17.008363	-69.594910	-67.024200			
45070	9.646315	-0.096854	3.977096	0.902817	0.617296	0.564301	-17.065516	-69.455961	-66.900062			
45071	8.714199	-0.017506	3.843178	0.870704	0.779273	-0.360590	-16.925913	-69.306756	-66.962751			
45072	8.508471	0.081651	4.147644	0.911989	1.122386	-0.457892	-16.703274	-69.207937	-67.093768			
45073	8.403359	0.280747	4.207025	1.079313	1.217878	-0.552766	-16.385009	-69.112740	-67.313190			
45074	8.026609	0.428874	4.141467	1.165376	1.279450	-0.937611	-16.018728	-69.011163	-67.554794			
45075	7.868131	0.828396	3.618495	1.568109	0.874602	-1.300151	-15.603801	-68.906092	-67.806960			
45076	7.492857	1.175128	3.352218	1.866076	0.775332	-1.770441	-15.108044	-68.753718	-68.106495			
45077	7.106066	1.681846	3.430590	2.288806	1.021806	-2.143860	-14.583289	-68.578537	-68.445211			
45078	6.843443	2.016426	3.479436	2.561510	1.179365	-2.392926	-14.098031	-68.430694	-68.791583			
45079	6.739592	2.012215	3.443622	2.533084	1.160653	-2.493809	-13.724211	-68.322188	-69.128934			
45080	7.055041	1.629629	3.409700	2.191560	0.951637	-2.174181	-13.516241	-68.280417	-69.400755			
45081	7.522326	0.878563	3.303529	1.517113	0.579440	-1.711257	-13.433971	-68.303054	-69.637265			
45082	8.136257	0.274800	3.339232	0.993293	0.322115	-1.075740	-13.452528	-68.402936	-69.813749			
45083	8.723083	-0.170197	3.182732	0.639222	-0.069902	-0.547839	-13.507419	-68.536415	-69.940700			
45084	9.180935	-0.514802	3.200294	0.349760	-0.233990	-0.085440	-13.572885	-68.678916	-70.030443			
45085	9.495903	-0.490105	3.312246	0.399720	-0.215700	0.245992	-13.629269	-68.764310	-70.115848			
45086	9.345754	-0.424222	3.399138	0.440082	-0.068656	0.131097	-13.704470	-68.754446	-70.217373			
45087	8.932377	-0.489181	3.418805	0.331650	0.074781	-0.241936	-13.804133	-68.658637	-70.333043			
45088	8.517607	-0.706623	3.151048	0.099962	-0.073447	-0.704305	-13.948716	-68.531004	-70.414971			
45089	8.216812	-0.674744	2.828576	0.134026	-0.284453	-1.102165	-14.116895	-68.381160	-70.450556			
45090	8.032363	-0.782757	2.629754	0.034382	-0.435880	-1.335899	-14.301365	-68.226376	-70.438737			
45091	7.794784	-0.698833	2.537961	0.109442	-0.446505	-1.598256	-14.469119	-68.086983	-70.378844			
45092	7.722386	-0.736146	2.076419	0.107547	-0.866405	-1.829804	-14.656725	-67.997464	-70.254563			
45093	7.916822	-0.731763	1.797819	0.167703	-1.199363	-1.751851	-14.878201	-67.946285	-70.043123			
45094	8.355240	-0.673350	1.573063	0.311532	-1.557273	-1.433202	-15.151469	-67.917602	-69.729770			
45095	8.798763	-0.624862	1.686655	0.430911	-1.601538	-0.986430	-15.532020	-67.871596	-69.317785			
45096	9.088622	-0.630595	2.114614	0.465104	-1.308183	-0.563658	-16.001429	-67.767740	-68.860382			
45097	9.251913	-0.641146	2.420706	0.493721	-1.091803	-0.303069	-16.505815	-67.608483	-68.387336			
45098	9.293832	-0.410004	2.605738	0.757095	-0.924302	-0.225947	-17.019705	-67.422320	-67.921848			
45099	8.926649	-0.275734	2.343037	0.893977	-1.042755	-0.682287	-17.507479	-67.196224	-67.513993			
45100	8.636546	-0.183457	2.104663	0.994727	-1.171099	-1.055285	-17.970893	-66.984437	-67.137791			
45101	8.355225	-0.245766	1.728833	0.946081	-1.445278	-1.453559	-18.373623	-66.769213	-66.817470			
45102	8.531768	-0.194123	1.816975	1.051376	-1.441059	-1.271728	-18.772459	-66.582169	-66.514152			
45103	8.767559	-0.491422	2.277636	0.803287	-1.148647	-0.849738	-19.175627	-66.419339	-66.233603			
45104	9.046499	-0.895622	2.781067	0.455941	-0.840344	-0.354279	-19.534406	-66.287573	-65.980471			
45105	9.674378	-0.966172	3.005705	0.505490	-0.879483	0.313135	-19.809009	-66.199914	-65.755584			
45106	9.945701	-1.130459	2.742532	0.421882	-1.252428	0.481474	-19.956366	-66.054780	-65.672008			
45107	9.853309	-1.299977	2.414865	0.269331	-1.562521	0.291526	-19.970639	-65.876963	-65.718423			
45108	9.609696	-1.681801	1.797285	-0.114383	-2.108803	-0.120177	-19.871543	-65.709712	-65.867919			
45109	9.804255	-1.429036	1.300751	0.186452	-2.641516	-0.177072	-19.668877	-65.570807	-66.085278			
45110	10.016793	-0.888696	1.238394	0.749867	-2.751421	-0.090196	-19.421554	-65.443756	-66.349116			
45111	10.363820	-0.221132	1.783574	1.434129	-2.340265	0.341384	-19.204216	-65.347955	-66.606508			
45112	10.635064	0.294452	2.844795	1.936011	-1.436927	0.933067	-19.061195	-65.302830	-66.826720			
45113	10.870021	0.076401	3.746112	1.717024	-0.728678	1.532682	-19.019368	-65.341553	-67.019570			
45114	11.439243	-0.705391	4.153616	1.011501	-0.634395	2.319118	-18.986175	-65.501150	-67.218903			
45115	12.309165	-2.147259	3.716798	-0.285456	-1.470991	3.137034	-18.792576	-65.708070	-67.598079			
45116	12.592083	-3.573891	4.149900	-1.716188	-1.281189	3.750785	-18.229841	-65.844933	-68.292120			
45117	12.203623	-4.094938	5.467992	-2.411438	0.050324	3.963287	-17.346344	-66.037918	-69.178242			
45118	12.391046	-4.214760	7.051181	-2.670970	1.464513	4.738619	-16.280916	-66.448203	-70.122754			
45119	13.035985	-3.635468	7.593888	-2.195019	1.835250	5.439553	-14.858295	-66.950566	-71.209898			
45120	12.995556	-2.148050	7.031931	-0.902423	1.514768	5.014111	-13.113319	-67.352450	-72.427543			
45121	11.511262	-0.743362	6.576578	0.151060	1.794114	3.342877	-11.381226	-67.589590	-73.604389			
45122	9.653033	0.098890	6.430694	0.643281	2.437128	1.509405	-9.968660	-67.804774	-74.497633			
45123	8.863509	1.196028	6.810791	1.500568	3.223262	0.852059	-8.859571	-68.071987	-75.080402			
45124	8.921882	2.076450	7.297199	2.234551	3.798421	1.038055	-8.029286	-68.343727	-75.520451			
45125	8.543242	2.188151	7.244231	2.237789	3.938168	0.662835	-7.361250	-68.553585	-75.986372			
45126	8.254007	2.342912	7.081891	2.327556	3.936772	0.329065	-6.779629	-68.729678	-76.515751			
45127	7.761668	2.106904	6.078945	2.118794	3.162501	-0.477520	-6.248543	-68.825806	-77.188369			
45128	7.515109	1.751029	5.074398	1.825303	2.271059	-1.048954	-5.738839	-68.881310	-77.969886			
45129	7.863069	1.354405	4.541836	1.490569	1.600754	-0.896057	-5.246311	-68.935333	-78.774634			
45130	8.318882	0.771053	4.473899	0.929721	1.310253	-0.472831	-4.796779	-69.010332	-79.554041			
45131	8.718998	-0.296854	4.688026	-0.143839	1.262746	0.009297	-4.399702	-69.087846	-80.265723			
45132	9.095726	-1.190887	4.758430	-1.035799	1.120977	0.408055	-4.031317	-69.171135	-80.874374			
45133	9.636597	-1.793551	4.425567	-1.600808	0.580291	0.806496	-3.689798	-69.255778	-81.335126			
45134	9.825546	-1.896331	3.759398	-1.663409	-0.103565	0.746327	-3.403026	-69.316331	-81.628963			
45135	9.582973	-1.506212	3.731759	-1.302090	-0.006367	0.499081	-3.192332	-69.320267	-81.760401			
45136	8.488027	-1.412320	4.045405	-1.296610	0.671787	-0.417261	-3.143608	-69.276202	-81.747618			
45137	8.008972	-1.487002	4.492460	-1.430838	1.246232	-0.705733	-3.224397	-69.300265	-81.615130			
45138	7.835560	-1.417451	4.470428	-1.362701	1.300622	-0.877291	-3.436840	-69.371502	-81.394420			
45139	7.660555	-1.591266	4.395159	-1.526565	1.288597	-1.063817	-3.750746	-69.452307	-81.118114			
45140	7.323023	-1.950735	4.127572	-1.865406	1.136864	-1.464235	-4.101681	-69.520981	-80.817262			
45141	7.003853	-2.161007	3.857677	-2.054556	0.987927	-1.849752	-4.469161	-69.577077	-80.501143			
45142	6.988574	-2.328112	3.480132	-2.176513	0.637062	-1.987823	-4.830488	-69.648024	-80.157476			
45143	6.733260	-2.338884	3.075955	-2.157020	0.357334	-2.363646	-5.178580	-69.727356	-79.788684			
45144	6.592964	-1.917909	3.077427	-1.734717	0.459801	-2.505471	-5.521237	-69.862998	-79.357028			
45145	6.809863	-1.445529	3.027872	-1.236658	0.405264	-2.333505	-5.878708	-70.055151	-78.876586			
45146	7.171083	-1.245594	3.059778	-1.006563	0.359913	-1.989938	-6.242821	-70.256234	-78.378287			
45147	7.625298	-0.966292	3.118717	-0.694147	0.320098	-1.553092	-6.532371	-70.445987	-77.912425			
45148	8.085082	-0.699814	3.101663	-0.390261	0.206444	-1.136073	-6.718070	-70.595543	-77.570927			
45149	8.388524	-0.467270	3.005501	-0.128441	0.062665	-0.890901	-6.751910	-70.715072	-77.376055			
45150	8.332564	-0.282404	2.941899	0.051237	0.055806	-0.971851	-6.634751	-70.796352	-77.346581			
45151	8.265562	-0.277947	2.820039	0.051634	-0.029428	-1.075076	-6.409578	-70.839642	-77.457146			
45152	8.559461	-0.179765	2.579311	0.178195	-0.337165	-0.879375	-6.068698	-70.855994	-77.675624			
45153	8.764560	0.043841	2.670129	0.387483	-0.298440	-0.663384	-5.646876	-70.806395	-77.999772			
45154	8.865817	-0.045899	2.698183	0.282374	-0.331032	-0.555495	-5.183319	-70.707858	-78.397560			
45155	8.973481	-0.370922	2.659739	-0.050569	-0.463699	-0.457609	-4.683110	-70.574505	-78.841555			
45156	9.089071	-0.416197	2.494539	-0.094797	-0.689751	-0.404060	-4.118732	-70.426653	-79.308698			
45157	9.056992	-0.276274	2.139567	0.054845	-1.027540	-0.559353	-3.561485	-70.242762	-79.771928			
45158	8.812857	-0.032880	1.849148	0.291020	-1.222115	-0.895934	-3.078251	-70.060285	-80.196694			
45159	8.731412	0.116280	1.440848	0.459438	-1.584636	-1.117579	-2.703544	-69.948934	-80.594719			
45160	8.658577	-0.111171	1.082213	0.250247	-1.935862	-1.307143	-2.424508	-69.914601	-80.987125			
45161	9.021545	-0.314830	1.139101	0.041699	-2.032833	-0.944162	-2.130893	-69.944467	-81.432194			
45162	9.230394	-0.845303	1.082548	-0.494005	-2.212633	-0.760242	-1.772478	-69.993336	-81.976975			
45163	9.153360	-1.373631	1.354341	-1.081656	-1.982482	-0.734980	-1.256949	-70.066654	-82.626925			
45164	9.360835	-1.460838	1.879592	-1.249046	-1.563391	-0.363471	-0.594457	-70.104295	-83.359180			
45165	9.335189	-1.654273	2.562044	-1.550901	-0.939153	-0.160798	0.125724	-70.067723	-84.133736			
45166	9.025357	-1.553234	2.995325	-1.545277	-0.432862	-0.311838	0.876496	-69.959405	-84.870619			
45167	8.939090	-1.246912	3.010213	-1.283174	-0.377357	-0.392792	1.539691	-69.868156	-85.502406			
45168	9.270219	-0.692972	2.485585	-0.704010	-0.937735	-0.261758	2.093656	-69.818107	-85.989179			
45169	9.422659	0.008095	2.040425	0.016776	-1.342316	-0.265553	2.465820	-69.777879	-86.325204			
45170	9.708496	0.397062	1.893472	0.409085	-1.543722	-0.042971	2.626203	-69.756377	-86.550462			
45171	9.994814	0.306560	1.795747	0.326946	-1.749107	0.189748	2.644714	-69.721286	-86.707468			
45172	10.221615	0.095307	1.704450	0.126577	-1.941496	0.366223	2.597396	-69.675922	-86.838660			
45173	10.401306	-0.430245	1.713425	-0.396180	-2.052422	0.528430	2.514779	-69.650061	-86.974305			
45174	10.457091	-1.034234	2.116478	-1.035964	-1.752794	0.711303	2.434021	-69.636783	-87.123290			
45175	11.058297	-1.888009	2.835804	-1.940376	-1.362185	1.513022	2.331977	-69.631766	-87.290329			
45176	10.917076	-2.739008	2.935308	-2.798238	-1.288562	1.403828	2.280890	-69.597433	-87.377944			
45177	10.964162	-3.191527	3.193326	-3.267239	-1.098809	1.532523	2.221180	-69.629028	-87.309340			
45178	11.337052	-2.522567	3.250990	-2.591422	-1.102578	1.914623	2.088598	-69.807968	-86.958736			
45179	12.251583	-1.185003	3.045759	-1.198811	-1.450196	2.726911	1.619488	-70.099233	-86.195946			
45180	12.888611	-0.062888	3.849670	-0.083362	-0.748855	3.617566	0.668835	-70.345524	-85.045000			
45181	12.919932	0.685228	6.895514	0.475121	2.225965	4.670415	-0.805221	-70.507274	-83.605095			
45182	12.906175	1.116812	9.740247	0.788348	5.010466	5.580810	-2.722193	-70.741788	-81.878303			
45183	13.312562	1.205898	9.037145	1.133402	4.329740	5.689342	-4.952714	-71.102235	-79.841504			
45184	12.977142	0.903325	6.284007	1.212447	1.915578	4.455059	-7.170898	-71.298414	-77.785528			
45185	10.361910	0.370913	4.941765	0.753639	1.464237	1.554572	-9.064639	-71.238210	-76.109300			
45186	7.806098	-0.351639	4.908231	-0.052788	2.183838	-0.847372	-10.756826	-71.264296	-74.761999			
45187	7.280565	-1.360363	4.660020	-1.002330	2.065131	-1.368585	-12.313253	-71.496267	-73.596273			
45188	7.599829	-2.111545	4.297819	-1.637986	1.618657	-1.130305	-13.526410	-71.709560	-72.652361			
45189	7.694982	-2.902534	4.555978	-2.386972	1.806962	-0.900250	-14.190559	-71.716924	-72.060713			
45190	7.107973	-3.166670	4.774825	-2.698032	2.160478	-1.362664	-14.336633	-71.542710	-71.722125			
45191	7.013447	-3.327548	4.538663	-2.854701	1.910986	-1.502508	-14.252322	-71.334945	-71.416565			
45192	7.506619	-3.060062	4.150446	-2.526850	1.365816	-1.170417	-14.036592	-71.163121	-71.060605			
45193	7.790577	-1.458259	4.488031	-0.948428	1.714642	-0.917610	-13.896031	-71.053635	-70.553023			
45194	8.462847	0.258973	5.326491	0.744428	2.483689	-0.151661	-14.203841	-71.088610	-69.722462			
45195	10.036451	1.228351	5.797905	1.844168	2.607329	1.396923	-15.034675	-71.281298	-68.562962			
45196	11.816547	1.770707	5.619497	2.638619	2.047402	2.961897	-16.141628	-71.461510	-67.229816			
45197	13.037624	1.667365	4.879599	2.818312	1.040152	3.882011	-17.278542	-71.502366	-65.997102			
45198	12.439004	0.815052	3.522676	2.102083	-0.158798	2.968471	-18.129637	-71.356594	-65.070377			
45199	10.653416	0.118730	3.341633	1.250114	0.078318	1.282659	-18.569616	-71.095745	-64.543234			
45200	9.578095	-0.066270	4.333943	0.856785	1.284420	0.586518	-18.888778	-70.946336	-64.116519			
45201	9.397688	-0.170433	4.856788	0.698323	1.809648	0.587864	-19.161498	-70.891227	-63.794558			
45202	8.908757	-0.357291	4.477427	0.493598	1.565315	0.028405	-19.270587	-70.831532	-63.609577			
45203	8.565229	-0.081890	4.060365	0.759625	1.299654	-0.453721	-19.146125	-70.729189	-63.575346			
45204	8.318676	0.719315	3.728486	1.538505	1.156810	-0.873216	-18.803247	-70.607656	-63.660156			
45205	7.995745	1.324276	3.460417	2.100727	1.071119	-1.321531	-18.364818	-70.494334	-63.873319			
45206	7.801832	1.470106	3.506429	2.192063	1.179654	-1.498359	-17.866974	-70.422831	-64.173064			
45207	7.555729	1.529986	3.489186	2.194701	1.233398	-1.733933	-17.294835	-70.377652	-64.591459			
45208	7.665599	1.643412	3.641924	2.278612	1.352363	-1.584395	-16.755081	-70.396126	-65.033406			
45209	7.842453	1.169281	3.319374	1.852775	0.914121	-1.468761	-16.308935	-70.429596	-65.503050			
45210	8.209034	0.871090	3.389013	1.581587	0.816418	-1.068292	-15.924370	-70.471941	-65.910554			
45211	8.703838	0.387449	3.081533	1.191611	0.302492	-0.653469	-15.683328	-70.563353	-66.184093			
45212	9.160287	0.286025	2.959011	1.153290	0.039342	-0.251475	-15.536115	-70.622045	-66.322022			
45213	9.177584	0.475298	3.210871	1.305792	0.296372	-0.170555	-15.438911	-70.556606	-66.438814			
45214	9.048670	0.410728	3.695881	1.172917	0.760644	-0.130112	-15.419955	-70.382419	-66.547466			
45215	8.609325	0.182826	3.666317	0.909013	0.795059	-0.531677	-15.385793	-70.090394	-66.716130			
45216	7.976248	0.151766	3.461058	0.837353	0.745873	-1.189189	-15.353369	-69.718940	-66.901304			
45217	7.450061	-0.009193	3.221091	0.657889	0.610249	-1.745878	-15.363941	-69.313747	-67.093041			
45218	7.088734	-0.350029	2.971312	0.323980	0.393305	-2.135353	-15.431019	-68.923944	-67.226101			
45219	7.006421	-0.359045	2.628206	0.362964	0.053942	-2.329943	-15.546060	-68.563052	-67.311113			
45220	7.150050	-0.236128	2.549156	0.535271	-0.088393	-2.237550	-15.733789	-68.273026	-67.280806			
45221	7.232196	-0.594523	2.171959	0.252805	-0.545933	-2.261960	-16.007550	-68.035791	-67.183742			
45222	7.300732	-0.926646	1.913785	-0.017872	-0.874950	-2.259144	-16.314582	-67.853170	-66.936101			
45223	7.681181	-0.987905	1.929059	0.001089	-1.014246	-1.896312	-16.708723	-67.712035	-66.582594			
45224	7.732456	-0.948067	2.009338	0.069660	-0.961021	-1.825281	-17.177621	-67.570433	-66.144941			
45225	7.706936	-0.774561	2.218760	0.251351	-0.742778	-1.793667	-17.735317	-67.409336	-65.694796			
45226	7.830647	-0.785305	2.243478	0.296102	-0.772739	-1.671189	-18.366642	-67.241926	-65.221479			
45227	7.734842	-0.940771	2.131449	0.176622	-0.872740	-1.783809	-19.003102	-67.052612	-64.795029			
45228	7.549437	-0.959351	1.939810	0.181044	-0.994090	-2.024484	-19.642441	-66.904700	-64.320793			
45229	7.526763	-1.202236	1.224277	0.024762	-1.679673	-2.277809	-20.295480	-66.827585	-63.815801			
45230	7.840261	-1.374132	0.612375	-0.016222	-2.373621	-2.190449	-20.880652	-66.762192	-63.318502			
45231	8.511965	-1.675592	0.589411	-0.163154	-2.665725	-1.537678	-21.357046	-66.687943	-62.899071			
45232	9.510933	-1.815176	1.224401	-0.132477	-2.442427	-0.364471	-21.763609	-66.641292	-62.476327			
45233	10.761145	-2.045984	1.901660	-0.145589	-2.275080	1.068827	-22.131701	-66.634276	-62.076748			
45234	12.174612	-2.368623	2.515308	-0.214298	-2.234097	2.642077	-22.363011	-66.611817	-61.789089			
45235	12.456186	-2.529743	2.397534	-0.293790	-2.472474	2.880021	-22.312972	-66.503234	-61.712525			
45236	11.764277	-1.899469	2.284944	0.207704	-2.280625	2.102960	-22.031014	-66.362775	-61.762208			
45237	10.730550	-1.469537	2.005120	0.451746	-2.149770	0.980786	-21.696545	-66.237800	-61.854775			
45238	10.426872	-1.188832	1.723153	0.684807	-2.289892	0.550209	-21.320619	-66.157483	-61.945313			
45239	10.445207	-0.556995	1.557383	1.311961	-2.380052	0.407493	-20.902764	-66.074126	-62.056562			
45240	10.487307	0.084659	1.802049	1.919160	-2.096118	0.442127	-20.522167	-65.957421	-62.188235			
45241	10.425969	0.797410	3.023064	2.488646	-0.865737	0.748217	-20.212504	-65.829023	-62.315702			
45242	10.649986	1.216447	4.245278	2.819633	0.224250	1.364240	-20.019896	-65.792797	-62.418766			
45243	11.336467	1.099947	4.472111	2.799513	0.168356	2.097790	-19.915126	-65.921024	-62.551444			
45244	11.967028	0.290722	3.351885	2.202011	-1.194228	2.363280	-19.706060	-66.131173	-62.864780			
45245	12.281426	-1.131800	2.643817	0.885446	-2.170720	2.581175	-19.172390	-66.209468	-63.568554			
45246	11.660953	-2.351506	3.636560	-0.574834	-1.250915	2.550000	-18.184200	-66.099699	-64.639526			
45247	10.755382	-2.251344	5.485878	-0.880674	0.748304	2.414550	-17.063065	-66.128021	-65.715922			
45248	11.480491	-2.558931	6.666014	-1.276110	1.516778	3.560986	-16.019359	-66.462650	-66.670836			
45249	13.026409	-3.121028	7.261275	-1.782905	1.454987	5.249053	-14.803129	-66.891042	-67.697151			
45250	13.044352	-2.772629	7.269537	-1.608228	1.539742	5.211589	-13.312695	-67.193938	-68.840589			
45251	11.167856	-1.127185	6.554537	-0.333987	1.813446	3.053999	-11.842057	-67.372453	-69.865389			
45252	9.687126	0.072191	5.860129	0.606552	1.901466	1.331920	-10.657969	-67.568593	-70.602344			
45253	9.272257	0.887628	6.226826	1.206828	2.539815	1.032959	-9.692273	-67.791448	-71.087509			
45254	9.046365	1.654368	7.147790	1.711700	3.626593	1.122652	-8.885226	-68.002179	-71.432090			
45255	8.804928	2.166011	7.660391	2.026982	4.302131	1.063085	-8.256933	-68.157517	-71.708865			
45256	8.087088	2.144388	7.510758	1.886658	4.430130	0.347292	-7.793496	-68.229748	-72.029093			
45257	7.252723	1.974519	6.912311	1.686623	4.144942	-0.633609	-7.387121	-68.262883	-72.474683			
45258	6.847458	2.053406	5.887915	1.862613	3.355873	-1.384137	-6.968669	-68.286155	-73.080234			
45259	6.635206	2.093355	5.087553	1.992893	2.686921	-1.869133	-6.483836	-68.259920	-73.889299			
45260	6.106353	1.375640	4.696209	1.283538	2.365258	-2.464741	-5.857625	-68.185072	-74.918897			
45261	5.918870	0.570856	4.749567	0.451787	2.326194	-2.580679	-5.051154	-68.178717	-76.103176			
45262	6.456160	-0.118225	4.887078	-0.224334	2.140121	-2.005705	-4.115472	-68.223877	-77.381763			
45263	7.424436	-0.503270	4.858130	-0.562657	1.703864	-1.108837	-3.089201	-68.301802	-78.695897			
45264	8.659385	-0.845255	4.945639	-0.875807	1.293767	0.072533	-2.096975	-68.406658	-79.941520			
45265	9.742970	-1.392718	4.666333	-1.371975	0.578018	0.977264	-1.211567	-68.490085	-81.054696			
45266	10.528403	-1.717853	4.465681	-1.682944	0.075203	1.628569	-0.445908	-68.552457	-81.939779			
45267	10.269850	-1.711709	4.212092	-1.709557	-0.064235	1.287520	0.190241	-68.528144	-82.606684			
45268	8.856579	-1.649161	4.255928	-1.754877	0.481943	-0.016786	0.658877	-68.413814	-83.045020			
45269	7.859079	-1.562573	4.738090	-1.793533	1.282597	-0.768662	0.918601	-68.329804	-83.271720			
45270	7.615792	-1.872743	4.496207	-2.088537	1.099719	-1.086178	0.942249	-68.315272	-83.310754			
45271	7.426655	-1.871460	4.370591	-2.075251	1.052071	-1.307036	0.781113	-68.293139	-83.193314			
45272	7.310991	-1.963412	4.129027	-2.127192	0.861085	-1.500768	0.446196	-68.280738	-82.947111			
45273	7.497911	-2.133397	3.799338	-2.224933	0.472340	-1.444202	-0.018677	-68.298095	-82.595740			
45274	7.664315	-2.026321	3.486784	-2.047631	0.147722	-1.398968	-0.525837	-68.346470	-82.164655			
45275	7.713889	-1.726003	3.437858	-1.716036	0.136135	-1.366467	-1.012740	-68.423646	-81.701925			
45276	7.751081	-1.371665	3.394194	-1.335689	0.145956	-1.346529	-1.429201	-68.559082	-81.244934			
45277	8.124980	-1.121723	3.370900	-1.047802	0.050336	-1.007235	-1.781849	-68.789377	-80.815401			
45278	8.786091	-0.940630	3.195308	-0.798059	-0.281903	-0.454610	-2.058191	-69.086517	-80.417827			
45279	9.265861	-0.752197	3.048365	-0.558290	-0.515199	-0.058857	-2.244137	-69.354038	-80.061304			
45280	9.318908	-0.434895	3.083241	-0.241763	-0.419195	0.000737	-2.341446	-69.543919	-79.761940			
45281	9.303095	-0.389521	3.258778	-0.218956	-0.217373	0.047520	-2.407079	-69.675463	-79.531721			
45282	9.161143	-0.286248	3.177130	-0.116085	-0.211550	-0.115039	-2.405026	-69.762437	-79.373561			
45283	9.027641	-0.070364	3.161245	0.087164	-0.138407	-0.248695	-2.329990	-69.817347	-79.291861			
45284	9.044055	0.135660	2.955514	0.312564	-0.297267	-0.306777	-2.188992	-69.857287	-79.284249			
45285	8.950022	0.033097	2.752065	0.224941	-0.469760	-0.463540	-2.018234	-69.833370	-79.327443			
45286	8.784422	0.077933	2.591995	0.273115	-0.564624	-0.675009	-1.808317	-69.756325	-79.403333			
45287	8.730974	0.181357	2.356088	0.398191	-0.763153	-0.808634	-1.633991	-69.675764	-79.509158			
45288	8.735763	0.317645	2.225814	0.546248	-0.875755	-0.851474	-1.525451	-69.622523	-79.633120			
45289	8.870240	0.050385	1.966456	0.322145	-1.210817	-0.813755	-1.435522	-69.602600	-79.813883			
45290	8.951037	-0.139139	1.846403	0.149099	-1.382434	-0.778515	-1.310596	-69.593486	-80.037364			
45291	9.051827	-0.297253	1.871416	-0.015044	-1.420834	-0.674465	-1.149014	-69.586006	-80.316911			
45292	8.971561	-0.536300	1.921205	-0.276128	-1.387125	-0.731544	-0.920973	-69.556096	-80.648024			
45293	8.764725	-0.561279	1.856473	-0.319473	-1.387954	-0.949650	-0.627808	-69.500970	-81.032696			
45294	8.508417	-0.330276	1.776279	-0.111572	-1.351151	-1.220871	-0.310189	-69.432926	-81.459685			
45295	8.368141	-0.397091	1.556725	-0.174668	-1.528459	-1.431750	0.013997	-69.353292	-81.957511			
45296	8.364641	-0.142912	1.574910	0.052018	-1.486034	-1.430747	0.405086	-69.308039	-82.543641			
45297	8.664062	-0.035209	1.428640	0.163877	-1.722380	-1.203698	0.836303	-69.255749	-83.216623			
45298	8.890578	-0.271659	1.748513	-0.132412	-1.550940	-0.882379	1.309254	-69.158313	-83.977082			
45299	8.787462	-0.753323	2.110276	-0.692362	-1.257676	-0.858415	1.874069	-69.039068	-84.812789			
45300	8.575757	-1.063146	2.286631	-1.065432	-1.072969	-1.002693	2.533944	-68.923404	-85.697502			
45301	8.412173	-1.579342	2.270002	-1.621641	-1.105589	-1.177894	3.255865	-68.791426	-86.602651			
45302	8.011970	-1.633127	2.216701	-1.720010	-1.033179	-1.581864	4.032085	-68.647211	-87.491500			
45303	8.443520	-1.403363	2.151671	-1.522184	-1.239276	-1.208090	4.849304	-68.570336	-88.369381			
45304	8.707778	-1.455448	1.748533	-1.571653	-1.722968	-1.120034	5.595394	-68.511321	-89.139226			
45305	8.384619	-1.157440	1.870778	-1.330479	-1.469997	-1.374078	6.262601	-68.434672	-89.750755			
45306	8.527547	-1.148148	1.913064	-1.358970	-1.487741	-1.231495	6.826187	-68.444816	-90.258125			
45307	8.949168	-1.327631	1.324729	-1.498310	-2.198088	-1.064629	7.307453	-68.539258	-90.662379			
45308	9.131401	-1.334275	0.990109	-1.489160	-2.558296	-1.016066	7.695964	-68.669915	-90.985874			
45309	9.279947	-1.940769	0.966053	-2.106168	-2.680370	-0.913424	7.977665	-68.805009	-91.209605			
45310	9.505384	-2.148608	1.698980	-2.412674	-2.086042	-0.448780	8.204965	-68.953358	-91.296250			
45311	10.404339	-2.360688	2.760582	-2.762763	-1.425932	0.759811	8.244892	-69.137899	-91.166465			
45312	11.598774	-1.952970	4.693086	-2.598383	0.025645	2.581594	8.042236	-69.422458	-90.724824			
45313	13.811538	-0.591909	6.823691	-1.495196	1.465094	5.461095	7.363999	-69.845183	-89.800902			
45314	16.381668	2.037337	8.688323	0.960456	2.789728	8.607061	6.023297	-70.422824	-88.198038			
45315	19.101320	5.709827	10.729119	4.547274	4.501993	11.904065	3.655887	-71.082556	-85.679893			
45316	20.197440	7.312422	11.084708	6.457426	4.977046	12.942214	0.080645	-71.648289	-82.297726			
45317	17.432393	5.100544	8.367119	4.944056	3.157548	9.304821	-4.251839	-71.743386	-78.544952			
45318	11.552576	2.043462	6.551497	2.150676	2.876082	3.135423	-8.213988	-71.394251	-75.414122			
45319	7.038064	-0.646275	6.427094	-0.592561	3.824503	-1.078997	-11.551327	-71.144444	-73.125867			
45320	6.119325	-3.798101	5.247200	-3.526865	2.734338	-2.099948	-14.315300	-71.308824	-71.448941			
45321	7.620819	-5.326711	4.352124	-4.716849	1.423216	-0.806293	-16.249424	-71.607228	-70.361948			
45322	8.678520	-6.538698	4.243342	-5.729206	1.033607	0.295926	-17.257313	-71.731738	-69.959132			
45323	8.290904	-6.785666	4.714750	-5.995489	1.627455	0.107932	-17.298880	-71.583060	-70.110297			
45324	7.043604	-5.938522	5.235398	-5.302057	2.510682	-0.988172	-16.776242	-71.288977	-70.461098			
45325	5.788361	-4.358540	5.037726	-3.884859	2.728373	-2.373341	-16.027570	-70.938942	-70.766926			
45326	5.498642	-1.811702	4.781354	-1.411299	2.683507	-2.943534	-15.349150	-70.606064	-70.884155			
45327	5.605272	1.031490	5.116873	1.374066	3.151921	-2.968521	-14.956756	-70.319488	-70.772524			
45328	5.481313	2.951053	5.798404	3.202024	3.988697	-3.014726	-14.838434	-70.102852	-70.545333			
45329	6.755351	4.884625	7.064443	5.174372	4.964511	-1.567682	-15.100901	-70.124548	-70.118820			
45330	9.799808	6.106374	7.206876	6.749006	4.280535	1.205048	-15.952435	-70.373421	-69.462200			
45331	12.094204	5.042504	4.960084	6.165009	1.360822	2.694878	-17.142413	-70.518347	-68.868817			
45332	11.048620	3.710709	3.434673	4.867724	0.080947	1.319960	-17.802177	-70.205713	-68.934739			
45333	9.008762	2.968323	4.352520	3.912223	1.422611	-0.242835	-18.017146	-69.716180	-69.619497			
45334	8.336926	2.004193	4.864643	2.921990	1.950331	-0.601663	-18.057648	-69.368726	-70.558310			
45335	8.173001	1.038950	4.892315	1.995247	1.899394	-0.635394	-18.037654	-69.098336	-71.630947			
45336	7.737750	-0.497501	4.340298	0.451444	1.430997	-1.054450	-17.953099	-68.902915	-72.762166			
45337	6.993909	-1.265532	3.729736	-0.393182	1.085378	-1.869475	-17.644215	-68.846224	-73.885403			
45338	6.478810	-0.950046	3.516085	-0.145300	1.063234	-2.458178	-17.182899	-68.957499	-74.957982			
45339	7.053685	0.019978	3.758756	0.870727	1.085737	-1.942104	-16.725878	-69.182754	-76.012576			
45340	8.169500	0.952003	4.304440	1.911031	1.198737	-0.807900	-16.346316	-69.440268	-77.055926			
45341	9.326483	1.218482	4.449151	2.262426	0.936607	0.300032	-16.041531	-69.689735	-78.140965			
45342	10.445120	0.950698	4.148982	2.033451	0.297222	1.277628	-15.801783	-69.904571	-79.231959			
45343	11.255819	0.258419	3.534034	1.315045	-0.496756	1.903688	-15.627861	-70.058188	-80.275827			
45344	11.545634	-0.373298	3.374904	0.662551	-0.683476	2.184180	-15.459472	-70.119783	-81.288330			
45345	11.058499	-0.586481	3.551869	0.430129	-0.341638	1.804040	-15.321472	-70.063661	-82.263458			
45346	10.481817	-0.859023	3.859146	0.173039	0.150828	1.387611	-15.318277	-69.955018	-83.150815			
45347	10.423432	-1.361893	3.729633	-0.338695	0.089218	1.335860	-15.376351	-69.771255	-84.025105			
45348	10.244553	-1.595695	3.673334	-0.578005	0.093413	1.171276	-15.335327	-69.461844	-84.997664			
45349	9.699875	-1.654189	3.433800	-0.696446	0.015135	0.585837	-15.168540	-69.052381	-86.063401			
45350	9.099349	-1.625671	3.248757	-0.727687	-0.006907	-0.042043	-14.931254	-68.645566	-87.120884			
45351	8.815312	-1.456437	3.138637	-0.603356	-0.092213	-0.362333	-14.673505	-68.286900	-88.117151			
45352	8.635617	-1.036922	3.063862	-0.228195	-0.226312	-0.596784	-14.443943	-68.001899	-89.000671			
45353	8.444077	-0.540832	2.982195	0.220285	-0.373627	-0.851649	-14.307998	-67.799352	-89.759336			
45354	8.272074	-0.373768	2.929066	0.361269	-0.421606	-1.046957	-14.320548	-67.683757	-90.378540			
45355	8.233124	-0.052636	2.816321	0.641658	-0.600921	-1.155556	-14.442431	-67.642620	-90.895287			
45356	8.222241	0.311114	2.671399	0.956991	-0.827471	-1.254775	-14.700083	-67.646159	-91.345715			
45357	8.361233	0.615707	2.559655	1.222760	-1.072762	-1.199026	-15.037627	-67.638618	-91.795592			
45358	8.475844	1.058413	2.661723	1.679832	-1.169365	-1.103174	-15.426826	-67.609261	-92.279193			
45359	8.386103	0.975388	2.627246	1.596861	-1.174097	-1.195729	-15.858868	-67.564282	-92.813153			
45360	8.319530	0.707893	2.360047	1.263357	-1.333493	-1.332642	-16.292349	-67.521966	-93.377908			
45361	8.453269	0.664293	2.192453	1.162685	-1.546034	-1.270805	-16.704802	-67.463159	-93.969725			
45362	8.584368	0.449182	2.065266	0.908267	-1.664621	-1.177731	-17.099013	-67.377054	-94.594327			
45363	8.632241	0.241744	2.292411	0.792369	-1.446124	-1.031459	-17.529062	-67.294870	-95.189319			
45364	8.846332	0.116805	2.397027	0.711430	-1.419846	-0.785239	-18.033633	-67.244138	-95.707973			
45365	8.867751	0.137972	2.739078	0.874611	-1.173452	-0.646631	-18.594104	-67.191271	-96.179282			
45366	8.653293	-0.080975	3.058709	0.832657	-0.765439	-0.704317	-19.167129	-67.127151	-96.646143			
45367	8.827827	-0.539160	3.011126	0.410085	-0.711634	-0.506054	-19.680910	-67.036555	-97.158822			
45368	9.039904	-1.086587	3.183683	0.004191	-0.444527	-0.177405	-20.123553	-66.915300	-97.749743			
45369	9.600860	-1.591372	3.230672	-0.433792	-0.423060	0.423475	-20.534244	-66.797911	-98.372695			
45370	10.137295	-2.182436	2.998994	-1.076730	-0.560780	0.913351	-20.933366	-66.678737	-99.007439			
45371	10.098142	-2.825188	3.191491	-1.520394	-0.098272	1.041734	-21.345154	-66.527403	-99.633309			
45372	9.704909	-3.427784	3.419433	-1.868761	0.523220	0.857896	-21.793972	-66.383035	-100.200226			
45373	9.437833	-3.875457	3.649651	-2.070850	1.033246	0.772944	-22.262427	-66.273819	-100.712577			
45374	9.547383	-4.465954	3.572567	-2.569873	1.251044	0.943282	-22.700052	-66.233586	-101.194596			
45375	9.621656	-4.451480	3.482816	-2.572781	1.168271	0.982580	-22.913696	-66.168899	-101.741520			
45376	9.275846	-3.380361	3.600108	-1.576186	0.823703	0.544247	-22.883295	-66.028018	-102.379531			
45377	8.751750	-2.199649	4.136908	-0.259017	0.771047	0.080944	-22.781335	-65.880755	-103.042269			
45378	8.706524	-1.248971	4.843077	0.923640	0.763126	0.156435	-22.762322	-65.840451	-103.637934			
45379	9.330959	-0.996048	5.301042	1.343870	0.694276	0.858391	-22.873062	-65.901519	-104.201876			
45380	10.351756	-1.329164	5.538567	1.131614	0.647835	1.930438	-22.976565	-65.984988	-104.857009			
45381	11.241255	-2.037757	5.392784	0.400434	0.606611	2.799690	-22.930674	-66.021328	-105.703427			
45382	11.519722	-2.428868	5.378421	0.044281	0.718641	3.110639	-22.605241	-65.965026	-106.794744			
45383	10.615948	-2.200407	5.375123	0.295267	0.920436	2.249549	-22.045776	-65.832204	-108.070775			
45384	9.383453	-1.543308	5.267236	0.851037	0.904793	0.986926	-21.395354	-65.687357	-109.422082			
45385	8.540035	-0.706744	5.218922	1.538171	0.654360	0.080467	-20.825148	-65.570797	-110.737996			
45386	8.117739	-0.324583	5.263791	1.888803	0.578883	-0.335993	-20.377998	-65.503627	-112.004770			
45387	8.302956	0.168622	5.213869	2.175146	0.128608	-0.252142	-20.026044	-65.481221	-113.219079			
45388	8.397680	0.939845	5.170982	2.678103	-0.473436	-0.286574	-19.713568	-65.476442	-114.432595			
45389	8.363964	1.631387	5.100955	3.111463	-1.011516	-0.435461	-19.468269	-65.458975	-115.679343			
45390	8.436709	1.843514	4.816873	3.021411	-1.416287	-0.504430	-19.262283	-65.433465	-117.012763			
45391	8.442891	1.507259	4.634704	2.613638	-1.355697	-0.519398	-19.048211	-65.374977	-118.482433			
45392	8.330030	1.072019	4.601427	2.265394	-1.083524	-0.571191	-18.796095	-65.290556	-120.096407			
45393	8.136746	0.454019	4.578566	1.830003	-0.634147	-0.668039	-18.545247	-65.174176	-121.832366			
45394	7.949857	-0.313533	4.335275	1.157794	-0.182367	-0.828304	-18.307852	-65.018145	-123.658935			
45395	7.780262	-0.917178	4.066332	0.590149	0.154561	-1.007208	-18.082175	-64.850048	-125.536220			
45396	7.827182	-1.383876	3.530158	-0.131083	0.205333	-1.118866	-17.862273	-64.685072	-127.422325			
45397	8.031995	-1.780963	3.190019	-0.699523	0.283219	-1.021134	-17.629878	-64.491685	-129.321031			
45398	7.964224	-2.360519	3.209008	-1.009324	0.797347	-1.001097	-17.405323	-64.269628	-131.182937			
45399	8.225859	-2.776787	3.190711	-1.330432	1.066019	-0.721512	-17.216481	-64.055335	-132.938370			
45400	8.288237	-3.047953	3.357098	-1.354599	1.365720	-0.563101	-17.081880	-63.843225	-134.586083			
45401	8.546818	-3.191781	3.466882	-1.407194	1.471113	-0.267510	-17.010972	-63.671569	-136.113124			
45402	9.094154	-2.981707	3.475855	-1.463894	1.144693	0.198427	-16.964924	-63.542002	-137.554065			
45403	9.756721	-2.863082	3.519358	-1.587230	0.881611	0.792977	-16.896689	-63.418263	-139.008170			
45404	9.927071	-2.598248	3.504592	-1.545398	0.620397	0.902095	-16.778031	-63.318770	-140.486554			
45405	9.738253	-2.212164	3.118102	-1.656112	0.239016	0.514451	-16.620525	-63.256319	-142.009658			
45406	9.542114	-1.752748	2.971239	-1.543793	-0.124593	0.214940	-16.466307	-63.254040	-143.568829			
45407	9.154377	-1.622826	3.016936	-1.322958	-0.080814	-0.128620	-16.325624	-63.301706	-145.142402			
45408	9.147023	-1.564385	3.057786	-1.263333	-0.074582	-0.124364	-16.187469	-63.391721	-146.712467			
45409	9.352650	-1.602115	3.053445	-1.350633	-0.040501	0.063359	-16.047883	-63.481251	-148.292955			
45410	9.377534	-1.775974	3.039724	-1.416389	0.168009	0.101823	-15.877853	-63.549630	-149.891774			
