// General information: 
//  MT Manager version: 2022.0.0 
//  XDA version: 2022.0.0 build 7085 rev 119802 built on 2022-11-08
// Device information: 
//  DeviceId: 00B49380
//  ProductCode: MTW2-3A7G6
//  Firmware Version: 4.6.0
//  Hardware Version: 2.0.0
// Device settings: 
//  Filter Profile: human(46.1)
//  Option Flags: Orientation Smoother Disabled, Position/Velocity Smoother Disabled, Continuous Zero Rotation Update Disabled, AHS Disabled, ICC Disabled
// Coordinate system: ENU
PacketCounter	Acc_X	Acc_Y	Acc_Z	FreeAcc_E	FreeAcc_N	FreeAcc_U	Roll	Pitch	Yaw	Vel_E	Vel_N	Vel_U
44365	8.850206	2.425624	2.938871	-1.267819	-0.338926	-0.266771	53.312677	-72.977259	-28.509386			
44366	8.903191	2.501731	2.958647	-1.298180	-0.298523	-0.194753	53.571240	-72.929122	-28.887822			
44367	8.930602	2.509604	2.920189	-1.262354	-0.292078	-0.174098	53.887888	-72.890279	-29.349712			
44368	8.930138	2.520025	2.912622	-1.260689	-0.291515	-0.173863	54.162102	-72.846612	-29.785738			
44369	8.994628	2.524721	3.018924	-1.344669	-0.354053	-0.093739	54.482750	-72.819527	-30.289199			
44370	8.981920	2.471958	3.077351	-1.384533	-0.433162	-0.109545	54.750471	-72.804102	-30.765379			
44371	9.022166	2.443452	3.066039	-1.362099	-0.466111	-0.081400	54.984682	-72.807761	-31.239354			
44372	9.111342	2.390649	3.101146	-1.357211	-0.542648	-0.003897	55.095462	-72.808553	-31.588259			
44373	9.165747	2.401121	3.235335	-1.473907	-0.594774	0.072530	55.156178	-72.816726	-31.885882			
44374	9.234842	2.320054	3.258564	-1.451091	-0.682581	0.122684	55.158992	-72.823103	-32.091069			
44375	9.199929	2.263872	3.299995	-1.483434	-0.740308	0.082015	55.230493	-72.845259	-32.340599			
44376	9.126680	2.094268	3.218364	-1.373551	-0.845691	-0.043436	55.309487	-72.864460	-32.550218			
44377	9.053582	1.952302	3.283669	-1.408623	-0.988408	-0.137971	55.432500	-72.886092	-32.769100			
44378	9.103681	1.876531	3.434720	-1.510565	-1.123815	-0.083818	55.458627	-72.901699	-32.870624			
44379	9.184621	1.791792	3.222994	-1.276567	-1.124038	-0.062693	55.406454	-72.947087	-32.918752			
44380	9.658754	1.733500	2.563740	-0.536976	-0.977952	0.268212	54.934892	-72.903565	-32.523120			
44381	8.938196	1.688075	2.716205	-0.817434	-0.950895	-0.402786	54.443492	-72.827508	-32.035359			
44382	8.945983	1.647920	2.921527	-0.963639	-1.059382	-0.366490	54.110921	-72.754596	-31.639744			
44383	8.820178	1.642948	3.094054	-1.133969	-1.109856	-0.455855	53.954296	-72.703429	-31.410637			
44384	8.767777	1.668754	3.058291	-1.112516	-1.064639	-0.504592	53.898366	-72.662648	-31.287811			
44385	8.875551	1.873343	2.794636	-0.911681	-0.795254	-0.398272	53.853251	-72.604214	-31.165814			
44386	8.786982	2.146501	2.568162	-0.810828	-0.445718	-0.455452	53.615879	-72.507170	-30.828166			
44387	8.639279	2.345354	2.375716	-0.726345	-0.166030	-0.580858	53.333331	-72.397858	-30.433057			
44388	8.424415	2.192568	2.142249	-0.495848	-0.175990	-0.863358	53.107691	-72.289051	-30.061052			
44389	8.381147	1.903404	2.402830	-0.622613	-0.538842	-0.926622	53.069627	-72.230342	-29.886523			
44390	8.409438	1.532999	2.249278	-0.335535	-0.818918	-1.018100	53.142281	-72.196208	-29.795343			
44391	8.527457	1.392106	2.024146	-0.049396	-0.879384	-0.982235	53.314126	-72.172090	-29.766499			
44392	8.646539	1.371653	1.773779	0.218743	-0.821053	-0.920647	53.474529	-72.118388	-29.660832			
44393	8.799348	1.414092	1.914233	0.125936	-0.876545	-0.740297	53.658626	-72.053862	-29.526876			
44394	9.051971	1.446123	1.652964	0.424982	-0.787143	-0.541144	53.853591	-71.975234	-29.331089			
44395	9.865456	1.671693	1.280197	0.903046	-0.562270	0.218713	54.010817	-71.843510	-29.066131			
44396	9.367939	1.433522	1.159984	0.992764	-0.652777	-0.339195	53.892794	-71.666696	-28.623709			
44397	9.646623	1.488109	1.260694	0.981343	-0.698975	-0.044907	54.074254	-71.572629	-28.534618			
44398	10.362952	1.618693	0.872879	1.475094	-0.530356	0.594794	54.403868	-71.541531	-28.575859			
44399	10.767336	1.975745	0.894164	1.421722	-0.299880	1.074341	54.745347	-71.525825	-28.596792			
44400	10.551874	1.986140	0.954607	1.300678	-0.293590	0.884046	54.997653	-71.523700	-28.499147			
44401	10.251491	1.964947	1.246650	0.962943	-0.406585	0.647505	55.246051	-71.562300	-28.398569			
44402	9.883848	1.776057	1.415279	0.781201	-0.595247	0.281035	55.460574	-71.643028	-28.271793			
44403	9.734387	1.658689	1.615069	0.594565	-0.770307	0.145778	55.811573	-71.786407	-28.294410			
44404	9.851536	1.629874	1.670328	0.560581	-0.841022	0.260920	56.284091	-71.975810	-28.429249			
44405	10.005047	1.675473	1.579029	0.615983	-0.787371	0.405037	56.960994	-72.217155	-28.772318			
44406	10.052696	1.587178	1.514867	0.669671	-0.846596	0.419868	57.666484	-72.483936	-29.174112			
44407	9.921982	1.552683	1.603958	0.516890	-0.908523	0.303457	58.382596	-72.756176	-29.605537			
44408	9.805398	1.495854	1.674355	0.398813	-0.979355	0.190734	59.012425	-73.021516	-29.959591			
44409	9.547461	1.499172	1.763839	0.202814	-0.988154	-0.040540	59.673871	-73.286563	-30.358808			
44410	9.310860	1.451611	1.789047	0.095412	-1.010473	-0.274888	60.304730	-73.544435	-30.744069			
44411	8.954288	1.488089	1.713632	0.005951	-0.895535	-0.618777	61.032554	-73.806401	-31.245756			
44412	8.927698	1.427441	1.718565	-0.024651	-0.952103	-0.659135	61.787421	-74.057372	-31.796402			
44413	8.711768	1.408052	1.627077	-0.038183	-0.900676	-0.884529	62.655269	-74.301317	-32.492746			
44414	8.704268	1.372395	1.511714	0.026942	-0.882125	-0.915837	63.571441	-74.527721	-33.254961			
44415	9.107551	1.331633	1.388733	0.190237	-0.928710	-0.552538	64.615504	-74.734572	-34.171101			
44416	9.165129	1.269317	1.317074	0.247278	-0.970848	-0.520672	65.579684	-74.892359	-35.038868			
44417	9.317280	1.173922	1.208518	0.376827	-1.039374	-0.409079	66.528747	-75.000114	-35.922524			
44418	9.472475	1.052564	1.060599	0.562136	-1.110997	-0.304264	67.371523	-75.052382	-36.704630			
44419	9.605956	0.951302	0.972010	0.688082	-1.196746	-0.209645	68.189235	-75.065549	-37.468744			
44420	9.640478	0.703331	1.026188	0.752412	-1.463757	-0.232616	68.864574	-75.041006	-38.086986			
44421	9.811260	0.542490	1.122119	0.770814	-1.702526	-0.100764	69.522486	-74.995452	-38.682526			
44422	9.985510	0.425966	1.180837	0.808046	-1.883166	0.040582	69.994216	-74.923473	-39.063424			
44423	10.088058	0.416334	1.204567	0.814549	-1.943565	0.134788	70.384029	-74.833871	-39.306149			
44424	10.264631	0.458971	1.248570	0.802700	-1.978840	0.315099	70.619764	-74.730835	-39.338069			
44425	10.094932	0.509152	1.239957	0.765131	-1.921325	0.158642	70.799956	-74.622037	-39.286979			
44426	9.931575	0.566851	1.254879	0.708103	-1.867998	0.012858	70.971009	-74.516712	-39.215220			
44427	9.822121	0.650326	1.267392	0.646728	-1.804175	-0.074622	71.265860	-74.419729	-39.253507			
44428	9.694467	0.863140	1.231000	0.555702	-1.604712	-0.150435	71.581982	-74.325427	-39.301383			
44429	9.573076	0.899715	1.421528	0.360264	-1.678406	-0.245707	71.992576	-74.234713	-39.455590			
44430	9.581286	0.901508	1.559058	0.255958	-1.774581	-0.229905	72.334569	-74.134348	-39.544516			
44431	9.411079	0.952627	1.541271	0.218401	-1.717029	-0.386370	72.705950	-74.020157	-39.666788			
44432	9.191721	0.945777	1.535660	0.192831	-1.703487	-0.603921	73.022140	-73.896915	-39.742116			
44433	8.953932	0.841759	1.577786	0.174152	-1.792987	-0.861393	73.340155	-73.764367	-39.822522			
44434	8.891267	0.878253	1.674348	0.077811	-1.828469	-0.908757	73.620206	-73.626777	-39.858097			
44435	8.925631	1.078375	1.808498	-0.116095	-1.775442	-0.816316	74.008311	-73.475982	-40.005973			
44436	8.945049	1.177063	1.768577	-0.115516	-1.706426	-0.779310	74.401971	-73.304883	-40.155814			
44437	8.967444	1.162653	1.666300	-0.004343	-1.698823	-0.776249	74.899370	-73.111368	-40.402159			
44438	8.843114	1.283035	1.575703	-0.004673	-1.564944	-0.875101	75.387316	-72.888180	-40.635124			
44439	8.875518	1.358814	1.345526	0.165444	-1.421159	-0.846954	75.975138	-72.645494	-40.992860			
44440	8.908134	1.420366	1.400630	0.114299	-1.453851	-0.801189	76.430352	-72.384971	-41.241686			
44441	8.902476	1.506610	1.349380	0.130996	-1.397765	-0.791952	76.774552	-72.104287	-41.393552			
44442	8.939912	1.618245	1.389233	0.075660	-1.379743	-0.726374	77.009035	-71.825737	-41.441018			
44443	9.047028	1.664190	1.469611	0.039866	-1.451730	-0.611128	77.232939	-71.551735	-41.493141			
44444	9.088423	1.754312	1.238895	0.215059	-1.288935	-0.565843	77.442279	-71.296031	-41.515546			
44445	9.164620	1.797823	0.931037	0.479194	-1.125852	-0.507208	77.809397	-71.059303	-41.671101			
44446	9.276683	1.826945	0.836536	0.583209	-1.109215	-0.403983	78.276362	-70.845980	-41.900790			
44447	9.377830	1.948670	0.605156	0.733334	-0.941981	-0.289980	78.916723	-70.650993	-42.259152			
44448	9.486654	2.297360	0.443694	0.697045	-0.646305	-0.088102	79.603158	-70.470503	-42.646519			
44449	9.744596	2.525616	0.321077	0.726255	-0.506093	0.220018	80.353234	-70.290113	-43.141858			
44450	9.896781	2.734887	0.204396	0.732828	-0.360647	0.424516	81.055481	-70.124965	-43.663455			
44451	9.971518	2.745301	0.414347	0.572703	-0.547949	0.507735	81.671609	-69.972066	-44.214187			
44452	10.000354	2.577427	0.820640	0.348173	-0.971618	0.495477	82.173626	-69.852648	-44.799133			
44453	10.119801	2.403263	1.314086	0.071617	-1.469671	0.567471	82.666960	-69.780579	-45.541180			
44454	10.097246	2.404789	1.574069	-0.165254	-1.647023	0.554326	83.157572	-69.766621	-46.373455			
44455	10.625781	2.335908	2.008644	-0.385996	-2.113701	1.040027	83.686208	-69.806370	-47.301240			
44456	11.477283	1.821431	2.079700	-0.007622	-2.770421	1.663169	84.017680	-69.900192	-48.058094			
44457	12.401843	0.982496	1.655444	0.950709	-3.396205	2.231945	84.233707	-70.042296	-48.676151			
44458	13.351424	0.255237	1.039447	2.001789	-3.825872	2.866483	84.324831	-70.237007	-49.117072			
44459	14.105761	0.242518	0.743119	2.356887	-3.839619	3.577069	84.458001	-70.457780	-49.526346			
44460	14.761929	0.468074	0.441559	2.565080	-3.635044	4.277560	84.717081	-70.678315	-49.915951			
44461	15.217679	1.243192	-0.377074	2.856673	-2.664694	4.952271	85.249070	-70.840898	-50.363180			
44462	15.196765	2.369791	-1.205104	2.874964	-1.299590	5.288814	85.728778	-70.931810	-50.565581			
44463	14.899790	2.896127	-2.399130	3.467741	-0.120183	5.157529	86.082291	-70.943838	-50.479410			
44464	14.417636	3.546029	-3.112954	3.582572	0.943962	4.898093	85.931615	-70.902557	-49.756955			
44465	13.323361	4.472325	-3.337568	3.034136	2.105515	4.152034	85.254328	-70.827356	-48.403179			
44466	11.815787	5.480626	-2.371361	1.402023	2.726585	3.066478	83.964229	-70.773633	-46.399774			
44467	10.159608	6.237495	-0.932242	-0.507899	2.870684	1.784465	82.543476	-70.742132	-44.174197			
44468	8.598147	6.836753	0.339674	-2.197613	2.921791	0.551592	81.235086	-70.758431	-42.097437			
44469	7.365014	7.095369	1.000675	-3.156825	2.983044	-0.500065	80.052683	-70.800458	-40.274733			
44470	6.905926	7.248150	1.752938	-3.929993	2.727426	-0.845162	78.750293	-70.873144	-38.574601			
44471	6.691001	6.996949	2.338407	-4.258177	2.245353	-1.093687	77.221498	-70.977667	-36.907130			
44472	6.553333	6.965688	2.761591	-4.565806	2.042569	-1.206059	75.446676	-71.151309	-35.224865			
44473	6.971762	6.633989	2.697073	-4.181108	1.859211	-0.927300	73.754415	-71.406251	-33.845891			
44474	7.224130	5.973692	2.633290	-3.646804	1.484616	-0.907481	71.852553	-71.690304	-32.378941			
44475	7.268899	5.391345	2.888416	-3.460685	1.003827	-1.022864	69.879019	-71.969423	-30.934701			
44476	7.748985	4.475943	2.489003	-2.469477	0.617829	-0.879899	67.949581	-72.225258	-29.603216			
44477	8.350774	3.763453	1.826857	-1.369338	0.509655	-0.587681	66.254846	-72.417663	-28.431131			
44478	8.631839	3.251093	1.244180	-0.531759	0.522006	-0.535266	64.929060	-72.536961	-27.515776			
44479	8.693252	2.873741	0.775566	0.076878	0.564502	-0.641657	64.088088	-72.615706	-27.046597			
44480	9.402961	2.736617	0.770352	0.355838	0.398558	-0.003882	63.579101	-72.677947	-26.954192			
44481	10.089281	2.368942	0.876404	0.668887	-0.021820	0.566407	62.970247	-72.692505	-26.791780			
44482	9.830310	2.359433	1.169853	0.400307	-0.136418	0.355467	61.905711	-72.599349	-26.068587			
44483	9.904435	2.143509	1.250912	0.519220	-0.324776	0.379555	60.745794	-72.441257	-25.131288			
44484	9.023529	2.214388	1.153387	0.368694	-0.057544	-0.457564	59.647215	-72.253058	-24.054350			
44485	8.153736	2.407950	1.641551	-0.318861	-0.051085	-1.159838	58.652849	-72.076145	-23.016727			
44486	7.764941	2.434270	2.224455	-0.860476	-0.295156	-1.425768	57.560680	-71.907954	-21.886455			
44487	7.357989	2.366972	2.411685	-1.048403	-0.379134	-1.792983	56.474376	-71.745093	-20.726998			
44488	6.975435	2.478750	2.562389	-1.301315	-0.304910	-2.093868	55.430694	-71.583118	-19.555585			
44489	6.777488	2.593854	2.749087	-1.535433	-0.278163	-2.211054	54.569165	-71.430301	-18.528648			
44490	6.724618	2.679192	2.861237	-1.654031	-0.251380	-2.210968	53.802504	-71.278135	-17.574282			
44491	6.576467	2.743445	3.024633	-1.832583	-0.267756	-2.296394	53.104245	-71.124993	-16.712257			
44492	6.406041	2.674970	3.059073	-1.846025	-0.309717	-2.461025	52.427326	-70.978856	-15.939247			
44493	6.341935	2.684722	3.388401	-2.102308	-0.476692	-2.446405	51.808504	-70.865887	-15.333908			
44494	6.762478	2.302141	3.565662	-1.873269	-0.896210	-2.103443	51.034327	-70.763967	-14.702910			
44495	7.062163	2.172241	3.679550	-1.773716	-1.057016	-1.820921	50.152003	-70.661274	-14.012505			
44496	6.942798	2.003667	3.182136	-1.311198	-0.840110	-2.072025	49.069769	-70.531568	-13.143205			
44497	6.478171	1.836646	2.792340	-1.047605	-0.662178	-2.629305	48.027815	-70.439719	-12.335128			
44498	6.325285	1.612619	3.014418	-1.132432	-0.918122	-2.772023	46.995766	-70.384198	-11.595945			
44499	6.454033	1.286656	3.223870	-1.073907	-1.268341	-2.675375	46.075631	-70.413721	-11.071320			
44500	6.645592	0.778435	3.349086	-0.846825	-1.721217	-2.580375	45.230328	-70.493326	-10.695361			
44501	6.846624	0.543714	3.504080	-0.802384	-1.974796	-2.402787	44.600234	-70.646710	-10.560942			
44502	7.117303	0.222268	3.613600	-0.668373	-2.281132	-2.189501	44.043476	-70.842013	-10.544981			
44503	7.325201	0.021511	3.962277	-0.822638	-2.621010	-1.950632	43.592696	-71.068902	-10.670592			
44504	7.790059	-0.212774	4.243917	-0.836484	-2.964000	-1.490685	43.145366	-71.302472	-10.837833			
44505	8.091591	-0.517262	4.146578	-0.572969	-3.151593	-1.287767	42.727615	-71.524857	-11.053254			
44506	8.456504	-0.472919	3.917773	-0.350737	-2.983461	-0.977490	42.301555	-71.698024	-11.198112			
44507	8.822743	-0.749590	3.620570	0.091574	-3.060980	-0.749960	41.942061	-71.831630	-11.339522			
44508	9.368757	-0.724751	3.699773	0.150541	-3.092266	-0.200073	41.540077	-71.876920	-11.275535			
44509	9.575209	-0.498911	3.586971	0.190820	-2.835232	0.022195	41.185590	-71.840511	-11.068792			
44510	9.685057	-0.074934	3.752605	-0.105792	-2.548615	0.256144	41.014612	-71.811001	-10.904714			
44511	10.104954	0.583968	4.179055	-0.635918	-2.225813	0.890442	41.156198	-71.811779	-10.941405			
44512	10.502058	1.498436	4.444752	-1.162118	-1.615608	1.515754	41.476347	-71.811687	-11.068773			
44513	10.750778	2.001970	4.652992	-1.496180	-1.333700	1.901410	41.883305	-71.799125	-11.303744			
44514	10.476746	2.027458	4.691965	-1.616358	-1.339662	1.653784	42.128677	-71.727909	-11.440353			
44515	9.725486	1.505964	4.600846	-1.517013	-1.709024	0.807985	42.375476	-71.699387	-11.708982			
44516	9.339457	1.028438	4.971334	-1.717245	-2.290952	0.424495	42.497713	-71.726592	-11.951581			
44517	9.163801	0.766655	5.407641	-2.026861	-2.725210	0.300205	42.517257	-71.830224	-12.162943			
44518	9.656573	0.805085	6.040509	-2.447149	-3.032157	0.920562	42.328309	-71.975113	-12.145388			
44519	11.502359	1.637726	6.245550	-2.474230	-2.509180	2.898540	41.755055	-72.053480	-11.685875			
44520	14.160443	2.093419	4.877748	-0.744268	-1.519652	5.214921	40.629937	-72.023669	-10.686355			
44521	16.613631	2.474116	3.903292	0.670469	-0.753746	7.402164	39.617240	-71.880127	-9.736878			
44522	18.206328	3.842011	2.978481	1.351258	0.857717	8.963384	39.422814	-71.678410	-9.463628			
44523	17.394578	6.214134	1.644044	1.147022	3.579925	8.346538	40.169725	-71.483556	-10.041290			
44524	14.971384	7.664841	0.218601	0.934340	5.590749	6.024264	41.292675	-71.213952	-11.108196			
44525	12.727922	6.345563	0.376780	0.789289	4.416632	3.688314	42.160106	-70.812234	-12.185959			
44526	9.496317	4.808597	2.902325	-1.522455	1.980843	0.933642	42.398785	-70.299433	-12.709122			
44527	7.538555	4.310246	5.288327	-3.832889	0.475844	-0.407547	42.606468	-69.948604	-13.190823			
44528	7.075187	4.515272	6.008455	-4.644636	0.323391	-0.600182	43.048655	-69.885392	-13.874725			
44529	7.325161	4.555466	5.071638	-3.817596	0.797696	-0.597413	43.715894	-70.085451	-14.798933			
44530	7.665373	4.128298	3.924818	-2.607780	0.958605	-0.675664	44.412107	-70.444957	-15.743674			
44531	7.995353	3.455685	2.984943	-1.483853	0.797422	-0.760661	45.128480	-70.867578	-16.673416			
44532	8.433765	2.576155	2.278347	-0.436351	0.324964	-0.720968	45.861847	-71.279431	-17.546605			
44533	9.041729	1.962175	1.656723	0.469684	0.011116	-0.425117	46.838285	-71.659659	-18.571418			
44534	9.154726	1.455280	0.751906	1.424398	-0.036578	-0.622396	48.005025	-71.949919	-19.710913			
44535	8.554455	1.389796	-0.110666	1.955816	0.342627	-1.375892	49.371974	-72.120816	-20.965485			
44536	9.090678	1.519616	-0.754752	2.560282	0.660861	-0.951131	50.711457	-72.196070	-22.176538			
44537	9.257542	1.767871	-1.164868	2.820781	1.010048	-0.801183	51.728054	-72.148275	-22.979648			
44538	9.388185	1.968874	-0.927539	2.564435	1.022648	-0.579452	52.205535	-71.982272	-23.113850			
44539	8.241452	2.818057	0.485901	0.672533	1.170722	-1.194326	52.338436	-71.777521	-22.830285			
44540	7.822581	3.032185	1.478088	-0.366723	0.891746	-1.348531	52.402603	-71.645430	-22.483737			
44541	7.638537	3.078405	1.706286	-0.631809	0.822416	-1.466451	52.625349	-71.630138	-22.306719			
44542	7.788758	3.307571	1.766639	-0.757308	0.954462	-1.254578	52.859456	-71.677424	-22.133411			
44543	7.659722	3.403472	1.632062	-0.749123	1.108432	-1.378902	53.120986	-71.761138	-22.014660			
44544	7.204148	3.607724	1.545074	-0.932711	1.365966	-1.777342	53.520106	-71.864308	-22.019092			
44545	6.967244	3.479900	1.260988	-0.736783	1.418369	-2.086917	54.165716	-72.002582	-22.344877			
44546	6.982770	3.400448	1.086790	-0.585781	1.420904	-2.122372	54.993655	-72.161579	-22.928501			
44547	7.078717	3.251124	1.105242	-0.538180	1.249048	-2.063515	55.887054	-72.327832	-23.673146			
44548	7.585952	3.186112	0.923837	-0.251246	1.208480	-1.625639	56.658868	-72.479363	-24.355790			
44549	8.270735	3.181701	0.761379	0.039459	1.188010	-0.998213	57.281171	-72.608552	-24.938423			
44550	8.796221	3.187961	0.690546	0.212708	1.152323	-0.504609	57.634574	-72.687476	-25.245404			
44551	8.959009	3.155659	0.379472	0.512111	1.265885	-0.405175	57.864297	-72.731031	-25.418434			
44552	8.824942	3.142167	0.324098	0.519537	1.297213	-0.544184	58.001859	-72.749235	-25.497870			
44553	8.631300	2.927000	0.443018	0.470459	1.072463	-0.763300	58.215840	-72.769119	-25.673888			
44554	8.475124	2.782666	0.791156	0.206452	0.774081	-0.893324	58.522017	-72.807000	-25.979515			
44555	8.466359	2.654046	0.716988	0.314225	0.695988	-0.943974	59.020061	-72.875543	-26.508402			
44556	8.678164	2.702693	0.541538	0.469930	0.787619	-0.753598	59.593356	-72.952191	-27.106706			
44557	8.971269	2.624742	0.392644	0.685828	0.745935	-0.512136	60.163390	-73.020570	-27.696510			
44558	9.347574	2.603984	0.581025	0.621161	0.557814	-0.127729	60.566997	-73.050981	-28.102656			
44559	9.493806	2.359838	0.891731	0.512389	0.149097	-0.003938	60.983030	-73.059843	-28.513187			
44560	9.575579	2.139372	1.019900	0.526500	-0.134942	0.036848	61.556603	-73.063322	-29.025309			
44561	9.509972	2.143060	0.873656	0.609349	-0.074162	-0.044444	62.459254	-73.070222	-29.811474			
44562	9.298420	2.129338	0.711594	0.674911	-0.004662	-0.270919	63.428924	-73.054074	-30.669436			
44563	9.026264	2.073784	0.856004	0.496932	-0.131668	-0.526013	64.369302	-72.999552	-31.524214			
44564	9.095786	2.002915	1.332814	0.146933	-0.504766	-0.418814	65.167585	-72.903906	-32.276150			
44565	8.819321	1.849666	1.262099	0.207825	-0.589654	-0.735048	65.979213	-72.786496	-33.099868			
44566	8.471450	1.696156	1.323104	0.146944	-0.732969	-1.104412	66.697730	-72.641925	-33.867445			
44567	8.222802	1.505021	1.352447	0.159554	-0.902137	-1.394300	67.287891	-72.470159	-34.535550			
44568	7.931259	1.551865	1.654377	-0.179140	-1.013717	-1.627926	67.755626	-72.286137	-35.100092			
44569	7.928507	1.386425	1.667615	-0.102313	-1.187609	-1.679830	68.272756	-72.117684	-35.741378			
44570	7.931129	1.412880	1.542466	-0.009138	-1.129684	-1.688533	68.843342	-71.967955	-36.423519			
44571	8.038238	1.341709	1.559997	0.034354	-1.250835	-1.610177	69.497722	-71.844579	-37.215283			
44572	8.186051	0.980961	1.270061	0.481421	-1.449884	-1.611913	70.237242	-71.753181	-38.085301			
44573	8.401860	0.881143	1.255879	0.578313	-1.601749	-1.443415	71.039342	-71.689456	-38.998492			
44574	8.658819	0.749714	1.185978	0.745490	-1.756489	-1.250992	71.773461	-71.632343	-39.810074			
44575	9.224862	0.740902	1.035894	0.994678	-1.830774	-0.736407	72.450349	-71.567838	-40.493496			
44576	9.590703	1.034599	0.744843	1.174627	-1.537832	-0.333129	72.861996	-71.469346	-40.816662			
44577	9.961747	1.269680	0.707749	1.183899	-1.428074	0.082177	73.129406	-71.338819	-40.926578			
44578	9.921928	1.377887	0.904675	0.973031	-1.458869	0.091176	73.240902	-71.184709	-40.834323			
44579	9.971511	1.570697	1.126604	0.723870	-1.455398	0.213534	73.412768	-71.031454	-40.802235			
44580	9.964837	1.682691	1.202597	0.620678	-1.427771	0.244739	73.633168	-70.889239	-40.838110			
44581	9.917582	1.865817	1.333969	0.418212	-1.369707	0.265413	73.985358	-70.762914	-41.053194			
44582	9.924170	1.994764	1.437726	0.272578	-1.353528	0.317904	74.387136	-70.659799	-41.378832			
44583	10.005844	2.012269	1.506640	0.221745	-1.425857	0.402682	74.859308	-70.584429	-41.841625			
44584	9.830332	2.255957	1.677889	-0.098334	-1.314709	0.326438	75.377391	-70.540939	-42.403412			
44585	9.990699	2.755812	1.993079	-0.592660	-1.153722	0.661018	75.993539	-70.519516	-43.078652			
44586	10.269254	3.186905	1.857275	-0.654879	-0.825973	1.047891	76.655914	-70.506671	-43.808556			
44587	10.869123	3.776222	1.751482	-0.744853	-0.463871	1.793142	77.194423	-70.484889	-44.414930			
44588	11.548359	3.836434	1.200847	-0.171220	-0.293563	2.410623	77.477896	-70.459317	-44.757115			
44589	12.393552	3.966704	0.796846	0.288673	-0.184002	3.220064	77.737572	-70.446518	-45.013232			
44590	12.916055	4.220199	0.067831	0.876522	0.281557	3.744286	78.063505	-70.460217	-45.221360			
44591	13.366548	4.441365	-0.889509	1.638662	0.863991	4.178372	78.518438	-70.495820	-45.431655			
44592	14.122058	4.723910	-2.170806	2.699234	1.616849	4.903292	78.840585	-70.549821	-45.407272			
44593	14.317605	4.650431	-3.362989	3.736216	2.201556	4.990139	78.777986	-70.618518	-44.947396			
44594	13.977370	4.510590	-3.299133	3.665557	2.198681	4.620798	78.151777	-70.711605	-43.888762			
44595	12.627058	4.286070	-2.506784	2.818370	1.968826	3.312731	77.206853	-70.825825	-42.400407			
44596	11.219338	4.661602	-1.292874	1.296114	1.962762	2.176588	76.280034	-70.941893	-40.780707			
44597	10.210399	5.411887	-0.632482	0.098635	2.436306	1.500812	75.629349	-71.045923	-39.419132			
44598	9.825378	6.417637	0.263416	-1.282031	2.794675	1.516020	74.955023	-71.116503	-38.153410			
44599	9.206157	7.145007	0.889391	-2.344473	3.127649	1.201695	74.046830	-71.160645	-36.899117			
44600	9.228155	7.371466	1.672633	-3.066302	2.861498	1.354424	72.965056	-71.224106	-35.733513			
44601	9.111443	7.269422	1.888404	-3.183307	2.738549	1.223403	71.734793	-71.342169	-34.616760			
44602	8.538637	6.937129	1.791660	-3.039420	2.737491	0.555976	70.143552	-71.509010	-33.309339			
44603	7.972651	5.899779	1.600847	-2.426410	2.256955	-0.328447	68.332004	-71.729796	-31.878662			
44604	7.588439	4.686570	1.791850	-1.981325	1.368992	-1.040100	66.461488	-71.992914	-30.389622			
44605	7.525578	3.708401	2.037124	-1.642469	0.566038	-1.355885	64.696263	-72.280268	-28.987252			
44606	8.191644	2.896288	1.969743	-0.968846	-0.040975	-0.956594	63.195051	-72.582264	-27.834152			
44607	8.582699	3.166944	1.765520	-0.858730	0.322845	-0.540840	61.932225	-72.854587	-26.856886			
44608	8.851255	3.091180	1.745363	-0.739737	0.313460	-0.310030	60.765079	-73.091459	-26.051081			
44609	9.357244	0.585240	0.714216	1.547077	-1.112258	-0.605092	59.722581	-73.334365	-25.468087			
44610	9.392382	0.184534	-0.219574	2.506975	-0.859377	-0.797397	58.739629	-73.519601	-24.674457			
44611	8.918590	2.547956	0.661192	0.422013	0.668647	-0.547426	57.581021	-73.611834	-23.496288			
44612	8.533780	3.036836	1.588484	-0.667992	0.642573	-0.663287	56.015573	-73.610592	-21.977000			
44613	8.359404	1.907080	1.597449	-0.094385	-0.204059	-1.093886	54.446287	-73.556934	-20.396732			
44614	7.775199	1.845529	2.074006	-0.565592	-0.413194	-1.586493	52.974534	-73.439954	-18.713461			
44615	7.502407	2.092727	2.618851	-1.169714	-0.453878	-1.691759	51.604359	-73.291697	-17.083240			
44616	7.019792	2.159552	2.714487	-1.373367	-0.376825	-2.113259	50.287641	-73.095654	-15.468844			
44617	6.775450	2.073289	2.872046	-1.478822	-0.490079	-2.327596	49.139340	-72.876375	-13.985002			
44618	6.408372	2.065762	3.125713	-1.737164	-0.595934	-2.620218	48.114716	-72.633014	-12.618519			
44619	6.229208	2.030303	3.267455	-1.840949	-0.679398	-2.759278	47.228468	-72.402202	-11.442641			
44620	6.352736	1.829064	3.147537	-1.563786	-0.763023	-2.700587	46.514965	-72.206884	-10.461366			
44621	6.923807	1.815004	3.023191	-1.258147	-0.718618	-2.178972	45.928547	-72.059255	-9.606891			
44622	7.459687	1.922985	2.851335	-0.997550	-0.540465	-1.677109	45.322448	-71.947173	-8.752158			
44623	7.990310	2.091462	2.848542	-0.901561	-0.403797	-1.131822	44.473325	-71.795761	-7.724655			
44624	7.472438	2.145512	2.435525	-0.746224	-0.055126	-1.700211	43.538468	-71.628717	-6.675339			
44625	6.940215	1.900332	1.927515	-0.368461	0.103744	-2.373158	43.028202	-71.582942	-6.113126			
44626	7.857533	2.083389	2.536942	-0.647453	-0.134868	-1.322693	42.829326	-71.637440	-5.902097			
44627	8.311370	1.889591	2.923531	-0.696468	-0.523175	-0.843984	42.470421	-71.673197	-5.671547			
44628	7.940122	1.460429	2.873698	-0.538887	-0.805066	-1.298113	42.149884	-71.731596	-5.541902			
44629	7.954603	1.299666	3.685566	-1.079810	-1.404248	-1.128777	41.911422	-71.821765	-5.549871			
44630	8.164897	0.953148	3.835473	-0.957383	-1.762617	-0.966140	41.769457	-71.943114	-5.678492			
44631	8.441929	0.668228	3.803755	-0.718457	-1.973313	-0.769954	41.791815	-72.096286	-5.926377			
44632	8.631835	0.239867	3.678998	-0.358819	-2.251656	-0.707616	41.980240	-72.262557	-6.270330			
44633	8.848434	-0.380834	3.651516	0.035747	-2.754107	-0.637346	42.316340	-72.436487	-6.711187			
44634	9.051426	-1.095628	3.555611	0.531581	-3.300092	-0.614983	42.810352	-72.608009	-7.231697			
44635	9.571150	-1.563557	3.517044	0.944369	-3.700096	-0.229443	43.424611	-72.739320	-7.794294			
44636	9.808215	-1.405861	3.552103	0.886571	-3.627607	0.028520	43.946897	-72.777283	-8.184277			
44637	9.565376	-1.197129	2.975734	1.153759	-3.132363	-0.292099	44.434012	-72.732534	-8.466378			
44638	9.375469	-0.110211	2.350605	0.999709	-1.898148	-0.387484	44.836353	-72.614840	-8.575458			
44639	9.505684	0.837217	2.133210	0.705878	-1.028763	-0.114605	44.998382	-72.431075	-8.430844			
44640	9.205636	1.675035	2.457187	-0.061923	-0.542548	-0.154072	44.753882	-72.157659	-7.858408			
44641	8.718472	2.146538	2.950920	-0.805793	-0.442605	-0.406206	44.485452	-71.884619	-7.223471			
44642	8.584063	2.642919	3.572673	-1.561781	-0.428864	-0.283156	44.438833	-71.701935	-6.734108			
44643	8.784451	3.129170	4.283141	-2.293162	-0.508879	0.176606	44.527397	-71.641838	-6.434917			
44644	8.725961	2.881974	4.329178	-2.194589	-0.744405	0.077691	44.521291	-71.657207	-6.143215			
44645	8.554692	2.617076	4.287352	-2.065682	-0.927157	-0.154190	44.488835	-71.725827	-5.896196			
44646	8.320661	1.985750	4.263108	-1.758934	-1.395165	-0.522351	44.356326	-71.828819	-5.656725			
44647	8.616874	1.564307	4.922260	-1.925857	-2.135834	-0.186917	44.065327	-71.956429	-5.362195			
44648	9.013670	1.232125	4.833899	-1.560961	-2.324978	0.101379	43.513360	-72.087214	-4.876156			
44649	10.110494	1.205951	4.917735	-1.291981	-2.387216	1.164211	42.739654	-72.194935	-4.150413			
44650	12.034576	1.597781	4.381816	-0.535426	-1.723986	2.967174	41.525708	-72.150409	-2.875160			
44651	14.231465	2.130711	3.459403	0.547169	-0.666158	4.962202	40.055228	-71.943069	-1.240745			
44652	15.975367	2.908380	3.073402	0.987541	0.287567	6.681466	38.799347	-71.626215	0.195395			
44653	16.378525	4.745890	3.061301	0.107246	1.802299	7.417830	38.366944	-71.361931	0.789962			
44654	15.534949	7.420300	1.285474	-0.402599	4.995719	6.707857	38.800550	-71.189139	0.489609			
44655	14.362203	8.704302	-0.315929	-0.334007	6.940935	5.479424	39.689487	-71.043553	-0.433923			
44656	12.559058	7.401371	0.994170	-1.033189	5.051327	3.858980	40.225993	-70.806018	-1.258668			
44657	10.716314	6.673794	3.390258	-2.887623	2.976858	2.583770	40.339739	-70.538868	-1.779349			
44658	9.122637	6.161219	4.427966	-3.822259	1.969417	1.246313	40.241113	-70.399944	-2.166597			
44659	8.270711	5.568917	4.440365	-3.753331	1.546204	0.319240	40.146162	-70.490518	-2.613240			
44660	7.632819	4.421342	3.554903	-2.666768	1.225167	-0.766550	40.114186	-70.826492	-3.142645			
44661	7.403215	2.902990	2.491202	-1.134333	0.680965	-1.585283	40.219728	-71.354536	-3.725039			
44662	7.264618	1.595187	1.987235	-0.133595	-0.060570	-2.115521	40.452903	-71.928703	-4.231397			
44663	7.136194	0.468399	1.606931	0.673647	-0.747558	-2.552261	40.933840	-72.477193	-4.796816			
44664	7.358201	-0.151039	1.272192	1.277381	-1.073949	-2.532652	41.845858	-72.972904	-5.614509			
44665	7.933518	-0.110253	0.588657	1.888774	-0.686102	-2.114588	43.133750	-73.382826	-6.770874			
44666	8.738735	0.400627	-0.751444	2.816352	0.450961	-1.508769	44.527436	-73.635068	-8.049215			
44667	9.852994	1.036716	-2.147955	3.819492	1.701886	-0.577711	45.729000	-73.674443	-9.155947			
44668	10.384438	2.144082	-2.291399	3.457050	2.608927	0.133483	46.373655	-73.439216	-9.646175			
44669	10.463212	2.859298	-1.306165	2.356835	2.556007	0.544544	46.637076	-73.022643	-9.711332			
44670	9.680241	3.269048	0.035547	0.933371	2.089037	0.145189	46.799228	-72.539921	-9.615165			
44671	9.473333	3.809984	0.920103	-0.048806	1.964110	0.249426	47.114087	-72.127517	-9.640498			
44672	9.257033	4.236055	1.072174	-0.424403	2.186820	0.178502	47.522280	-71.811634	-9.751759			
44673	8.871927	4.505253	1.355305	-0.885589	2.207976	-0.056373	48.058120	-71.641533	-10.019644			
44674	8.304433	4.637619	1.654380	-1.361172	2.118584	-0.492453	48.734734	-71.621460	-10.474143			
44675	7.691667	4.440665	1.551504	-1.378977	2.025354	-1.136018	49.589270	-71.738855	-11.179843			
44676	7.164983	4.310557	1.394714	-1.376812	2.018729	-1.695295	50.436575	-71.898231	-11.939424			
44677	6.982066	4.354257	1.174852	-1.323850	2.171601	-1.899375	51.254873	-72.074477	-12.739647			
44678	7.116873	3.780419	0.672870	-0.600088	2.006246	-2.001867	52.130916	-72.281915	-13.691384			
44679	7.404128	3.457064	0.594901	-0.299490	1.756615	-1.815765	52.975913	-72.487987	-14.629707			
44680	7.947801	2.991939	0.590577	0.104448	1.334395	-1.405761	53.590596	-72.658716	-15.382141			
44681	8.460101	2.728412	0.495974	0.450668	1.129476	-0.993128	54.110422	-72.804177	-16.023591			
44682	8.777649	2.491403	0.485664	0.663367	0.908156	-0.744876	54.595147	-72.922195	-16.605840			
44683	9.085253	2.381495	0.414839	0.844917	0.820666	-0.485417	55.153701	-73.031517	-17.282260			
44684	8.577923	2.192680	0.259333	0.912342	0.792644	-1.037999	55.679461	-73.119908	-17.967641			
44685	8.172499	2.133859	0.327757	0.764773	0.719978	-1.425362	56.199808	-73.202178	-18.670201			
44686	7.872649	2.171648	0.469610	0.538751	0.671918	-1.677982	56.625052	-73.261185	-19.329021			
44687	7.655676	1.918854	0.928523	0.258248	0.198250	-1.872441	56.996638	-73.317723	-20.001009			
44688	7.494306	1.629977	1.307470	0.072657	-0.256289	-2.037088	57.375970	-73.368920	-20.687127			
44689	7.858497	1.358815	1.412441	0.226151	-0.584228	-1.737737	57.813885	-73.423072	-21.406686			
44690	8.304770	1.032548	1.109488	0.752457	-0.721724	-1.435384	58.154163	-73.436728	-21.947619			
44691	8.883338	0.753291	1.225038	0.962891	-1.089404	-0.931928	58.450610	-73.419983	-22.332036			
44692	9.316365	0.632765	1.473772	0.947521	-1.394445	-0.510819	58.699565	-73.379891	-22.559202			
44693	9.560254	0.535420	1.376508	1.144567	-1.455337	-0.317855	59.063472	-73.336153	-22.806331			
44694	9.871269	0.615179	1.181672	1.339157	-1.328986	-0.032240	59.554241	-73.277199	-23.104263			
44695	10.154399	0.824513	1.014472	1.431263	-1.120280	0.262886	60.159281	-73.203259	-23.487256			
44696	10.022762	1.020210	0.898728	1.382864	-0.910249	0.165456	60.772834	-73.097215	-23.863069			
44697	9.821195	1.208314	0.946672	1.196735	-0.798772	0.023052	61.304634	-72.948321	-24.141252			
44698	9.557284	1.472845	1.340300	0.689407	-0.831032	-0.110042	61.720597	-72.762814	-24.320322			
44699	9.380494	1.425860	1.366614	0.670032	-0.891730	-0.291650	62.143310	-72.583027	-24.546712			
44700	8.992350	1.485591	1.472539	0.469288	-0.890634	-0.635315	62.519903	-72.408917	-24.758786			
44701	8.760235	1.323047	1.483667	0.509472	-1.019525	-0.902335	62.846242	-72.242485	-24.971604			
44702	8.750955	0.906141	1.600370	0.677531	-1.434266	-1.012389	63.079280	-72.073664	-25.085886			
44703	8.689149	0.774060	1.728699	0.659181	-1.627233	-1.094522	63.299847	-71.911832	-25.157773			
44704	8.477262	0.523652	1.811307	0.701407	-1.862027	-1.359296	63.605249	-71.769691	-25.282478			
44705	8.443601	0.575710	1.747081	0.724518	-1.801253	-1.391961	64.155401	-71.655250	-25.631135			
44706	8.861068	0.696448	1.250430	1.156491	-1.485480	-1.036419	65.013337	-71.560940	-26.253984			
44707	9.015824	0.975495	0.775906	1.396560	-1.036908	-0.878876	65.982366	-71.447116	-26.987234			
44708	9.028508	0.986603	0.725720	1.429556	-1.047611	-0.875537	67.033053	-71.310115	-27.848441			
44709	9.193455	0.995014	0.496197	1.640975	-0.975555	-0.751171	68.177992	-71.157515	-28.842013			
44710	9.506536	1.189822	0.383420	1.696837	-0.866904	-0.415570	69.260341	-70.978642	-29.804863			
44711	9.952803	1.660687	0.488512	1.466943	-0.718393	0.156589	70.189718	-70.768853	-30.624184			
44712	10.073195	2.289193	0.619733	1.040918	-0.414643	0.475073	70.894075	-70.533899	-31.187689			
44713	10.235474	2.730514	0.909056	0.624570	-0.357854	0.795263	71.481211	-70.296774	-31.655923			
44714	10.414584	2.808803	1.143439	0.471499	-0.534535	1.010996	71.986554	-70.085658	-32.121784			
44715	10.484852	2.859630	1.558348	0.161534	-0.827840	1.133840	72.517621	-69.915834	-32.711451			
44716	10.370781	3.101154	2.300784	-0.571105	-1.155530	1.178322	73.075370	-69.790640	-33.434141			
44717	10.439439	2.931874	2.473126	-0.596115	-1.447272	1.198398	73.772982	-69.731500	-34.389519			
44718	10.921918	2.820943	2.495261	-0.440180	-1.677523	1.609407	74.484279	-69.729250	-35.373568			
44719	11.340923	2.753350	2.410938	-0.259215	-1.791617	1.965800	75.115466	-69.777536	-36.286157			
44720	11.742133	2.663907	2.191737	0.025005	-1.826002	2.288661	75.703659	-69.874685	-37.121165			
44721	12.612592	2.720332	1.327918	0.838858	-1.442042	3.050341	76.417454	-70.022544	-37.908301			
44722	13.778235	2.760700	0.435212	1.752649	-1.111870	4.092066	77.128550	-70.210713	-38.443984			
44723	14.447879	3.131403	-0.525942	2.380168	-0.373462	4.782459	77.845129	-70.435003	-38.723492			
44724	14.392093	3.522587	-1.674104	2.923325	0.670142	4.793739	78.728794	-70.694246	-38.973169			
44725	14.287430	4.034215	-2.568506	3.153804	1.658735	4.826419	79.765038	-70.964789	-39.258264			
44726	14.116206	5.089561	-2.883893	2.578614	2.686364	5.006911	80.569881	-71.195070	-39.192115			
44727	13.264976	6.230766	-2.691884	1.399440	3.575457	4.584707	80.870632	-71.361581	-38.581123			
44728	11.773967	7.046385	-2.342496	0.169220	4.248337	3.442031	80.413878	-71.445159	-37.157040			
44729	10.532587	7.562455	-1.966627	-0.805462	4.629517	2.431175	79.433773	-71.475795	-35.263479			
44730	9.898235	7.740292	-0.968805	-1.820327	4.214523	1.923996	77.966910	-71.462121	-33.002258			
44731	8.738436	7.985448	0.433530	-3.264599	3.633753	0.978676	76.075486	-71.418457	-30.519823			
44732	7.239015	8.201597	1.678990	-4.651276	3.182068	-0.287551	74.026031	-71.401731	-28.181006			
44733	6.047558	8.078882	2.738924	-5.595202	2.582706	-1.364866	71.978647	-71.456686	-26.166081			
44734	6.185074	7.426598	2.858392	-5.170244	2.132690	-1.428235	70.132597	-71.628499	-24.661604			
44735	6.000521	6.240415	2.506475	-4.170969	1.712372	-2.008765	68.460383	-71.875912	-23.500871			
44736	5.534024	4.709723	2.575769	-3.329780	0.768424	-2.901622	66.856070	-72.150782	-22.443020			
44737	5.456606	3.263391	2.426478	-2.302516	-0.042373	-3.408920	65.588562	-72.443276	-21.715593			
44738	6.398346	2.278269	1.967912	-1.092005	-0.459411	-2.841446	64.717875	-72.738173	-21.354047			
44739	7.950538	1.599417	1.203966	0.291939	-0.536932	-1.636807	64.081449	-72.993367	-21.180027			
44740	9.376383	1.316867	0.627335	1.250254	-0.462206	-0.417616	63.536697	-73.177338	-21.016985			
44741	10.194226	1.456437	0.451325	1.495622	-0.298196	0.381490	62.905624	-73.258674	-20.678366			
44742	10.457078	1.965149	0.449152	1.251385	0.076155	0.762858	62.197558	-73.235888	-20.152688			
44743	10.593611	2.442136	0.549573	0.938932	0.374166	1.025618	61.404526	-73.122631	-19.441520			
44744	10.522151	2.978763	0.860085	0.399955	0.599619	1.133022	60.432178	-72.913850	-18.423767			
44745	9.754727	3.075540	1.343732	-0.165536	0.456563	0.491820	59.236716	-72.644117	-17.119891			
44746	8.954217	2.909153	1.926488	-0.643542	0.055667	-0.224424	57.978997	-72.359332	-15.700053			
44747	8.259473	2.602830	2.379996	-0.918546	-0.375634	-0.886727	56.771034	-72.114240	-14.325620			
44748	7.920875	2.389260	2.662868	-1.033040	-0.658002	-1.208083	55.621043	-71.880726	-12.926710			
44749	7.422089	2.332907	2.704588	-1.130409	-0.657620	-1.680400	54.546412	-71.659846	-11.521802			
44750	7.177417	2.454524	2.838985	-1.337305	-0.618544	-1.848474	53.657974	-71.480868	-10.265496			
44751	7.346049	2.356429	2.959534	-1.273486	-0.760563	-1.683991	52.962070	-71.358691	-9.210798			
44752	7.677390	2.564654	3.004636	-1.309696	-0.641491	-1.302651	52.354636	-71.259283	-8.241177			
44753	7.737507	2.596539	2.915350	-1.226575	-0.539055	-1.250262	51.665117	-71.147850	-7.219543			
44754	7.812615	2.800199	2.749804	-1.197438	-0.256893	-1.155925	50.930696	-71.000768	-6.161823			
44755	7.228755	3.137330	2.404929	-1.352371	0.268437	-1.689857	50.283806	-70.861506	-5.243794			
44756	6.835521	2.835562	2.127534	-1.075703	0.283787	-2.193406	49.815000	-70.759712	-4.632065			
44757	7.095759	2.785127	2.484258	-1.182519	0.002708	-1.883003	49.451697	-70.685920	-4.238798			
44758	7.185358	2.453683	2.143237	-0.691164	0.028782	-1.953628	48.997727	-70.595888	-3.878770			
44759	6.747165	2.077774	1.911498	-0.419428	-0.041221	-2.510801	48.565985	-70.523305	-3.617103			
44760	6.621748	1.793048	2.206896	-0.462241	-0.430767	-2.633989	48.190917	-70.479720	-3.470490			
44761	6.703901	1.613597	2.570341	-0.559814	-0.799616	-2.518866	47.874057	-70.478724	-3.442186			
44762	6.823551	1.407124	2.790796	-0.538901	-1.088662	-2.406354	47.622582	-70.512294	-3.505003			
44763	7.016792	1.444369	3.044987	-0.685101	-1.231317	-2.157102	47.479497	-70.594411	-3.674762			
44764	7.179011	1.341290	3.063845	-0.597197	-1.312015	-2.025112	47.377048	-70.716729	-3.896660			
44765	7.305682	1.284895	3.023528	-0.518867	-1.320918	-1.929062	47.368188	-70.890870	-4.200385			
44766	7.562329	0.976697	3.128514	-0.344295	-1.618116	-1.738445	47.360712	-71.103348	-4.534736			
44767	7.846970	0.773080	3.242753	-0.244984	-1.848081	-1.493286	47.377965	-71.347510	-4.897543			
44768	8.012328	0.903490	3.605889	-0.577372	-1.997663	-1.228288	47.368083	-71.590505	-5.234115			
44769	8.392759	0.903081	4.028336	-0.809939	-2.283050	-0.778706	47.279929	-71.857481	-5.579730			
44770	8.787752	0.815483	4.318913	-0.899068	-2.533718	-0.362069	46.987735	-72.107366	-5.787943			
44771	8.810944	0.777766	4.451511	-1.023448	-2.618535	-0.318002	46.497138	-72.326210	-5.840726			
44772	8.829349	0.691215	4.250383	-0.873992	-2.511388	-0.355966	45.834966	-72.532418	-5.760802			
44773	8.936603	0.701493	3.821121	-0.585049	-2.183652	-0.334030	45.061377	-72.723560	-5.545276			
44774	9.095955	0.682230	3.323635	-0.200911	-1.837221	-0.282089	44.157637	-72.888699	-5.154520			
44775	9.258017	0.134246	2.428697	0.804871	-1.656975	-0.419399	43.287113	-73.049248	-4.740320			
44776	9.506142	-0.587677	2.283544	1.380455	-2.103887	-0.347249	42.700369	-73.207402	-4.454833			
44777	9.985073	-0.746712	2.890674	1.120684	-2.600430	0.217118	42.504527	-73.362922	-4.409451			
44778	10.532869	-0.868989	3.213178	1.069163	-2.909368	0.789827	42.755893	-73.549149	-4.742752			
44779	10.992404	-0.842002	3.605774	0.838344	-3.165528	1.314747	43.439880	-73.775879	-5.508375			
44780	11.330982	-0.756189	4.007992	0.518407	-3.395895	1.729652	44.346078	-74.021255	-6.536188			
44781	11.848602	-0.752926	4.512210	0.207522	-3.763701	2.316092	45.127641	-74.252998	-7.487990			
44782	12.992928	-0.612570	5.351254	-0.260374	-4.225448	3.600180	45.106926	-74.364601	-7.616214			
44783	14.381631	-0.307584	5.453187	-0.150762	-4.058213	5.025466	44.039553	-74.300409	-6.571701			
44784	15.656425	-0.002449	3.760354	1.362369	-2.725875	5.997938	42.479790	-74.127198	-4.816330			
44785	16.183272	0.048311	2.758954	2.308598	-1.978143	6.320157	41.463937	-73.972908	-3.365701			
44786	15.066238	2.394561	3.589533	0.046100	-0.573227	5.848704	41.167923	-73.785982	-2.462793			
44787	13.770508	6.046873	2.779889	-1.853021	2.778580	5.112621	41.590477	-73.554769	-2.253891			
44788	13.826954	8.563683	0.737751	-1.814788	5.952339	5.231948	42.422745	-73.228389	-2.591205			
44789	13.078933	9.943414	0.831604	-2.871677	6.887315	4.848089	43.044152	-72.699353	-2.991058			
44790	12.886597	10.000827	1.515083	-3.331134	6.446880	4.874565	43.385073	-72.113967	-3.389547			
44791	10.965321	10.379615	2.060071	-4.390662	6.401853	3.300454	43.479316	-71.475067	-3.623643			
44792	10.183644	10.136458	2.011150	-4.307172	6.254209	2.549777	43.911944	-71.000828	-4.350313			
44793	8.184643	8.654428	1.822657	-3.819258	5.275599	0.325861	44.780003	-70.836999	-5.856304			
44794	6.785180	6.974199	2.002353	-3.356773	3.904565	-1.317167	46.039997	-70.996211	-8.020630			
44795	6.349719	5.294207	1.730279	-2.311208	2.771551	-2.176051	47.500992	-71.365245	-10.399407			
44796	6.143861	3.377134	1.643333	-1.249477	1.306236	-2.842392	48.621188	-71.758243	-12.264911			
44797	5.868329	1.591815	1.558291	-0.316364	-0.060261	-3.544071	49.260822	-72.122533	-13.436354			
44798	5.794017	0.550741	1.825867	-0.017095	-1.054179	-3.804691	49.577837	-72.440108	-14.049754			
44799	5.893466	0.016915	1.677381	0.383482	-1.405013	-3.860744	49.800999	-72.723158	-14.365474			
44800	6.156770	0.336443	1.211830	0.620993	-0.894535	-3.623854	50.119635	-72.974262	-14.583136			
44801	6.892918	0.895095	0.624110	0.957464	-0.156082	-2.901692	50.484699	-73.187627	-14.792058			
44802	8.147237	1.355124	0.181511	1.376376	0.379625	-1.675845	50.781999	-73.337413	-14.911016			
44803	9.542461	1.997293	0.061799	1.478205	0.860540	-0.214463	51.017170	-73.421611	-14.918801			
44804	10.219248	2.702157	0.125334	1.204721	1.332434	0.604780	51.294725	-73.453248	-14.934668			
44805	10.163409	3.045793	0.290959	0.851963	1.498011	0.660444	51.746654	-73.465997	-15.133636			
44806	10.200769	3.029500	0.457263	0.725891	1.357884	0.726372	52.414049	-73.493667	-15.586304			
44807	9.808757	2.821750	0.357475	0.788863	1.249084	0.292710	53.357055	-73.584424	-16.366601			
44808	9.408880	2.739181	0.197516	0.823047	1.275032	-0.129410	54.281349	-73.655428	-17.145217			
44809	8.357004	2.908956	-0.059689	0.620295	1.618769	-1.135140	55.100375	-73.669275	-17.784371			
44810	7.834169	2.966402	0.204428	0.229855	1.517812	-1.575037	55.801146	-73.654235	-18.322181			
44811	7.645226	3.164060	0.438788	-0.126083	1.518488	-1.668271	56.473227	-73.651614	-18.891264			
44812	7.544558	3.382316	0.500582	-0.339965	1.633659	-1.699335	57.248389	-73.694847	-19.605854			
44813	8.188195	3.527467	0.330995	-0.141669	1.763789	-1.068089	58.008429	-73.758020	-20.336434			
44814	8.681302	3.208718	0.343510	0.147172	1.436853	-0.664320	58.480765	-73.780636	-20.760807			
44815	8.983193	2.787400	0.548866	0.304984	0.937357	-0.442685	58.698010	-73.762886	-20.902856			
44816	9.037412	2.586026	0.663498	0.350960	0.696850	-0.421532	58.740480	-73.700992	-20.847817			
44817	8.804155	2.393743	0.762401	0.329891	0.501170	-0.676802	58.964142	-73.662191	-20.996057			
44818	8.634899	2.257076	1.113637	0.090416	0.177160	-0.820665	59.513645	-73.681011	-21.545089			
44819	8.573490	1.825355	1.097730	0.321563	-0.166249	-0.985994	60.281952	-73.741364	-22.392031			
44820	8.469374	1.663968	1.006760	0.436682	-0.252451	-1.137544	61.101176	-73.805591	-23.352414			
44821	8.404308	1.439797	0.936290	0.581238	-0.405360	-1.264016	61.909940	-73.862340	-24.356495			
44822	8.659926	1.219685	0.726607	0.914974	-0.506838	-1.099724	62.674537	-73.890277	-25.312659			
44823	9.006297	1.212451	0.865635	0.879619	-0.669558	-0.751196	63.376116	-73.897303	-26.159538			
44824	9.279953	1.171798	1.072603	0.796213	-0.889745	-0.473766	63.965217	-73.878643	-26.831159			
44825	9.493776	1.293609	1.107688	0.741832	-0.869704	-0.235348	64.561076	-73.852437	-27.425737			
44826	9.627260	1.295374	0.776933	1.024673	-0.709715	-0.147697	65.159286	-73.818257	-27.935568			
44827	9.575417	1.565442	0.615063	0.975646	-0.419348	-0.148851	65.768100	-73.788357	-28.399428			
44828	9.311894	1.579728	0.411945	1.053078	-0.272663	-0.421561	66.358424	-73.763043	-28.827002			
44829	9.091555	1.822836	0.363012	0.888204	-0.047334	-0.575822	66.929541	-73.733151	-29.239572			
44830	8.748249	1.787647	0.405192	0.784803	-0.076547	-0.909322	67.493512	-73.692599	-29.679780			
44831	8.696926	1.835701	0.467372	0.690124	-0.095021	-0.939165	68.062486	-73.638163	-30.158803			
44832	8.566465	1.612643	0.581610	0.697436	-0.344745	-1.111085	68.590382	-73.549528	-30.635355			
44833	8.739985	1.360318	0.632818	0.849687	-0.622582	-1.007654	69.074838	-73.426025	-31.077735			
44834	8.441999	1.285212	0.532731	0.908423	-0.599967	-1.326366	69.397592	-73.257924	-31.380395			
44835	8.456202	0.914171	0.539676	1.141353	-0.914218	-1.416513	69.556965	-73.042537	-31.499988			
44836	8.286402	1.013628	0.729401	0.921936	-0.951624	-1.538133	69.624666	-72.788478	-31.501893			
44837	8.220418	1.126948	0.914791	0.726867	-0.992874	-1.556304	69.735020	-72.520979	-31.551680			
44838	8.339923	1.269812	0.861875	0.745262	-0.895396	-1.413147	69.965191	-72.256356	-31.738486			
44839	8.669529	1.505887	0.728298	0.823495	-0.715642	-1.050929	70.282504	-71.997232	-32.029580			
44840	8.909408	1.633292	0.588614	0.945820	-0.604622	-0.805393	70.628298	-71.743013	-32.347732			
44841	9.171662	1.782801	0.599468	0.943481	-0.577906	-0.515761	71.001153	-71.507734	-32.694494			
44842	9.361533	1.726966	0.650480	1.007103	-0.720732	-0.351715	71.393383	-71.302626	-33.053792			
44843	9.654838	1.647516	0.739310	1.077069	-0.923833	-0.093473	71.840509	-71.136376	-33.470539			
44844	9.978286	1.554148	0.793549	1.184067	-1.120541	0.184990	72.291515	-71.010917	-33.884281			
44845	10.117341	1.504863	0.694474	1.327526	-1.152206	0.287685	72.745390	-70.923118	-34.302884			
44846	10.449768	1.496334	0.772207	1.356143	-1.298360	0.604031	73.241024	-70.882587	-34.802089			
44847	10.670378	1.587792	0.900077	1.248575	-1.379540	0.851553	73.738749	-70.880988	-35.356784			
44848	10.914405	1.971483	1.138343	0.885214	-1.314141	1.223440	74.308695	-70.906230	-36.006882			
44849	11.335194	2.496760	1.559801	0.337679	-1.291169	1.822265	74.874235	-70.950262	-36.671678			
44850	11.598694	2.664375	1.451098	0.367727	-1.168844	2.113452	75.230386	-70.978275	-37.108283			
44851	11.799700	2.422137	0.911262	0.963186	-1.064275	2.181880	75.312003	-70.991479	-37.312915			
44852	12.340096	1.994132	0.910354	1.347898	-1.493258	2.558110	75.143776	-70.988076	-37.284528			
44853	13.244263	1.413649	0.784773	2.015019	-2.028606	3.219934	75.041714	-70.988364	-37.250303			
44854	13.656764	1.082461	-0.004276	2.925005	-1.869260	3.439827	75.213575	-70.996443	-37.258524			
44855	13.479742	1.177709	-0.839798	3.469906	-1.237639	3.234293	75.469533	-70.999806	-37.105095			
44856	13.076441	1.641758	-1.910055	3.915900	-0.120497	2.914769	75.807138	-70.999433	-36.822220			
44857	12.981722	2.639377	-2.434128	3.689291	1.000790	3.102568	76.074150	-70.991858	-36.363584			
44858	12.524325	3.690602	-2.122263	2.686337	1.694347	3.028493	76.057129	-70.962717	-35.584612			
44859	11.998955	4.743948	-1.946127	1.759648	2.481843	2.876336	75.777494	-70.907893	-34.426738			
44860	11.268810	5.724190	-1.777078	0.812186	3.249449	2.503629	75.178182	-70.825553	-32.749985			
44861	10.391129	6.798645	-1.337546	-0.458029	3.901761	2.042793	74.337408	-70.728863	-30.688262			
44862	9.541119	7.587687	-0.476403	-1.852473	4.015793	1.557209	73.164875	-70.618348	-28.376953			
44863	9.007806	8.165984	0.421986	-3.029583	3.871431	1.315455	71.726798	-70.486595	-25.961108			
44864	8.620264	8.905643	1.914514	-4.650632	3.359829	1.339349	70.061576	-70.342885	-23.495257			
44865	7.448977	9.588953	3.108832	-6.249657	3.116322	0.595496	68.192926	-70.224124	-21.103059			
44866	7.030557	9.354301	3.502521	-6.451427	2.772720	0.181806	66.232225	-70.190927	-18.978018			
44867	7.006592	8.720873	3.571968	-6.042315	2.401399	-0.033761	64.121146	-70.246787	-16.977378			
44868	6.253451	7.404377	3.543279	-5.342670	1.748157	-1.159161	61.814590	-70.348305	-14.998320			
44869	6.039660	5.826758	3.665508	-4.404610	0.750342	-1.818969	59.628359	-70.502095	-13.264741			
44870	6.697303	4.416915	3.445982	-3.092641	0.024750	-1.647414	57.792454	-70.695259	-11.946630			
44871	7.948823	3.136426	2.760331	-1.384589	-0.343840	-0.946775	56.382640	-70.895338	-11.059071			
44872	9.560483	2.625608	2.072646	-0.082187	-0.229528	0.313154	55.309021	-71.060508	-10.462116			
44873	10.767170	2.397538	1.538668	0.803961	-0.020748	1.295896	54.403240	-71.140135	-9.974807			
44874	11.173126	2.569034	1.064751	1.154974	0.467092	1.633706	53.405230	-71.073776	-9.277503			
44875	11.056922	3.002734	1.048716	0.883092	0.851763	1.626973	52.327715	-70.882263	-8.363011			
44876	10.696011	3.336323	1.248795	0.472616	1.031037	1.403729	51.168872	-70.562223	-7.220320			
44877	10.224313	3.389334	1.853273	-0.054696	0.732377	1.092287	49.991226	-70.164057	-5.992557			
44878	9.265107	2.864790	2.185020	-0.183183	0.223697	0.124068	48.821570	-69.744596	-4.741812			
44879	8.704968	2.313512	2.545232	-0.188659	-0.345862	-0.461158	47.702966	-69.349117	-3.506564			
44880	8.094462	1.664790	2.640941	0.021639	-0.804445	-1.174507	46.557471	-68.952615	-2.210722			
44881	7.463661	1.002869	2.506820	0.379955	-1.118017	-1.964042	45.501204	-68.551954	-0.880472			
44882	6.714966	0.853396	2.258131	0.427374	-1.001365	-2.760561	44.820737	-68.188820	0.268103			
44883	6.854652	1.091455	2.181723	0.420845	-0.752693	-2.588173	44.545605	-67.914296	1.147643			
44884	7.296324	1.300268	2.140222	0.513419	-0.561069	-2.136159	44.538348	-67.710457	1.822064			
44885	7.764304	1.638163	2.412346	0.322335	-0.513995	-1.541095	44.599169	-67.546161	2.433982			
44886	7.646961	1.607688	2.414810	0.326150	-0.538475	-1.658205	44.710269	-67.389535	2.990083			
44887	7.152546	2.133107	2.592240	-0.309400	-0.331964	-1.924545	44.939481	-67.273118	3.381337			
44888	6.889506	2.250136	2.513344	-0.428304	-0.212810	-2.156543	45.067189	-67.209778	3.656205			
44889	6.531798	1.880692	2.358572	-0.208489	-0.353911	-2.629685	44.993055	-67.182600	3.938340			
44890	6.143117	1.545420	2.210034	-0.032187	-0.467309	-3.120077	44.749156	-67.172825	4.277622			
44891	5.676466	1.294296	2.154466	-0.004509	-0.592710	-3.633056	44.427334	-67.198259	4.663801			
44892	5.273636	1.308752	2.532110	-0.400712	-0.866748	-3.894595	44.086715	-67.256498	5.069368			
44893	5.200814	1.289455	2.965649	-0.683176	-1.197546	-3.845663	43.824149	-67.375543	5.416249			
44894	5.417876	1.462576	3.263218	-0.914184	-1.294382	-3.517457	43.671037	-67.561785	5.694675			
44895	5.781075	1.495166	3.339881	-0.867307	-1.317248	-3.155080	43.616163	-67.816062	5.887064			
44896	6.223335	1.375850	3.357029	-0.657438	-1.395441	-2.776146	43.630670	-68.128634	5.987365			
44897	6.756462	1.086234	3.263471	-0.238607	-1.501107	-2.385071	43.730297	-68.500934	5.957250			
44898	7.203753	1.022649	3.119947	0.006381	-1.428373	-2.025942	43.884347	-68.902325	5.838922			
44899	7.649929	1.013666	3.196936	0.069809	-1.489644	-1.594104	44.031245	-69.318946	5.643802			
44900	7.853452	0.861862	3.153858	0.214799	-1.560389	-1.452960	44.099063	-69.727227	5.432166			
44901	8.028972	0.794568	3.110188	0.287148	-1.575517	-1.315396	44.174281	-70.121804	5.197144			
44902	8.615139	0.870911	3.299021	0.252170	-1.656732	-0.699295	44.123718	-70.495585	5.034427			
44903	9.256957	0.902836	3.599065	0.193860	-1.838063	-0.012522	43.788740	-70.820497	5.132942			
44904	9.498411	1.049529	4.276705	-0.307371	-2.214219	0.415407	43.002448	-71.039199	5.684807			
44905	9.494411	1.062805	4.527515	-0.521545	-2.337406	0.484679	41.803805	-71.195678	6.599424			
44906	9.749315	1.218915	4.382622	-0.499717	-2.037153	0.739174	40.287602	-71.278592	7.817034			
44907	9.767549	1.293441	3.779565	-0.197898	-1.450383	0.638129	38.697872	-71.312524	9.136890			
44908	9.140554	0.987902	3.063364	0.248361	-1.086065	-0.186251	37.495411	-71.371839	10.147802			
44909	9.083596	0.392731	3.030569	0.642989	-1.430008	-0.357963	37.025644	-71.546077	10.493157			
44910	10.045625	-0.160168	3.438547	1.035428	-2.049873	0.555029	37.236536	-71.795696	10.269988			
44911	10.817738	-0.049024	4.193159	0.671619	-2.514199	1.493766	37.815184	-72.040229	9.724058			
44912	11.096743	0.016658	4.407763	0.533984	-2.661466	1.814755	38.608393	-72.259765	8.930953			
44913	11.157794	0.427304	4.343244	0.266444	-2.392148	1.923962	39.535817	-72.449970	7.951328			
44914	11.297119	0.636197	4.731253	-0.118159	-2.585502	2.175445	40.315001	-72.570316	7.034499			
44915	11.962861	1.018165	5.409573	-0.636092	-2.827162	3.033040	40.493897	-72.511925	6.705767			
44916	12.861458	1.955111	5.146278	-0.819300	-1.945842	4.017194	40.000087	-72.212487	7.243842			
44917	14.460678	3.188928	3.753749	-0.215669	0.034471	5.462186	39.246553	-71.740594	8.264921			
44918	16.034370	3.605281	2.050260	1.169005	1.693040	6.621083	39.115602	-71.352416	8.843609			
44919	15.293942	4.712610	2.927649	-0.323083	1.754000	6.358369	39.703027	-71.093197	8.750550			
44920	13.447591	7.382245	3.577224	-3.167090	2.890749	5.344610	40.786172	-70.877094	8.118433			
44921	12.519135	9.755610	2.723244	-4.585898	4.959544	4.805378	41.916826	-70.622415	7.125946			
44922	11.214241	10.256102	1.916820	-4.782766	5.776836	3.542937	42.830791	-70.250031	5.978836			
44923	9.852067	8.960981	2.839031	-4.763661	4.162641	2.245549	43.557399	-69.891234	4.741769			
44924	7.676122	7.159674	4.154856	-4.963021	1.938353	0.140064	44.049622	-69.661159	3.530327			
44925	6.150155	5.483310	4.397237	-4.443593	0.632346	-1.622373	44.640612	-69.700780	2.048182			
44926	5.878144	4.332747	3.801811	-3.387472	0.299029	-2.315058	45.680948	-70.085629	0.007447			
44927	6.776753	3.244242	2.743044	-1.718026	0.287356	-2.006351	47.174734	-70.735389	-2.511805			
44928	8.081703	2.296417	1.753246	-0.087997	0.242498	-1.234024	48.775003	-71.423671	-4.968298			
44929	8.989415	1.593683	1.117263	0.991421	0.082104	-0.669022	50.278334	-72.044152	-7.072803			
44930	9.179995	1.013856	0.784571	1.560513	-0.186898	-0.677886	51.627838	-72.540139	-8.801615			
44931	9.383321	0.998859	0.596137	1.687803	-0.140417	-0.510493	52.877345	-72.859078	-10.243265			
44932	10.353272	1.573215	0.105908	1.901750	0.505157	0.473434	53.957560	-72.980632	-11.398495			
44933	11.085380	2.313134	-0.711595	2.208637	1.511295	1.213661	54.592150	-72.886060	-12.055431			
44934	11.260108	3.142909	-0.634174	1.705619	2.025337	1.591641	54.644952	-72.601330	-12.100952			
44935	10.899123	3.315302	0.099460	1.033614	1.669221	1.409471	54.283797	-72.214040	-11.687389			
44936	10.091065	3.793894	1.063209	-0.122404	1.415892	0.926655	53.929181	-71.820963	-11.175630			
44937	9.644536	3.910674	1.367308	-0.489399	1.315752	0.589671	53.952522	-71.539092	-11.037284			
44938	9.323813	3.627015	1.538507	-0.492364	0.991747	0.248606	54.337840	-71.360670	-11.259684			
44939	9.189865	3.679387	1.737305	-0.692872	0.867120	0.176188	54.974392	-71.279276	-11.742492			
44940	8.273601	3.539977	1.507719	-0.735678	0.944392	-0.767033	55.848546	-71.312664	-12.522893			
44941	8.003366	3.530803	1.411672	-0.769329	0.979735	-1.039930	56.871792	-71.434633	-13.546173			
44942	7.630042	3.569230	0.977906	-0.637465	1.293423	-1.456031	57.955154	-71.613970	-14.704642			
44943	7.226936	3.909740	0.622716	-0.766644	1.776031	-1.802682	59.116746	-71.834816	-15.977338			
44944	7.073734	4.275658	0.493240	-0.994892	2.105502	-1.866677	60.239683	-72.081468	-17.242511			
44945	7.227283	4.122801	0.417037	-0.837204	2.005474	-1.770175	61.198189	-72.345425	-18.398985			
44946	7.660113	3.572788	0.492096	-0.454226	1.493120	-1.491125	62.076064	-72.608138	-19.498747			
44947	7.973405	3.199666	0.713276	-0.328816	1.019412	-1.258489	62.921804	-72.856166	-20.549837			
44948	8.274929	2.886768	0.693579	-0.074014	0.752526	-1.053865	63.769329	-73.067914	-21.579715			
44949	8.453169	2.725166	0.492725	0.181106	0.725172	-0.948913	64.756761	-73.254523	-22.737868			
44950	7.820070	2.580336	0.399855	0.136301	0.722358	-1.601051	65.758914	-73.392501	-23.944942			
44951	7.233573	2.547770	0.356994	0.007110	0.765436	-2.173506	66.776135	-73.495663	-25.273927			
44952	7.053345	2.609833	0.308533	-0.062201	0.835991	-2.332497	67.759988	-73.551872	-26.686946			
44953	7.153355	2.423873	0.221705	0.129649	0.712673	-2.291386	68.755555	-73.564003	-28.233105			
44954	7.235620	2.166024	0.357237	0.198728	0.387651	-2.263939	69.650537	-73.527650	-29.768909			
44955	7.601887	1.901770	0.674811	0.200222	-0.101935	-1.950741	70.491666	-73.470218	-31.346565			
44956	7.861929	1.441182	0.514926	0.646271	-0.426441	-1.840714	71.434408	-73.407131	-33.069408			
44957	8.591901	1.264857	0.653582	0.795315	-0.811312	-1.178062	72.437464	-73.325953	-34.819808			
44958	9.374115	1.198429	0.824935	0.860826	-1.150381	-0.435796	73.279038	-73.206882	-36.343573			
44959	10.117044	0.926912	0.971208	1.052168	-1.630944	0.206779	73.950274	-73.065523	-37.610705			
44960	10.370899	0.765050	0.927431	1.223335	-1.825590	0.393755	74.372914	-72.907388	-38.524217			
44961	10.223122	0.689922	0.888403	1.260810	-1.873096	0.221218	74.474055	-72.739535	-39.051715			
44962	9.820875	0.739479	0.988125	1.069655	-1.844005	-0.146859	74.409023	-72.578196	-39.341315			
44963	9.451621	0.810003	1.323132	0.685114	-1.931563	-0.456429	74.346773	-72.443368	-39.583202			
44964	9.244665	0.752796	1.583481	0.462759	-2.101927	-0.652683	74.343969	-72.333296	-39.850391			
44965	9.030573	0.765891	1.527901	0.452571	-2.031985	-0.860676	74.444609	-72.242434	-40.180115			
44966	8.777843	0.767893	1.457178	0.448761	-1.956790	-1.110210	74.672773	-72.151935	-40.594960			
44967	8.680149	0.648194	1.338836	0.580827	-1.987148	-1.252813	75.050203	-72.053009	-41.130965			
44968	8.437969	0.742378	1.190007	0.592576	-1.805163	-1.472620	75.498180	-71.925975	-41.697803			
44969	8.323614	0.984741	1.243777	0.393370	-1.648818	-1.510530	75.968967	-71.765006	-42.267077			
44970	8.273826	1.230314	1.225138	0.272018	-1.463796	-1.490786	76.363100	-71.577404	-42.774161			
44971	8.330629	1.467625	1.321884	0.088572	-1.372777	-1.362348	76.701896	-71.378794	-43.232611			
44972	8.481870	1.845200	1.581282	-0.273674	-1.279541	-1.087143	76.901894	-71.164345	-43.552735			
44973	8.841976	1.994942	1.555610	-0.229849	-1.253387	-0.704648	77.025465	-70.960564	-43.794449			
44974	9.266013	2.069186	1.549938	-0.145054	-1.310764	-0.283594	77.041036	-70.771815	-43.923439			
44975	9.616834	2.173518	1.664576	-0.191934	-1.391029	0.087143	77.034175	-70.619614	-44.024579			
44976	9.882716	1.972582	1.496656	0.126285	-1.535807	0.258284	77.037265	-70.508826	-44.135297			
44977	10.214844	1.818220	1.421486	0.352883	-1.707720	0.513432	77.093958	-70.443624	-44.276614			
44978	10.430112	1.628073	1.473023	0.457459	-1.947544	0.656575	77.170040	-70.422200	-44.425051			
44979	10.594020	1.525830	1.547907	0.478395	-2.114814	0.782412	77.307348	-70.439359	-44.625183			
44980	10.681412	1.553820	1.522287	0.492011	-2.102924	0.871875	77.522500	-70.486641	-44.910446			
44981	10.798323	2.040004	1.687644	0.115606	-1.836139	1.152198	77.869587	-70.556184	-45.322172			
44982	11.068650	2.558729	1.701979	-0.122474	-1.500618	1.575546	78.357098	-70.624840	-45.836693			
44983	11.600980	3.063869	1.722286	-0.303483	-1.247014	2.240903	78.877977	-70.684614	-46.362376			
44984	12.055398	3.416172	1.587111	-0.293596	-1.011854	2.773482	79.233476	-70.731280	-46.745928			
44985	12.855176	3.620842	1.474079	-0.146724	-0.987382	3.586657	79.539778	-70.776626	-47.091888			
44986	13.673679	3.413022	0.727181	0.734364	-0.955212	4.247723	79.973584	-70.845397	-47.532712			
44987	14.257913	3.073992	-0.519096	2.031891	-0.703976	4.622775	80.561836	-70.942495	-48.031618			
44988	14.776534	3.038077	-1.971860	3.332378	-0.065529	5.031667	80.933542	-71.055625	-48.118382			
44989	14.521427	3.639291	-3.336163	4.082361	1.268544	4.917246	80.694418	-71.163248	-47.379208			
44990	13.596574	4.336666	-3.791165	3.899931	2.392860	4.226895	79.643006	-71.254808	-45.678780			
44991	12.087465	4.538430	-3.582287	3.301413	2.911438	2.842721	78.112706	-71.323769	-43.341329			
44992	9.925908	5.625168	-2.548938	1.381178	3.768163	1.167086	76.449510	-71.368554	-40.607262			
44993	8.530076	6.763366	-1.308140	-0.603526	4.291452	0.258817	74.891917	-71.418477	-37.895294			
44994	7.527492	7.796142	0.220741	-2.682564	4.388255	-0.271275	73.328483	-71.465818	-35.335373			
44995	7.184458	8.288170	1.377212	-3.975450	4.128449	-0.359724	71.613651	-71.519274	-33.003830			
44996	8.011173	8.319937	2.288462	-4.469979	3.483772	0.508139	70.013055	-71.645689	-31.253681			
44997	9.116233	8.688620	2.453650	-4.503116	3.562752	1.661024	68.748972	-71.875921	-30.171851			
44998	9.307470	8.381069	1.929262	-3.850076	3.750553	1.663456	67.185362	-72.125361	-29.109109			
44999	8.741271	7.292478	1.389011	-2.911085	3.484919	0.718124	65.082080	-72.335416	-27.710567			
45000	7.933849	5.773894	1.658206	-2.414517	2.406451	-0.463333	62.669467	-72.506836	-26.092570			
45001	8.075549	3.919618	2.087087	-1.635161	0.809072	-0.779189	60.557828	-72.712730	-24.845308			
45002	8.944567	2.190851	1.762507	-0.189533	-0.375651	-0.446052	59.016344	-72.961746	-24.124015			
45003	9.991367	1.520015	1.624177	0.542079	-0.886292	0.370439	57.960674	-73.207347	-23.768530			
45004	10.728613	1.152254	1.048059	1.368606	-0.890535	0.904724	57.166895	-73.417536	-23.575737			
45005	11.167265	1.442697	0.538902	1.725269	-0.378844	1.321019	56.447676	-73.559279	-23.335038			
45006	11.330304	2.016242	0.221212	1.732147	0.289483	1.562974	55.555035	-73.604572	-22.760658			
45007	10.759422	2.397005	0.136794	1.485449	0.761307	1.084237	54.267654	-73.524974	-21.666642			
45008	10.118881	2.513397	0.257126	1.213082	0.918745	0.505193	52.648712	-73.304491	-20.071234			
45009	9.241067	2.383970	0.888186	0.597408	0.616592	-0.266402	50.895001	-72.964487	-18.152152			
45010	8.255585	2.237924	1.750854	-0.228999	0.169510	-1.086485	49.257443	-72.597679	-16.240166			
45011	7.350082	1.524239	2.238028	-0.448173	-0.566951	-2.013140	47.730985	-72.240944	-14.462296			
45012	6.988892	0.916737	2.565367	-0.438308	-1.181724	-2.418297	46.330920	-71.859750	-12.777871			
45013	6.364994	1.097979	2.727118	-0.780914	-1.045179	-2.924064	45.045482	-71.411364	-11.043379			
45014	6.054074	1.418559	3.223325	-1.367096	-1.015444	-3.019061	43.770791	-70.939590	-9.372559			
45015	5.903171	1.374324	3.115892	-1.238681	-0.956196	-3.179747	42.632304	-70.479527	-7.838235			
45016	6.023501	1.678304	3.512062	-1.604133	-0.918140	-2.883241	41.631685	-70.049497	-6.486120			
45017	6.294627	1.805625	3.608361	-1.597987	-0.859319	-2.559370	40.844302	-69.712080	-5.426408			
45018	6.336902	2.144776	3.684213	-1.783081	-0.610694	-2.411513	40.271190	-69.498079	-4.708635			
45019	6.774629	2.050702	3.401766	-1.341099	-0.515009	-2.091992	39.824635	-69.413566	-4.306249			
45020	6.887788	1.588320	2.849944	-0.621739	-0.548338	-2.236456	39.353531	-69.397291	-4.012256			
45021	6.937223	1.390125	2.212472	-0.010027	-0.318214	-2.406532	38.924769	-69.426523	-3.823886			
45022	7.396063	1.124471	1.842313	0.570765	-0.313523	-2.135696	38.538840	-69.500934	-3.725376			
45023	7.440469	0.891551	1.820094	0.716766	-0.477265	-2.149358	38.181171	-69.571775	-3.636194			
45024	7.745403	0.571357	2.170340	0.709149	-0.933964	-1.834411	37.918268	-69.652367	-3.579418			
45025	7.615579	0.513550	2.755184	0.228500	-1.301093	-1.806018	37.764019	-69.714419	-3.506847			
45026	7.526796	0.508552	3.366108	-0.286084	-1.644968	-1.722311	37.770019	-69.817660	-3.472756			
45027	7.491852	0.697787	3.701794	-0.676362	-1.681398	-1.625294	37.900369	-69.987146	-3.492650			
45028	7.502336	0.531601	3.746530	-0.641927	-1.849990	-1.641424	38.034714	-70.178302	-3.477716			
45029	7.103170	0.387479	3.704722	-0.687896	-1.943400	-2.061552	38.179464	-70.345036	-3.418384			
45030	6.598668	0.572059	3.678915	-0.952427	-1.777950	-2.509550	38.456123	-70.524800	-3.471218			
45031	6.733002	0.713809	3.578946	-0.930198	-1.626028	-2.386899	38.994413	-70.780182	-3.815976			
45032	7.502714	0.835352	3.783511	-0.939316	-1.686341	-1.592153	39.579770	-71.095906	-4.336002			
45033	8.078130	0.851533	4.102080	-1.055894	-1.893380	-0.974795	40.027904	-71.379004	-4.810192			
45034	8.040936	0.870396	4.273601	-1.254535	-1.987523	-0.972231	40.238209	-71.604299	-5.139952			
45035	7.901411	0.641546	4.330016	-1.257873	-2.202159	-1.143140	40.266529	-71.810688	-5.361566			
45036	8.008805	0.419253	4.425999	-1.217491	-2.431533	-1.065607	40.103470	-71.998692	-5.438651			
45037	8.301251	0.334319	4.332076	-1.041602	-2.436512	-0.825598	39.724629	-72.144006	-5.262443			
45038	8.496623	0.453437	4.021370	-0.822997	-2.139971	-0.685107	39.150629	-72.233264	-4.821566			
45039	9.139133	0.627870	3.678284	-0.462005	-1.784929	-0.114841	38.466205	-72.287105	-4.215056			
45040	9.921538	0.458940	3.510713	-0.006196	-1.810265	0.564953	37.803663	-72.309709	-3.560019			
45041	10.938069	0.172477	3.462176	0.494303	-2.007995	1.473647	37.417244	-72.319944	-3.079168			
45042	11.684481	0.281049	3.644326	0.520869	-2.024195	2.250419	37.532145	-72.348329	-3.010222			
45043	12.223460	0.495768	3.586506	0.602253	-1.847191	2.786788	38.203861	-72.457698	-3.536532			
45044	12.615703	0.539999	3.353829	0.846642	-1.739909	3.108269	39.253485	-72.630353	-4.509179			
45045	12.364893	0.385750	3.325371	0.832890	-1.910884	2.826607	40.296297	-72.806721	-5.553506			
45046	12.075988	-0.081782	3.656158	0.700828	-2.528786	2.529010	41.002518	-72.929637	-6.279013			
45047	12.081969	0.443528	4.970963	-0.637497	-2.875355	2.923367	41.046562	-72.946919	-6.312884			
45048	12.992444	1.107404	5.462905	-1.099657	-2.616525	4.037129	40.184602	-72.818199	-5.373663			
45049	14.542860	1.654059	4.183622	0.135718	-1.393949	5.345479	38.683807	-72.515298	-3.665789			
45050	15.192906	1.921490	2.160606	1.870199	0.090814	5.539082	37.416786	-72.134845	-1.986379			
45051	13.012823	2.759206	2.179717	0.806479	0.854783	3.615512	37.103559	-71.867430	-1.200805			
45052	11.756799	4.281925	3.065884	-1.081160	1.562778	2.928798	37.767028	-71.776429	-1.500886			
45053	12.112863	7.073237	2.487222	-2.070494	4.084897	3.676731	38.730513	-71.574018	-2.240685			
45054	12.850128	8.052158	0.566298	-0.858143	5.933683	4.127813	39.522960	-71.138596	-2.886883			
45055	12.130475	8.243238	2.005957	-2.185697	5.173516	3.883262	40.140297	-70.591333	-3.427726			
45056	9.998293	7.806786	3.537914	-3.699385	3.894034	2.211393	40.855497	-70.153128	-4.212347			
45057	8.744761	7.322578	3.742105	-3.933240	3.359423	1.019558	41.974639	-69.891990	-5.459114			
45058	8.497838	7.169103	3.127647	-3.420684	3.554062	0.630425	43.220657	-69.783644	-7.041641			
45059	8.184542	6.224686	2.303095	-2.352567	3.254469	-0.070442	44.294519	-69.803733	-8.635196			
45060	7.215628	4.904814	2.254141	-1.924660	2.238703	-1.298730	45.219113	-69.947927	-10.073229			
45061	6.624728	3.911443	2.444692	-1.763204	1.335091	-2.049220	46.178098	-70.230712	-11.437865			
45062	6.808420	3.218492	2.158874	-1.156238	0.898412	-2.116605	47.239086	-70.589859	-12.764987			
45063	7.337165	2.433699	1.280313	0.065950	0.693333	-2.008156	48.227865	-70.934353	-13.945768			
45064	7.938758	1.666102	0.513070	1.219291	0.428012	-1.788166	48.989762	-71.169284	-14.791148			
45065	8.566371	1.647159	0.242286	1.609934	0.490206	-1.249844	49.562957	-71.254951	-15.299359			
45066	8.692235	2.085430	0.016414	1.586869	0.945155	-1.066675	50.049348	-71.219389	-15.601868			
45067	9.122062	2.611353	-0.047642	1.493873	1.352710	-0.540582	50.466704	-71.125713	-15.791113			
45068	9.439647	2.925777	-0.022438	1.413454	1.546365	-0.154609	50.814255	-70.991647	-15.862967			
45069	9.167885	3.272801	0.251274	0.935692	1.672149	-0.265288	51.191472	-70.868839	-15.928090			
45070	8.795141	3.328368	0.554531	0.552365	1.549666	-0.537267	51.669777	-70.791211	-16.078316			
45071	8.661958	3.333052	0.912276	0.221166	1.327566	-0.584493	52.213964	-70.767035	-16.279579			
45072	8.410692	3.287182	1.171828	-0.048868	1.132005	-0.777502	52.770520	-70.783972	-16.501171			
45073	8.062770	3.256666	1.354865	-0.303804	1.002725	-1.074729	53.382382	-70.852383	-16.818349			
45074	7.379402	3.477743	1.391044	-0.693445	1.191932	-1.652812	54.077278	-70.949872	-17.285099			
45075	6.918811	3.701487	1.191632	-0.836169	1.503491	-2.064712	54.922957	-71.069131	-17.982376			
45076	6.797459	4.123800	0.831342	-0.861923	2.035094	-2.130395	55.843901	-71.201764	-18.834266			
45077	7.101370	4.230137	0.711516	-0.765931	2.131328	-1.831432	56.623767	-71.350750	-19.647229			
45078	7.712233	4.070794	0.552233	-0.398738	2.013820	-1.319144	57.373093	-71.520245	-20.520894			
45079	8.464078	3.760180	0.487078	0.016339	1.700506	-0.695414	58.170268	-71.687042	-21.447406			
45080	8.951744	3.374742	0.426195	0.391176	1.351930	-0.340444	58.825525	-71.802598	-22.228420			
45081	9.249742	2.779074	0.406743	0.804050	0.838848	-0.216010	59.198289	-71.849264	-22.704119			
45082	9.189630	2.275482	0.461080	1.018177	0.403787	-0.397807	59.339607	-71.828799	-22.901139			
45083	8.853558	2.124119	0.634437	0.873147	0.211834	-0.730143	59.440948	-71.777563	-23.044624			
45084	8.443557	1.922246	0.794824	0.747363	-0.003249	-1.148863	59.574312	-71.720478	-23.255078			
45085	8.339630	1.933687	0.977840	0.571341	-0.103363	-1.215733	59.789043	-71.676771	-23.592663			
45086	8.465349	1.908460	0.988777	0.613889	-0.159471	-1.101790	60.017526	-71.641757	-24.017764			
45087	8.601455	1.674771	1.039819	0.739423	-0.407098	-1.028690	60.248020	-71.613570	-24.490536			
45088	8.864689	1.478274	1.095873	0.872805	-0.648347	-0.824542	60.581352	-71.598058	-25.074703			
45089	8.925377	1.454232	1.107498	0.884280	-0.704626	-0.772489	61.021816	-71.589266	-25.741523			
45090	9.349258	1.413975	1.154321	0.977387	-0.849040	-0.375306	61.550101	-71.575842	-26.441854			
45091	9.454126	1.344927	1.035174	1.126207	-0.878630	-0.314240	62.097218	-71.553755	-27.103394			
45092	9.461317	1.088313	0.945298	1.327372	-1.060895	-0.394246	62.590342	-71.512929	-27.647622			
45093	9.336785	0.968137	0.991177	1.314200	-1.191102	-0.541798	63.022442	-71.461486	-28.074028			
45094	9.180762	0.929756	1.066050	1.229830	-1.264555	-0.692617	63.398386	-71.397276	-28.402632			
45095	8.973809	1.003564	1.240729	0.994186	-1.297302	-0.845839	63.770882	-71.326417	-28.694828			
45096	8.680053	1.050377	1.420203	0.745335	-1.341591	-1.088688	64.193499	-71.254619	-29.030252			
45097	8.363736	1.073964	1.420409	0.643162	-1.298075	-1.385094	64.724150	-71.184283	-29.470628			
45098	8.429036	1.283839	1.544855	0.445992	-1.245195	-1.249163	65.407799	-71.113954	-30.084519			
45099	8.329541	1.288504	1.246882	0.645015	-1.086109	-1.386514	66.208666	-71.031782	-30.845741			
45100	8.319828	1.311636	1.249847	0.619371	-1.108677	-1.393120	67.034301	-70.923917	-31.659926			
45101	8.097451	1.237704	1.101368	0.709098	-1.083627	-1.649574	67.826698	-70.790374	-32.478548			
45102	8.060204	1.360959	1.373143	0.413622	-1.181527	-1.618946	68.505760	-70.628025	-33.226320			
45103	8.044847	1.450753	1.524799	0.244229	-1.236021	-1.593092	69.022283	-70.426757	-33.813276			
45104	8.244816	1.575348	1.422342	0.326856	-1.151965	-1.383703	69.458097	-70.199395	-34.305019			
45105	8.392454	1.761720	1.555565	0.177796	-1.149566	-1.175357	69.872952	-69.959499	-34.759839			
45106	8.670463	1.795883	1.676648	0.155632	-1.288041	-0.894737	70.356591	-69.732726	-35.283021			
45107	9.201118	1.865274	1.938450	0.067578	-1.536418	-0.350547	70.914013	-69.543252	-35.896821			
45108	9.631835	1.882389	1.990080	0.138980	-1.686409	0.057094	71.534367	-69.395224	-36.592276			
45109	10.326621	1.847695	1.855456	0.450292	-1.826819	0.673282	72.217993	-69.301189	-37.377183			
45110	10.921466	1.793211	1.462502	0.940045	-1.813012	1.162832	72.894033	-69.261116	-38.175235			
45111	11.247634	1.990169	1.331398	1.001718	-1.694662	1.517234	73.566202	-69.277302	-38.980082			
45112	11.466844	2.257246	1.600384	0.664951	-1.723095	1.837782	74.210971	-69.344778	-39.742115			
45113	11.450772	2.353975	1.614417	0.550350	-1.677504	1.855669	74.868833	-69.458274	-40.502961			
45114	11.792486	2.523103	1.693124	0.435337	-1.685637	2.239876	75.481653	-69.614341	-41.180346			
45115	11.950603	2.805507	1.484494	0.444944	-1.388248	2.465996	75.971320	-69.790588	-41.672186			
45116	12.259080	3.183393	1.441663	0.308595	-1.138316	2.880073	76.471694	-69.983772	-42.111703			
45117	12.746247	3.259722	1.070173	0.633043	-0.977799	3.335721	77.095135	-70.197735	-42.601877			
45118	13.123699	3.525943	0.139340	1.271160	-0.322587	3.713683	77.890981	-70.431212	-43.131465			
45119	13.610678	4.091382	-1.131557	2.038145	0.746178	4.278406	78.627971	-70.672176	-43.477442			
45120	13.542084	4.345550	-2.309942	2.760896	1.672359	4.229671	78.932772	-70.886434	-43.304979			
45121	13.546882	4.670229	-3.123853	3.182433	2.456588	4.291363	78.808906	-71.066730	-42.660892			
45122	13.091465	5.067054	-3.214037	2.891705	2.995470	3.973392	78.165003	-71.201830	-41.428095			
45123	11.769045	5.663850	-2.710129	1.823163	3.522789	2.923074	77.054265	-71.277478	-39.614371			
45124	10.391194	6.317972	-1.857793	0.431719	3.863911	1.859003	75.784812	-71.315871	-37.553736			
45125	9.542014	7.224158	-0.822591	-1.119848	4.131701	1.393999	74.362188	-71.333750	-35.426648			
45126	8.839251	7.823122	0.118867	-2.370208	4.172354	0.972529	72.606320	-71.336651	-33.197752			
45127	8.680784	7.834758	1.422853	-3.381477	3.444724	0.932669	70.640967	-71.373015	-31.037868			
45128	8.781084	7.696182	2.411108	-3.983208	2.780372	1.075595	68.835988	-71.501138	-29.268342			
45129	8.478783	7.508563	2.684194	-4.135178	2.623522	0.746160	67.060766	-71.723072	-27.764788			
45130	8.140866	6.592106	2.259738	-3.343122	2.386176	0.084990	65.108872	-71.991299	-26.288071			
45131	7.761237	5.370385	2.143674	-2.623932	1.717994	-0.656533	63.057008	-72.275549	-24.786458			
45132	7.778774	3.833245	2.128364	-1.705559	0.667912	-1.073299	61.131837	-72.565926	-23.424559			
45133	8.460902	2.435179	1.871825	-0.525397	-0.236811	-0.830044	59.597674	-72.872012	-22.444362			
45134	9.501763	1.203441	1.407012	0.794129	-0.956915	-0.212443	58.473236	-73.162188	-21.831789			
45135	10.463468	0.865109	0.885268	1.618994	-0.958868	0.554350	57.726437	-73.401920	-21.454770			
45136	10.425632	1.194457	0.637401	1.596352	-0.505436	0.566276	57.053314	-73.554875	-21.020693			
45137	10.419463	1.583984	0.291541	1.643859	0.048017	0.601462	56.330250	-73.620692	-20.418862			
45138	10.162570	2.257372	0.309546	1.202467	0.640874	0.512645	55.336039	-73.562222	-19.400569			
45139	9.652461	2.602231	0.731057	0.581580	0.764471	0.164933	53.944923	-73.368438	-17.869909			
45140	8.750415	2.814485	1.397048	-0.246733	0.670887	-0.542776	52.387821	-73.061362	-16.048432			
45141	7.741850	3.032010	2.127106	-1.157249	0.533446	-1.325658	50.957037	-72.718266	-14.275143			
45142	7.195281	2.857391	2.545674	-1.481292	0.216081	-1.801699	49.708058	-72.382313	-12.681359			
45143	6.623045	2.713634	2.723047	-1.650198	0.058962	-2.334948	48.555257	-72.033490	-11.162191			
45144	6.099807	2.524714	2.903968	-1.785980	-0.148778	-2.826792	47.513118	-71.673182	-9.761929			
45145	5.710781	2.458688	2.882173	-1.804212	-0.150287	-3.203064	46.617335	-71.337758	-8.523450			
45146	5.765490	2.271458	3.060349	-1.769879	-0.397183	-3.143674	45.868705	-71.044542	-7.448793			
45147	6.064643	2.278467	3.157831	-1.711369	-0.452922	-2.826333	45.168448	-70.782992	-6.426861			
45148	6.221214	2.094456	2.847849	-1.287986	-0.391553	-2.785016	44.511463	-70.571237	-5.452036			
45149	6.796160	2.209129	2.791773	-1.097618	-0.268994	-2.224219	43.937475	-70.433112	-4.574154			
45150	6.845330	2.493597	2.549885	-1.054520	0.122448	-2.167335	43.311046	-70.329163	-3.701850			
45151	7.065258	2.433335	2.598906	-0.966798	0.065710	-1.960668	42.593322	-70.253604	-2.851410			
45152	7.224141	2.256474	2.439266	-0.680292	0.061664	-1.890365	41.838385	-70.193877	-2.073308			
45153	7.260548	2.079787	2.429917	-0.548870	-0.035765	-1.897958	41.179164	-70.178104	-1.477993			
45154	7.029478	1.767973	2.402370	-0.423121	-0.229410	-2.191732	40.727415	-70.246660	-1.193610			
45155	7.241009	1.538549	2.537540	-0.328046	-0.476899	-2.008627	40.495394	-70.392431	-1.184088			
45156	7.365158	1.195745	2.699426	-0.226390	-0.836899	-1.925323	40.425872	-70.592979	-1.373266			
45157	7.753328	1.104868	3.018020	-0.312113	-1.109014	-1.499095	40.467735	-70.824671	-1.656915			
45158	8.118465	0.966332	3.273381	-0.337768	-1.382181	-1.121678	40.581969	-71.055951	-1.974697			
45159	8.242058	0.918146	3.459203	-0.447865	-1.542921	-0.971915	40.792754	-71.292267	-2.343441			
45160	8.244646	0.898665	3.454531	-0.473662	-1.565347	-0.978620	41.103441	-71.535016	-2.782312			
45161	8.185115	0.845766	3.529783	-0.559906	-1.665498	-1.032980	41.448465	-71.778943	-3.249526			
45162	8.198420	0.652591	3.717775	-0.624989	-1.944935	-1.021312	41.721311	-72.003933	-3.687437			
45163	8.180159	0.627673	4.104940	-0.948097	-2.209247	-0.959456	41.894833	-72.207046	-4.082599			
45164	8.153474	0.676107	4.103366	-1.023809	-2.169293	-0.979810	41.992767	-72.400073	-4.461416			
45165	8.479942	0.755751	3.865136	-0.829832	-1.964428	-0.709273	42.023720	-72.569995	-4.780271			
45166	8.854771	0.854503	3.508751	-0.532556	-1.671358	-0.412082	41.898160	-72.667018	-4.900234			
45167	9.019862	1.101298	3.136353	-0.353709	-1.242758	-0.287043	41.666189	-72.683470	-4.838496			
45168	9.099285	1.205850	2.777223	-0.114446	-0.932945	-0.269076	41.431109	-72.649653	-4.733483			
45169	9.254660	1.367142	2.818368	-0.187045	-0.825317	-0.078989	41.365455	-72.616538	-4.770069			
45170	9.567330	1.483595	3.118700	-0.390016	-0.922271	0.309489	41.542217	-72.618010	-5.085212			
45171	10.335331	1.466445	3.578019	-0.515902	-1.243324	1.139923	41.894762	-72.668694	-5.666301			
45172	11.024269	1.222259	4.029706	-0.546886	-1.745337	1.845853	42.270283	-72.747715	-6.395758			
45173	11.376535	0.457239	4.508451	-0.431195	-2.671124	2.130498	42.572614	-72.876405	-7.194872			
45174	11.944015	-0.073633	5.310468	-0.658844	-3.590562	2.738784	42.553428	-73.001522	-7.734904			
45175	12.706334	-0.133351	5.637806	-0.712735	-3.823404	3.533726	41.810543	-73.036924	-7.526967			
45176	13.317556	-0.359032	4.888776	0.163606	-3.533790	3.930354	40.500969	-72.999335	-6.559802			
45177	13.749865	-0.170748	3.669149	1.176873	-2.614278	4.127550	39.124125	-72.924909	-5.203586			
45178	14.371532	0.049696	2.101974	2.517238	-1.480942	4.415152	38.187811	-72.869334	-4.033713			
45179	14.579826	0.524047	2.563997	1.994123	-1.287706	4.808697	37.618271	-72.738188	-3.104125			
45180	14.139613	2.018823	2.701494	1.001188	-0.090812	4.688741	37.389422	-72.512981	-2.424723			
45181	13.773805	4.876356	2.194130	-0.205634	2.549261	4.739609	37.457668	-72.134890	-1.883715			
45182	13.625707	6.934506	0.651121	-0.114263	5.107140	4.612104	37.642399	-71.577200	-1.460888			
45183	12.203781	7.692766	1.166445	-1.288397	5.391522	3.556752	38.080327	-70.943474	-1.397407			
45184	10.680887	7.752738	2.624932	-2.828849	4.522774	2.541157	38.781953	-70.422274	-1.818935			
45185	9.052863	7.299598	3.376537	-3.609368	3.663417	1.150460	39.659075	-70.102362	-2.646061			
45186	7.701767	6.576487	3.621668	-3.802747	2.912664	-0.182569	40.604745	-70.013839	-3.811678			
45187	6.764509	5.384697	3.688495	-3.497448	1.919092	-1.301314	41.481365	-70.171997	-5.166960			
45188	6.122304	3.972253	3.204886	-2.585869	1.089552	-2.352208	42.168497	-70.492370	-6.411074			
45189	5.918403	2.946562	2.661191	-1.713329	0.592127	-2.920272	42.554086	-70.874784	-7.236280			
45190	5.881401	1.984983	2.216836	-0.903503	0.079343	-3.284087	42.574888	-71.264477	-7.518702			
45191	5.869748	0.702894	2.035209	-0.118089	-0.847639	-3.619346	42.378363	-71.656387	-7.441204			
45192	6.352318	-0.170464	1.700980	0.721468	-1.376705	-3.420635	42.360816	-72.058668	-7.398216			
45193	7.690773	-0.044525	1.135757	1.459064	-1.000408	-2.242349	42.760417	-72.429037	-7.654966			
45194	9.593818	0.639445	-0.083538	2.563350	0.171758	-0.546800	43.565092	-72.707446	-8.220989			
45195	11.729075	2.070911	-1.180278	3.219290	1.850379	1.565576	44.545481	-72.847120	-8.921119			
45196	12.656845	3.378019	-1.814870	3.235199	3.195882	2.605852	45.417765	-72.813711	-9.511753			
45197	12.857812	3.427644	-2.055514	3.450687	3.326159	2.770098	46.191349	-72.669819	-10.029921			
45198	11.580948	3.394794	-1.057410	2.342896	2.737332	1.753591	46.654142	-72.400404	-10.218665			
45199	10.620021	3.197879	0.497147	1.006680	1.677066	1.115820	46.867451	-72.108288	-10.180953			
45200	10.384587	3.310000	1.342344	0.264203	1.252202	1.094176	47.025500	-71.864079	-10.058923			
45201	9.611552	3.379761	1.630029	-0.202535	1.157731	0.438180	47.233809	-71.690262	-9.930447			
45202	8.652051	3.557040	1.628032	-0.587373	1.330536	-0.429424	47.564586	-71.616740	-9.891889			
45203	8.012746	3.827287	1.447258	-0.813990	1.663638	-1.008347	48.070591	-71.655322	-10.029765			
45204	7.523633	4.302552	1.090707	-0.999057	2.254019	-1.432488	48.704511	-71.776043	-10.325047			
45205	7.221395	4.248851	0.986609	-1.018585	2.264757	-1.749942	49.384489	-71.947333	-10.763703			
45206	7.336473	4.027050	0.922928	-0.843499	2.098957	-1.702480	50.103164	-72.158695	-11.350225			
45207	7.755273	3.580452	0.640471	-0.282454	1.881823	-1.460869	50.815579	-72.389270	-11.989760			
45208	7.973250	3.226361	0.403268	0.131432	1.722941	-1.377120	51.427288	-72.597004	-12.573182			
45209	8.221956	2.931011	0.358184	0.380226	1.488633	-1.212747	51.967209	-72.761211	-13.090608			
45210	8.232491	2.846948	0.505839	0.294972	1.310390	-1.191164	52.541365	-72.893564	-13.635715			
45211	8.201269	2.655439	0.551913	0.339991	1.112990	-1.253346	53.244964	-73.018897	-14.357675			
45212	8.202123	2.509834	0.369787	0.539672	1.086402	-1.313325	54.144432	-73.128766	-15.305904			
45213	8.141503	2.609727	0.466161	0.369633	1.072169	-1.325889	55.043820	-73.199714	-16.317376			
45214	7.825550	2.456607	0.505600	0.329132	0.920781	-1.653428	55.875618	-73.223758	-17.323946			
45215	7.696798	2.134501	0.655960	0.360784	0.555480	-1.825932	56.697022	-73.221067	-18.376559			
45216	7.721626	1.925713	0.744099	0.417179	0.301835	-1.836453	57.537643	-73.182609	-19.480300			
45217	7.993491	1.823779	0.889143	0.434237	0.066014	-1.577424	58.536201	-73.125513	-20.750666			
45218	8.238131	1.585571	0.744495	0.745167	-0.102577	-1.424058	59.604756	-73.022338	-22.069534			
45219	8.643857	1.457268	0.424655	1.174784	-0.105157	-1.116208	60.725301	-72.871399	-23.375738			
45220	8.947996	1.556691	0.522144	1.132016	-0.183207	-0.787876	61.726369	-72.645800	-24.493044			
45221	9.163596	1.232639	0.675060	1.275254	-0.612075	-0.650514	62.404956	-72.365179	-25.262890			
45222	9.042720	1.001021	0.815459	1.293912	-0.910067	-0.816292	62.891356	-72.053604	-25.753170			
45223	8.916625	1.041743	1.330379	0.872433	-1.216460	-0.861699	63.204289	-71.726057	-26.022394			
45224	8.734580	0.925239	1.353798	0.907633	-1.329844	-1.072594	63.455548	-71.415616	-26.237466			
45225	8.596232	1.100705	1.578454	0.631793	-1.341973	-1.129483	63.642503	-71.122629	-26.407452			
45226	8.532991	1.137230	1.829639	0.433984	-1.484427	-1.148924	63.722302	-70.843919	-26.515292			
45227	8.532644	1.107172	1.709222	0.577422	-1.454011	-1.181024	63.743807	-70.591997	-26.595006			
45228	8.646689	1.069294	1.790835	0.599626	-1.566968	-1.077661	63.710146	-70.371786	-26.643904			
45229	8.784315	0.700811	2.035770	0.681799	-2.033971	-1.026463	63.561756	-70.197984	-26.622873			
45230	8.743349	0.370089	2.261945	0.696358	-2.426911	-1.133708	63.394813	-70.079915	-26.571819			
45231	8.756717	0.155737	2.408526	0.715327	-2.685444	-1.165026	63.278788	-70.027079	-26.546973			
45232	8.884213	0.166787	2.438236	0.728882	-2.714188	-1.037497	63.257060	-70.012974	-26.547335			
45233	9.008822	0.135080	2.179890	0.984614	-2.602001	-0.970224	63.356260	-70.025961	-26.605071			
45234	9.466284	0.161661	1.906273	1.317965	-2.491368	-0.575448	63.667281	-70.050220	-26.788436			
45235	9.795710	0.182160	1.600010	1.637351	-2.352553	-0.308283	64.141820	-70.074201	-27.046985			
45236	9.993395	0.351912	1.263349	1.853160	-2.066042	-0.123258	64.836036	-70.100719	-27.455930			
45237	10.008268	0.490845	1.053844	1.925909	-1.860817	-0.099548	65.697039	-70.127126	-27.983461			
45238	9.701783	0.633788	1.154573	1.657627	-1.799953	-0.332623	66.628524	-70.143114	-28.588892			
45239	9.752050	0.730050	1.176855	1.580374	-1.787827	-0.256205	67.622263	-70.161093	-29.274508			
45240	9.929451	1.101382	1.160081	1.412114	-1.566574	0.021154	68.550605	-70.159048	-29.915971			
45241	10.329419	1.725950	1.289322	1.047939	-1.291212	0.607125	69.549259	-70.158648	-30.646098			
45242	10.883141	2.707526	1.798003	0.223758	-1.029029	1.496466	70.569970	-70.165900	-31.419661			
45243	11.120249	3.354922	1.578662	0.043289	-0.505177	1.898423	71.623915	-70.193171	-32.274235			
45244	11.883045	3.668570	1.078798	0.413536	-0.143781	2.662765	72.553722	-70.232690	-33.073633			
45245	12.450437	3.930610	0.742021	0.636308	0.119595	3.248487	73.167550	-70.270129	-33.612799			
45246	12.936921	3.852745	0.922459	0.649829	-0.172822	3.700500	73.614421	-70.334835	-33.976387			
45247	13.342253	3.921812	1.054406	0.579100	-0.301246	4.118635	74.155201	-70.482673	-34.373838			
45248	13.665291	4.031683	0.200208	1.184879	0.262580	4.384545	74.760201	-70.696462	-34.696671			
45249	13.640328	4.307104	-0.687010	1.604042	1.048641	4.379159	75.317301	-70.934788	-34.839958			
45250	13.271557	4.392689	-1.876063	2.263857	1.975825	3.968461	75.746271	-71.158725	-34.777190			
45251	13.020273	4.518576	-2.675661	2.638660	2.673259	3.714869	75.963192	-71.367223	-34.481639			
45252	12.311787	5.054600	-2.779845	2.126377	3.299824	3.204445	75.928152	-71.564096	-33.903484			
45253	11.596662	5.732982	-2.251358	1.061936	3.601700	2.769753	75.649135	-71.743787	-33.039380			
45254	10.657275	5.974399	-2.331863	0.659412	4.036033	1.933957	75.261449	-71.903361	-32.001652			
45255	9.782191	6.921252	-2.249461	-0.304233	4.829278	1.378385	74.744134	-72.025590	-30.780976			
45256	8.835582	7.224215	-1.525221	-1.321391	4.716521	0.608020	73.882659	-72.109144	-29.290925			
45257	7.532973	7.450964	-0.362059	-2.667665	4.275203	-0.485324	72.752897	-72.157890	-27.668860			
45258	6.377255	7.443574	1.039847	-3.957729	3.463089	-1.475976	71.428569	-72.198415	-26.091466			
45259	5.492098	7.406083	2.073456	-4.880907	2.856104	-2.240924	70.049051	-72.275203	-24.724476			
45260	5.664396	7.111625	2.671121	-5.037523	2.265324	-2.112904	68.885348	-72.450643	-23.849738			
45261	5.959967	6.345811	2.504174	-4.324094	1.902595	-2.083326	67.762710	-72.697596	-23.243485			
45262	6.061082	5.442176	2.290080	-3.545379	1.504994	-2.278567	66.531020	-72.957411	-22.662399			
45263	6.256827	4.451282	2.336339	-2.874046	0.846221	-2.366663	65.168093	-73.209839	-22.054449			
45264	7.112247	3.483547	2.007419	-1.785903	0.378969	-1.849322	63.790850	-73.439842	-21.502012			
45265	8.732439	2.699665	1.504538	-0.497444	0.062836	-0.563069	62.465756	-73.628372	-20.989756			
45266	10.081896	2.013639	0.880717	0.744748	-0.095465	0.478619	61.200375	-73.733646	-20.472232			
45267	10.841629	1.589640	0.332762	1.620636	-0.076986	1.029179	60.152255	-73.762490	-20.030938			
45268	11.243020	1.540216	0.262818	1.824874	-0.077368	1.390465	59.422459	-73.729312	-19.762552			
45269	11.183644	1.720462	0.121916	1.829101	0.173989	1.353009	58.860057	-73.638938	-19.488196			
45270	10.797486	1.881216	0.220391	1.588672	0.285504	1.030177	58.256974	-73.488942	-19.039663			
45271	10.068720	2.216078	0.793054	0.802645	0.264101	0.492885	57.499014	-73.287462	-18.297777			
45272	9.646506	2.307208	1.516444	0.136035	-0.062989	0.220016	56.645189	-73.071176	-17.390465			
45273	8.625394	2.207557	2.041488	-0.435732	-0.356955	-0.695622	55.760873	-72.862202	-16.392584			
45274	7.885814	2.198913	2.556637	-0.983963	-0.607200	-1.314416	54.974963	-72.675989	-15.432531			
45275	7.774348	2.181005	2.851570	-1.191316	-0.782068	-1.368888	54.337030	-72.539302	-14.604394			
45276	7.745477	2.364872	2.926091	-1.339296	-0.672816	-1.333266	53.794715	-72.438226	-13.834605			
45277	7.830560	2.173579	2.952869	-1.197811	-0.827722	-1.289681	53.325304	-72.374678	-13.136444			
45278	8.246987	2.060462	2.926199	-0.970236	-0.912646	-0.921870	52.959422	-72.332688	-12.506780			
45279	8.399474	2.180389	2.903610	-0.967098	-0.807086	-0.749050	52.601695	-72.284589	-11.877468			
45280	8.664619	2.252913	2.828934	-0.864387	-0.709723	-0.490498	52.281654	-72.245337	-11.327082			
45281	8.745895	2.282439	2.584532	-0.668324	-0.518650	-0.449764	51.921193	-72.199784	-10.782276			
45282	8.564075	2.397705	2.543185	-0.748439	-0.376867	-0.600853	51.375107	-72.113334	-10.125650			
45283	8.486819	2.267790	2.260004	-0.465544	-0.254528	-0.757581	50.654933	-72.007728	-9.386956			
45284	8.234687	2.335894	2.125496	-0.464371	-0.069499	-1.005668	49.880360	-71.888091	-8.595597			
45285	7.769045	2.142378	2.090190	-0.439756	-0.136334	-1.499766	49.122584	-71.783221	-7.856045			
45286	7.572913	2.133580	2.264222	-0.604312	-0.222176	-1.650993	48.547138	-71.725644	-7.305607			
45287	7.156849	2.079530	2.346814	-0.753168	-0.279570	-2.040492	48.140463	-71.729805	-6.980358			
45288	7.257722	2.031940	2.469070	-0.785159	-0.386000	-1.930167	47.979263	-71.813407	-6.953750			
45289	7.396347	1.844160	2.509300	-0.671465	-0.551775	-1.834712	48.000062	-71.956344	-7.150066			
45290	7.490657	1.732295	2.674945	-0.716768	-0.747511	-1.738436	48.155211	-72.116568	-7.483191			
45291	7.476311	1.500625	2.721976	-0.640719	-0.956777	-1.798311	48.460730	-72.299683	-7.970030			
45292	7.490520	1.274946	2.698349	-0.512677	-1.122553	-1.844538	48.907863	-72.498702	-8.594636			
45293	7.489603	1.174442	2.858086	-0.603933	-1.316860	-1.841292	49.451035	-72.704932	-9.332777			
45294	7.635703	1.176943	2.986560	-0.695951	-1.422049	-1.682377	50.079127	-72.921758	-10.181960			
45295	7.759267	1.170738	3.063114	-0.756050	-1.499839	-1.558101	50.720262	-73.150663	-11.078871			
45296	7.854761	1.080884	2.989740	-0.665755	-1.541799	-1.507054	51.315202	-73.385054	-11.974898			
45297	7.851462	1.067505	2.921696	-0.655408	-1.519941	-1.531302	51.840973	-73.623739	-12.846725			
45298	8.084985	1.002275	2.831437	-0.531990	-1.535186	-1.342234	52.269830	-73.855032	-13.641789			
45299	8.312529	0.862631	2.753317	-0.374765	-1.612840	-1.170861	52.570932	-74.069425	-14.305803			
45300	8.341125	0.626075	2.797964	-0.304922	-1.827794	-1.189406	52.812975	-74.264854	-14.876623			
45301	8.345074	0.489232	2.770505	-0.243518	-1.919248	-1.221275	53.090134	-74.449749	-15.443902			
45302	8.431656	0.426407	2.687123	-0.159559	-1.927517	-1.166627	53.458326	-74.626392	-16.076967			
45303	8.841947	0.429704	2.522588	0.031541	-1.861189	-0.798089	53.831306	-74.788844	-16.732297			
45304	9.207559	0.094147	2.451094	0.334895	-2.116611	-0.528100	54.071518	-74.926122	-17.300560			
45305	9.524562	-0.210086	2.567520	0.459098	-2.457350	-0.267839	54.268322	-75.059168	-17.827185			
45306	10.064393	-0.687741	2.952791	0.516688	-3.116632	0.212451	54.562058	-75.223769	-18.435875			
45307	10.836555	-1.139009	3.388594	0.557868	-3.804602	0.930883	54.882035	-75.438055	-19.044832			
45308	11.664018	-1.751918	4.034645	0.518868	-4.742879	1.703924	54.935995	-75.682467	-19.386719			
45309	12.488128	-1.906690	4.469123	0.389748	-5.158359	2.548575	54.152334	-75.899909	-18.856020			
45310	13.114211	-1.758527	4.186198	0.647915	-4.842882	3.176724	52.260269	-76.033524	-17.171041			
45311	13.860298	-0.945553	3.089479	1.270400	-3.467209	3.931725	49.447569	-76.032108	-14.316222			
45312	14.706306	0.580209	2.026381	1.542675	-1.489549	4.888204	46.497655	-75.896197	-10.979737			
45313	16.793761	2.353913	2.048823	1.129914	0.017149	7.231031	44.064478	-75.620536	-7.875971			
45314	20.136353	5.657547	2.612901	-0.228562	2.381648	11.129597	42.302701	-75.092361	-5.253637			
45315	23.268344	9.915474	0.984254	-0.431807	6.774622	14.572028	41.583639	-74.328903	-3.772454			
45316	21.813015	13.305892	-1.660889	-0.563149	11.074534	13.266406	42.244045	-73.499996	-3.963384			
45317	17.559070	12.281430	-2.720520	-0.103766	10.913235	8.827021	43.090737	-72.618539	-4.750719			
45318	11.392851	11.166476	0.037076	-3.079033	8.423701	3.379842	42.942530	-71.526282	-4.761119			
45319	5.913649	9.895447	2.794457	-5.900797	5.888822	-1.374764	42.231501	-70.529322	-4.473505			
45320	3.496603	8.187868	4.888332	-7.145477	3.391912	-3.440998	41.639415	-69.926261	-4.477364			
45321	2.177368	6.359098	5.922967	-7.281266	1.429623	-4.792788	41.537742	-69.841803	-4.980542			
45322	2.046448	4.487043	5.610455	-6.050944	0.191058	-5.436859	41.757097	-70.179703	-5.749150			
45323	2.378226	2.493385	4.121784	-3.738351	-0.504406	-5.987498	42.043788	-70.714600	-6.388349			
45324	2.080851	0.956773	2.622316	-1.875374	-0.844579	-7.003514	42.469046	-71.269594	-6.853434			
45325	2.065811	0.107033	1.690237	-0.719957	-0.990072	-7.438390	43.401608	-71.848109	-7.616487			
45326	3.176160	0.153202	0.814494	0.248118	-0.498388	-6.577756	44.959089	-72.406888	-8.937218			
45327	4.808938	0.525177	-0.116713	1.216259	0.247973	-5.135689	46.646425	-72.781799	-10.544366			
45328	8.021516	1.544040	-1.505109	2.628771	1.663756	-2.111061	48.492322	-72.933092	-12.388459			
45329	11.525696	5.481934	-2.958362	2.522566	5.360797	1.872407	51.030552	-72.916294	-14.440126			
45330	13.038794	9.225815	-2.988688	0.855596	8.114748	4.239897	52.518281	-72.631181	-15.860976			
45331	12.009319	8.215503	-4.647289	2.569076	8.328765	2.730868	51.693740	-71.965567	-15.870652			
45332	9.693985	6.607989	-0.183048	-0.484461	4.601812	0.969561	50.233187	-71.194358	-15.145922			
45333	7.923458	6.825529	2.661081	-3.210408	3.328541	-0.062687	49.181667	-70.714714	-14.844717			
45334	6.573188	6.179612	1.895239	-2.589863	3.420942	-1.653321	48.457440	-70.485836	-14.870487			
45335	5.656495	6.208621	1.675631	-2.652828	3.701829	-2.559479	47.838327	-70.374391	-14.957342			
45336	5.802179	6.004257	2.094479	-2.787224	3.339979	-2.384444	47.557028	-70.437206	-15.452686			
45337	6.733745	5.264353	1.931841	-1.975202	2.765484	-1.735600	47.989508	-70.776773	-16.811087			
45338	8.514373	4.089774	1.061366	-0.172185	2.065673	-0.536358	49.087367	-71.310623	-18.912583			
45339	9.672877	3.741137	0.542246	0.703657	1.879726	0.376793	50.317096	-71.826073	-21.091240			
45340	10.275788	3.615164	0.288116	1.081931	1.787396	0.882097	51.266367	-72.237125	-22.986497			
45341	10.658671	3.398575	-0.398724	1.826808	1.849627	1.075748	51.760457	-72.496086	-24.384876			
45342	11.134160	3.295338	-0.901674	2.424489	1.903279	1.418567	51.864278	-72.610030	-25.347465			
45343	11.137952	2.988964	-0.701046	2.391218	1.511473	1.388954	51.738347	-72.639698	-26.106339			
45344	10.489149	2.260303	-0.135913	2.033798	0.672535	0.702111	51.577497	-72.619242	-26.869075			
45345	9.559149	1.856654	0.433990	1.449466	0.166445	-0.175046	51.591004	-72.607584	-27.845186			
45346	8.921351	1.571515	1.097270	0.792048	-0.300521	-0.727179	51.805225	-72.627047	-29.063850			
45347	8.590551	1.456797	1.534164	0.335006	-0.550140	-0.988939	52.182726	-72.681904	-30.411433			
45348	8.518578	1.625628	1.742591	0.045246	-0.481249	-0.980261	52.629281	-72.736162	-31.762691			
45349	8.628207	1.939851	1.703263	-0.018982	-0.211936	-0.809092	53.212377	-72.790510	-33.173207			
45350	9.168112	2.071147	1.417651	0.306551	-0.101463	-0.312728	54.037858	-72.859205	-34.786686			
45351	9.827379	2.103677	1.084121	0.728008	-0.106041	0.268811	55.027853	-72.909085	-36.494230			
45352	10.215106	2.216579	0.772039	1.041908	-0.016946	0.616668	56.039843	-72.896733	-38.140064			
45353	10.287356	2.248995	0.685311	1.103986	-0.030789	0.681942	56.996069	-72.816471	-39.668453			
45354	10.255209	2.326010	0.575560	1.162149	0.017345	0.654387	57.911534	-72.673346	-41.118513			
45355	10.188041	2.322135	0.520616	1.191135	-0.022704	0.581534	58.716202	-72.491206	-42.466022			
45356	9.948035	2.348230	0.645111	1.015720	-0.050870	0.378445	59.309195	-72.259321	-43.613837			
45357	9.417429	2.628611	0.829848	0.673775	0.213173	-0.025628	59.589108	-71.973684	-44.468637			
45358	8.981491	3.018490	1.251140	0.124657	0.509819	-0.269728	59.566799	-71.644353	-45.074268			
45359	8.537474	3.490339	1.607491	-0.363494	0.922759	-0.502962	59.307725	-71.297759	-45.515012			
45360	8.259499	3.762849	1.980200	-0.775145	1.125237	-0.623989	58.982878	-70.972013	-45.977524			
45361	8.103979	3.839639	2.241264	-1.014115	1.160342	-0.698662	58.701422	-70.711045	-46.599119			
45362	8.146435	3.623952	2.035857	-0.721319	0.989264	-0.749406	58.627696	-70.533878	-47.522134			
45363	8.574758	3.268729	1.641263	-0.160534	0.623842	-0.512697	58.742308	-70.435463	-48.725271			
45364	9.103724	2.806630	1.223507	0.433888	0.116534	-0.218415	58.942835	-70.380399	-50.105741			
45365	9.385276	2.422613	0.717248	1.025925	-0.260010	-0.151079	59.150935	-70.347866	-51.560177			
45366	9.614226	2.053761	0.460843	1.347032	-0.668341	-0.086314	59.254636	-70.310400	-52.942119			
45367	9.672584	1.868453	0.246974	1.570290	-0.871074	-0.123194	59.143846	-70.249464	-54.109101			
45368	9.833813	1.798315	0.419550	1.435930	-1.037124	0.034963	58.773160	-70.154927	-54.985326			
45369	10.255124	1.814643	0.556519	1.395007	-1.179412	0.455373	58.166079	-70.030900	-55.578589			
45370	10.520712	1.647567	0.844592	1.191119	-1.456117	0.702732	57.372648	-69.878252	-55.893794			
45371	10.569614	1.609161	1.881838	0.216584	-1.569528	0.926819	56.520932	-69.711005	-56.014459			
45372	10.303889	1.723969	2.573920	-0.472647	-1.403502	0.844419	55.743672	-69.552221	-56.058092			
45373	10.024393	2.170114	2.819847	-0.716049	-0.891584	0.762833	55.158846	-69.424332	-56.159028			
45374	9.663899	2.510087	2.307300	-0.236366	-0.449858	0.422390	54.722685	-69.307627	-56.318464			
45375	9.023355	2.689725	1.882540	0.092886	-0.090886	-0.211513	54.364302	-69.190663	-56.496698			
45376	8.297914	2.854389	1.891995	-0.020254	0.275351	-0.840159	54.059533	-69.069583	-56.688074			
45377	7.734025	3.186467	2.288037	-0.468766	0.761891	-1.186938	53.874599	-68.979553	-56.989335			
45378	7.512505	3.595039	2.591097	-0.754716	1.224164	-1.209919	53.830055	-68.930405	-57.432368			
45379	7.599086	4.241769	2.426416	-0.501234	1.808673	-0.975061	53.877941	-68.888296	-57.969672			
45380	7.993669	4.857728	2.140475	-0.065101	2.256554	-0.486296	53.942835	-68.819475	-58.539709			
45381	8.697935	5.139125	1.808964	0.448892	2.274999	0.185301	53.950286	-68.698003	-59.076021			
45382	9.332211	5.270884	1.762968	0.662936	2.173558	0.808819	53.892379	-68.538064	-59.551396			
45383	9.520362	5.618573	2.084690	0.466559	2.434381	1.160348	53.883522	-68.383486	-60.071370			
45384	9.678557	5.990344	2.025896	0.635641	2.701301	1.410581	54.038033	-68.279475	-60.762358			
45385	9.884042	6.321706	1.648805	1.110869	2.886674	1.624523	54.269118	-68.208115	-61.544537			
45386	9.717130	6.665663	1.238756	1.556352	3.192816	1.490927	54.483072	-68.120591	-62.311025			
45387	9.393216	7.120370	0.915110	1.921194	3.653841	1.265569	54.623459	-68.009933	-63.039703			
45388	8.911746	7.575486	0.611049	2.262782	4.160998	0.899269	54.629454	-67.877002	-63.719883			
45389	8.274817	7.689974	0.436106	2.417997	4.412731	0.310495	54.461586	-67.744725	-64.368814			
45390	7.554384	7.506210	0.717656	2.083360	4.477974	-0.350484	54.141443	-67.625793	-65.029673			
45391	6.876455	7.042021	0.978203	1.728329	4.281477	-1.065498	53.769694	-67.555064	-65.808499			
45392	6.567204	6.416347	1.381388	1.251689	3.850460	-1.457316	53.484704	-67.541103	-66.825695			
45393	6.564514	5.798141	1.687042	0.897136	3.324413	-1.584679	53.299879	-67.582318	-68.073739			
45394	7.034145	5.408966	1.759780	0.871001	2.806448	-1.257127	53.164908	-67.639453	-69.470925			
45395	7.249388	5.126105	1.644095	0.998000	2.431831	-1.174204	53.048443	-67.692571	-70.938917			
45396	7.394440	4.958536	1.583409	1.085734	2.192544	-1.107198	52.971606	-67.728451	-72.490976			
45397	7.390626	4.639483	1.564504	1.051505	1.880567	-1.213193	52.912396	-67.749700	-74.116255			
45398	7.486099	4.040721	1.700079	0.759115	1.340524	-1.275361	52.910566	-67.758465	-75.829176			
45399	7.747898	3.467433	2.035787	0.278503	0.850157	-1.129540	52.927947	-67.750509	-77.558599			
45400	8.193081	3.002819	2.222407	-0.036134	0.352677	-0.815082	52.981264	-67.723186	-79.280638			
45401	8.526294	2.655495	2.195070	-0.146341	-0.076911	-0.618106	53.105455	-67.681729	-81.002810			
45402	8.794829	2.583276	2.212533	-0.193041	-0.234735	-0.387973	53.305894	-67.626845	-82.723606			
45403	9.012134	2.701994	2.172343	-0.109187	-0.244845	-0.160409	53.593731	-67.575423	-84.472619			
45404	9.346753	2.784628	2.093938	-0.015388	-0.351870	0.156082	53.969336	-67.528084	-86.269047			
45405	9.583318	2.984179	2.141020	0.022378	-0.271368	0.446699	54.440531	-67.493643	-88.102176			
45406	9.712089	3.257684	2.271671	0.027423	-0.049833	0.679895	55.022606	-67.478142	-90.007328			
45407	9.809322	3.488676	2.323693	0.072356	0.115484	0.853823	55.730788	-67.503724	-92.018760			
45408	9.671597	3.584277	2.329703	0.077683	0.250108	0.758290	56.513415	-67.562388	-94.111923			
45409	9.331709	3.567080	2.329917	0.030719	0.383354	0.438424	57.300113	-67.651648	-96.233989			
45410	8.867422	3.471896	2.415967	-0.114641	0.565121	-0.005064	58.076197	-67.762079	-98.375736			
