// General information: 
//  MT Manager version: 2022.0.0 
//  XDA version: 2022.0.0 build 7085 rev 119802 built on 2022-11-08
// Device information: 
//  DeviceId: 00B492A2
//  ProductCode: MTW2-3A7G6
//  Firmware Version: 4.6.0
//  Hardware Version: 2.0.0
// Device settings: 
//  Filter Profile: human(46.1)
//  Option Flags: Orientation Smoother Disabled, Position/Velocity Smoother Disabled, Continuous Zero Rotation Update Disabled, AHS Disabled, ICC Disabled
// Coordinate system: ENU
PacketCounter	Acc_X	Acc_Y	Acc_Z	FreeAcc_E	FreeAcc_N	FreeAcc_U	Roll	Pitch	Yaw	Vel_E	Vel_N	Vel_U
44365	8.758335	1.937635	-3.185714	-0.664548	0.132162	-0.317821	158.128280	-68.870784	-76.112905			
44366	8.804627	2.142993	-3.095185	-0.865624	0.030353	-0.276243	158.043841	-68.710507	-76.067636			
44367	8.808175	2.226328	-3.133394	-0.929156	0.050986	-0.247508	157.932566	-68.559299	-76.011179			
44368	8.778342	2.317774	-3.166137	-1.004198	0.080801	-0.250219	157.820797	-68.412432	-75.951082			
44369	8.787713	2.478144	-3.294603	-1.127809	0.193183	-0.173695	157.707921	-68.260666	-75.879578			
44370	8.951761	2.538271	-3.276697	-1.162149	0.101732	-0.017148	157.604391	-68.106400	-75.805938			
44371	9.136023	2.571074	-3.190817	-1.178067	-0.064350	0.130481	157.503328	-67.952913	-75.717874			
44372	9.285203	2.564096	-3.178518	-1.147121	-0.153422	0.264668	157.406325	-67.818766	-75.629401			
44373	9.242694	2.585726	-3.189048	-1.157687	-0.144773	0.233315	157.274204	-67.705348	-75.513161			
44374	9.155336	2.455794	-3.156213	-1.029998	-0.173189	0.123200	157.116765	-67.607817	-75.381278			
44375	9.091584	2.378304	-3.168288	-0.942582	-0.160914	0.058325	156.930428	-67.507350	-75.228501			
44376	9.071200	2.276906	-3.213036	-0.821434	-0.138168	0.041281	156.741883	-67.394046	-75.073511			
44377	9.194753	2.179304	-3.249962	-0.689351	-0.176681	0.154692	156.534479	-67.279632	-74.908361			
44378	9.144403	2.134052	-3.210163	-0.637753	-0.212664	0.088193	156.291819	-67.189226	-74.714050			
44379	9.195458	2.117251	-3.127391	-0.609488	-0.320312	0.104251	156.041226	-67.099082	-74.500897			
44380	9.220853	2.091667	-3.091738	-0.568380	-0.375739	0.111716	155.811373	-67.015200	-74.281133			
44381	9.297694	2.122750	-3.031372	-0.582238	-0.466140	0.166595	155.602466	-66.937804	-74.055974			
44382	9.275417	2.074127	-3.064566	-0.515609	-0.440663	0.150589	155.425372	-66.883731	-73.842917			
44383	9.198110	2.067295	-3.058091	-0.504486	-0.421609	0.076629	155.252352	-66.863332	-73.624622			
44384	9.120484	2.010787	-3.125786	-0.435507	-0.334783	0.020688	155.097779	-66.873307	-73.420116			
44385	8.994674	2.029237	-3.152140	-0.454737	-0.255598	-0.082023	154.973307	-66.904489	-73.239091			
44386	8.867920	2.133710	-3.193840	-0.560362	-0.151264	-0.166111	154.911334	-66.941989	-73.111555			
44387	8.911360	2.111428	-3.244198	-0.524092	-0.117724	-0.111824	154.893097	-66.976137	-73.028672			
44388	8.913547	1.970663	-3.303068	-0.379732	-0.075494	-0.112420	154.962645	-67.006941	-73.016097			
44389	9.029849	1.785229	-3.380682	-0.179615	-0.064691	-0.008720	155.091060	-67.038528	-73.042066			
44390	9.047425	1.388319	-3.491461	0.216765	-0.008980	-0.018478	155.293584	-67.074727	-73.119725			
44391	8.955238	1.063070	-3.606593	0.527312	0.100559	-0.114970	155.546251	-67.118221	-73.207978			
44392	8.783794	0.805240	-3.755447	0.763207	0.278175	-0.260362	155.872201	-67.157751	-73.363883			
44393	8.585971	0.495158	-3.882447	1.041690	0.438774	-0.444668	156.237252	-67.176711	-73.550732			
44394	8.504062	0.061705	-3.861934	1.430771	0.405515	-0.591743	156.644583	-67.173373	-73.795554			
44395	8.557008	-0.517256	-3.645751	1.950634	0.127769	-0.704445	157.038745	-67.168892	-74.034827			
44396	8.614954	-0.971829	-3.441376	2.351579	-0.126307	-0.787222	157.435050	-67.178043	-74.273972			
44397	8.884450	-1.144814	-3.432579	2.525380	-0.248296	-0.561342	157.838122	-67.198086	-74.464330			
44398	9.268794	-1.020725	-3.584726	2.436488	-0.235112	-0.127087	158.294659	-67.227352	-74.649276			
44399	9.708362	-0.770605	-3.809750	2.232552	-0.164961	0.402435	158.817914	-67.234918	-74.821029			
44400	10.277296	-0.556583	-4.084441	2.073975	-0.108342	1.063984	159.462959	-67.194247	-75.045752			
44401	11.049411	-0.156001	-4.212997	1.722453	-0.261197	1.884655	160.228774	-67.124377	-75.301202			
44402	11.549987	0.344125	-4.019885	1.200212	-0.611542	2.347300	161.051063	-67.091792	-75.584927			
44403	11.832766	0.678564	-3.609148	0.797000	-1.087766	2.503237	161.877986	-67.131241	-75.874369			
44404	11.789686	0.896019	-3.203161	0.481085	-1.432619	2.343612	162.692888	-67.247975	-76.202333			
44405	11.391956	1.022071	-2.918766	0.238135	-1.524190	1.890317	163.457643	-67.430406	-76.540359			
44406	10.846748	1.099425	-2.732785	0.043984	-1.463113	1.331182	164.149491	-67.658299	-76.891098			
44407	10.303207	1.042334	-2.547184	-0.008051	-1.406192	0.758641	164.809468	-67.869428	-77.258751			
44408	9.871650	1.067644	-2.479065	-0.119859	-1.286366	0.339445	165.471472	-68.045261	-77.681983			
44409	9.449590	0.989087	-2.394600	-0.123557	-1.195423	-0.088353	166.137640	-68.182086	-78.121637			
44410	9.111687	0.964642	-2.300482	-0.172043	-1.148849	-0.437401	166.832931	-68.301781	-78.604449			
44411	8.892582	0.984289	-2.196986	-0.253388	-1.155585	-0.676285	167.535953	-68.419913	-79.084865			
44412	8.572621	0.976332	-2.132779	-0.311335	-1.090629	-0.997629	168.273561	-68.537635	-79.597087			
44413	8.316238	0.865272	-2.048342	-0.260851	-1.068888	-1.274918	169.029849	-68.656033	-80.114142			
44414	8.133295	0.851209	-1.826417	-0.305422	-1.201239	-1.525683	169.823976	-68.777907	-80.677598			
44415	7.840388	0.722531	-1.663921	-0.237367	-1.239595	-1.864776	170.620164	-68.892833	-81.243430			
44416	7.748651	0.628900	-1.547851	-0.188820	-1.308066	-1.996925	171.404487	-68.983822	-81.826947			
44417	7.663717	0.319417	-1.448913	0.079490	-1.363729	-2.127133	172.144635	-69.060296	-82.384239			
44418	7.655736	0.085586	-1.288658	0.278557	-1.507004	-2.201543	172.828158	-69.088876	-82.931552			
44419	7.876920	-0.211582	-1.373130	0.556961	-1.507655	-1.977330	173.460707	-69.060114	-83.445819			
44420	8.178464	-0.351256	-1.455028	0.681594	-1.547545	-1.672158	174.054293	-68.980609	-83.934363			
44421	8.413556	-0.608576	-1.676825	0.923158	-1.436950	-1.383398	174.586817	-68.876622	-84.354688			
44422	8.704810	-0.667632	-1.918351	0.968518	-1.334295	-1.027412	175.104049	-68.748089	-84.732452			
44423	9.028314	-0.681966	-2.143860	0.969566	-1.261090	-0.645290	175.614329	-68.615639	-85.045108			
44424	9.333643	-0.734927	-2.439217	1.006808	-1.116662	-0.255171	176.097323	-68.491417	-85.298252			
44425	9.741420	-0.677293	-2.576769	0.937730	-1.154415	0.176390	176.532354	-68.410370	-85.459458			
44426	9.729054	-0.729742	-2.577242	0.970419	-1.153716	0.165108	176.873608	-68.407346	-85.525496			
44427	9.532311	-0.679236	-2.356420	0.904314	-1.281515	-0.095746	177.146060	-68.454256	-85.510750			
44428	9.325873	-0.519669	-2.213251	0.732789	-1.333974	-0.335137	177.351666	-68.502296	-85.442058			
44429	9.079019	-0.375101	-2.041566	0.581747	-1.398892	-0.623457	177.478476	-68.545461	-85.300422			
44430	8.860116	-0.183697	-1.905153	0.388331	-1.447356	-0.872924	177.550791	-68.566988	-85.121206			
44431	8.786612	0.007925	-1.739262	0.204523	-1.580240	-0.998457	177.580391	-68.571812	-84.887306			
44432	8.769339	0.118421	-1.674186	0.102392	-1.640649	-1.036810	177.591988	-68.554177	-84.637645			
44433	8.786952	0.302401	-1.673536	-0.072833	-1.661212	-1.018499	177.591576	-68.521669	-84.368896			
44434	8.727403	0.496883	-1.768435	-0.265467	-1.569899	-1.037338	177.579729	-68.474727	-84.092047			
44435	8.676820	0.847944	-1.637700	-0.601636	-1.703934	-1.128051	177.578908	-68.431150	-83.811648			
44436	8.524634	0.583323	-1.574691	-0.331504	-1.698110	-1.298240	177.575355	-68.379957	-83.561886			
44437	8.280965	0.512031	-1.599715	-0.264874	-1.590808	-1.518424	177.639255	-68.306720	-83.338603			
44438	8.159347	0.627846	-1.467582	-0.371655	-1.692950	-1.681347	177.734178	-68.196825	-83.159661			
44439	8.165786	0.586498	-1.409136	-0.320617	-1.766025	-1.701706	177.807238	-68.047115	-83.002988			
44440	8.396665	0.355710	-1.454795	-0.077739	-1.815164	-1.479260	177.841006	-67.856211	-82.879656			
44441	8.650533	0.389297	-1.517615	-0.097185	-1.882969	-1.225991	177.845972	-67.666838	-82.766487			
44442	8.936462	0.356288	-1.602934	-0.050052	-1.939790	-0.936240	177.806248	-67.454825	-82.687799			
44443	9.488915	0.293951	-1.846457	0.027845	-1.954198	-0.340860	177.761211	-67.227716	-82.631075			
44444	9.906261	0.177313	-2.196991	0.143601	-1.821752	0.169930	177.754504	-66.980340	-82.631683			
44445	10.231345	0.074339	-2.395123	0.250915	-1.800717	0.537039	177.795044	-66.723333	-82.687394			
44446	10.470965	-0.021603	-2.562232	0.345336	-1.780584	0.813538	177.894879	-66.468241	-82.814825			
44447	10.495357	-0.161153	-2.768331	0.463945	-1.635223	0.908915	178.058476	-66.236226	-83.023490			
44448	10.661218	0.034487	-2.766000	0.263947	-1.766324	1.055788	178.334566	-66.019335	-83.348164			
44449	10.700899	0.118777	-2.823911	0.155475	-1.774838	1.110840	178.660774	-65.863053	-83.764905			
44450	10.901708	0.355454	-2.544540	-0.080627	-2.160674	1.176994	179.067293	-65.748228	-84.290681			
44451	11.386873	0.770845	-2.077143	-0.480395	-2.839249	1.424630	179.527157	-65.670669	-84.916910			
44452	11.541946	0.699815	-1.957467	-0.443499	-3.017631	1.511399	179.975658	-65.647084	-85.603445			
44453	11.537234	0.733259	-1.792494	-0.518112	-3.169668	1.436446	-179.567529	-65.651320	-86.337534			
44454	11.157153	0.464740	-2.124971	-0.334959	-2.692061	1.226060	-179.133713	-65.652963	-87.086664			
44455	10.835422	0.005228	-2.771724	0.029521	-1.944245	1.201292	-178.738497	-65.628739	-87.833602			
44456	11.569609	0.422031	-2.678289	-0.415417	-2.369213	1.824376	-178.389064	-65.525156	-88.591673			
44457	12.818150	0.579505	-2.221268	-0.584622	-3.325072	2.764146	-178.208309	-65.437116	-89.317206			
44458	13.288308	-0.289563	-2.074749	0.250501	-3.626423	3.139291	-178.265970	-65.447933	-89.895757			
44459	12.721810	-2.114359	-2.565663	2.041496	-2.885720	2.852323	-178.599715	-65.585299	-90.180811			
44460	11.560516	-3.649294	-3.516080	3.572353	-1.500745	2.200291	-179.054801	-65.758462	-90.135761			
44461	10.661703	-4.053877	-4.502783	3.998743	-0.217028	1.777985	-179.550027	-65.830652	-89.820335			
44462	10.234100	-4.155689	-5.752163	4.131601	1.088800	1.885093	179.871547	-65.729101	-89.337853			
44463	10.663335	-4.085112	-6.956199	4.106465	1.967628	2.759040	179.253362	-65.449439	-88.788963			
44464	11.364231	-4.128981	-8.254781	4.205126	2.781692	3.931906	178.710771	-65.062923	-88.273265			
44465	11.932238	-3.383426	-8.772840	3.506278	2.922163	4.677136	178.411358	-64.720763	-87.875119			
44466	11.502132	-1.825921	-8.501275	1.958639	2.783142	4.198823	178.328716	-64.540480	-87.603193			
44467	10.490430	-0.420781	-7.907189	0.527339	2.644568	3.051135	178.480467	-64.557760	-87.472770			
44468	9.073103	0.416145	-7.350288	-0.363246	2.751933	1.537017	178.780777	-64.743175	-87.428367			
44469	8.199587	1.540356	-6.606312	-1.538811	2.462475	0.425335	179.264262	-65.063752	-87.467854			
44470	7.332855	2.529814	-6.208861	-2.586238	2.481399	-0.545853	179.725330	-65.480400	-87.509284			
44471	6.341161	3.499446	-5.725568	-3.595303	2.466032	-1.674463	179.949868	-65.966909	-87.450024			
44472	6.178265	4.008970	-4.813103	-4.080932	1.727252	-2.211954	179.729684	-66.363503	-87.185232			
44473	6.660330	3.654587	-4.104406	-3.668030	0.951846	-2.053733	179.073137	-66.689982	-86.666950			
44474	6.971811	3.371458	-3.624547	-3.319119	0.446348	-1.945408	178.172542	-66.914465	-85.954045			
44475	7.345853	3.106595	-3.490579	-2.984977	0.217258	-1.637178	177.073915	-66.923228	-85.165098			
44476	8.086732	2.554566	-3.898802	-2.348646	0.328931	-0.785130	175.847246	-66.743433	-84.383228			
44477	8.699041	2.094771	-4.193075	-1.785317	0.364454	-0.100718	174.583325	-66.546125	-83.642193			
44478	9.108258	1.531363	-4.286838	-1.113111	0.291750	0.304503	173.330975	-66.384205	-82.965142			
44479	9.010039	0.991578	-4.533311	-0.487102	0.563802	0.294694	172.159122	-66.327177	-82.350499			
44480	8.462786	0.516592	-4.590547	0.041435	0.848424	-0.208695	171.075531	-66.373436	-81.788823			
44481	7.687516	-0.002239	-4.467758	0.581967	1.060689	-1.003904	170.132155	-66.449882	-81.296292			
44482	7.509803	-0.423835	-4.319034	1.043877	1.002973	-1.260789	169.328995	-66.481048	-80.833159			
44483	7.773065	-0.575398	-4.144641	1.253122	0.746440	-1.106252	168.602067	-66.536510	-80.393406			
44484	7.435168	-0.433682	-3.944767	1.122668	0.705936	-1.489700	167.935133	-66.564710	-79.956547			
44485	7.133020	-0.134065	-3.780520	0.830429	0.683470	-1.810597	167.387551	-66.546605	-79.524946			
44486	7.390071	0.451036	-3.453114	0.278285	0.291087	-1.653132	166.940841	-66.475715	-79.127940			
44487	7.557984	0.971022	-3.384803	-0.205154	0.169669	-1.478902	166.541947	-66.435529	-78.743980			
44488	7.559705	1.529286	-3.289110	-0.744334	0.093649	-1.461444	166.191992	-66.451938	-78.367904			
44489	7.526863	2.014328	-3.329239	-1.210263	0.161819	-1.427935	165.883798	-66.526453	-78.001818			
44490	7.641772	2.683825	-3.139103	-1.862986	-0.031442	-1.328478	165.589189	-66.646378	-77.643713			
44491	7.776334	3.169106	-2.991919	-2.327589	-0.189315	-1.209630	165.230515	-66.798982	-77.280223			
44492	7.946642	3.276429	-2.811040	-2.412039	-0.390691	-1.105487	164.806342	-66.972975	-76.944617			
44493	7.969269	3.120299	-2.577354	-2.248289	-0.581644	-1.181639	164.323705	-67.152343	-76.641946			
44494	7.785137	2.923810	-2.341973	-2.063086	-0.696076	-1.452014	163.808624	-67.319658	-76.370352			
44495	7.382221	2.563428	-2.112271	-1.736394	-0.733137	-1.940115	163.316909	-67.431618	-76.156992			
44496	7.291967	2.088001	-2.031286	-1.260435	-0.767508	-2.100304	162.911405	-67.451606	-76.034611			
44497	7.523031	1.856499	-1.826866	-1.009268	-1.041251	-1.984713	162.587689	-67.425439	-75.988472			
44498	7.597316	1.692591	-1.586690	-0.848013	-1.294303	-2.021198	162.342945	-67.390484	-76.020738			
44499	7.575279	1.543679	-1.609716	-0.694085	-1.269705	-2.049629	162.171244	-67.348415	-76.103473			
44500	7.714691	1.442176	-1.728322	-0.567724	-1.219593	-1.889702	162.107771	-67.289187	-76.263021			
44501	7.814907	1.435288	-1.917663	-0.535364	-1.087532	-1.729315	162.119554	-67.232332	-76.457381			
44502	7.919801	1.461166	-2.132833	-0.534492	-0.933799	-1.551358	162.169367	-67.171569	-76.677724			
44503	7.970755	1.428369	-2.095556	-0.503895	-0.993743	-1.522748	162.175285	-67.146978	-76.857663			
44504	7.899164	1.194165	-1.947637	-0.294780	-1.117598	-1.671423	162.143815	-67.148387	-76.987805			
44505	7.828315	1.083428	-1.597518	-0.227144	-1.419301	-1.879063	162.081616	-67.148179	-77.050630			
44506	7.848152	0.882898	-1.487350	-0.037778	-1.544471	-1.926092	162.059152	-67.092823	-77.113852			
44507	8.255848	0.680896	-1.552996	0.205251	-1.660281	-1.552193	162.073524	-67.016809	-77.170163			
44508	8.954813	0.479009	-1.581793	0.467923	-1.923438	-0.924401	162.130186	-66.961446	-77.241407			
44509	9.282168	0.771052	-1.664165	0.211976	-1.957642	-0.558212	162.232262	-66.969407	-77.303545			
44510	9.441019	1.030723	-1.894493	-0.014085	-1.788835	-0.295114	162.363272	-66.989768	-77.376076			
44511	9.445375	1.663656	-2.215685	-0.615426	-1.452971	-0.096606	162.516605	-67.005015	-77.441527			
44512	9.463788	2.346937	-2.664007	-1.253559	-1.006793	0.166455	162.663404	-67.003992	-77.471665			
44513	9.632195	2.976057	-2.816514	-1.853686	-0.896916	0.450267	162.757571	-66.999714	-77.444031			
44514	9.720868	3.324673	-2.920072	-2.185138	-0.820327	0.609778	162.812137	-67.010972	-77.351197			
44515	10.011355	3.325801	-2.884935	-2.164836	-0.966305	0.863958	162.816460	-67.032164	-77.186303			
44516	10.493256	2.949204	-2.731128	-1.759590	-1.312290	1.207613	162.750008	-67.068559	-76.950189			
44517	10.873396	2.603582	-2.578905	-1.385987	-1.606046	1.463826	162.579399	-67.145813	-76.612840			
44518	11.067718	2.466070	-2.732042	-1.201850	-1.526407	1.687986	162.308324	-67.260881	-76.184949			
44519	10.838712	2.253048	-3.296790	-0.939623	-0.900795	1.664607	161.895486	-67.374958	-75.672954			
44520	10.476656	2.055794	-4.271511	-0.666151	0.146958	1.666291	161.433295	-67.379944	-75.150432			
44521	11.243478	1.863453	-4.976105	-0.297872	0.502283	2.609414	160.897172	-67.227133	-74.629814			
44522	12.686832	1.827101	-5.277171	-0.028834	0.219958	4.047072	160.262418	-67.068992	-74.051118			
44523	12.844640	2.756685	-5.559208	-0.839116	0.444884	4.420599	159.597783	-66.951654	-73.417865			
44524	12.249792	3.836447	-6.374591	-1.838771	1.440620	4.327831	159.124215	-66.733091	-72.940217			
44525	12.491894	4.021802	-7.401768	-1.846460	2.255268	4.969471	158.824377	-66.430581	-72.691713			
44526	12.794866	3.839870	-7.841404	-1.540723	2.473880	5.400674	158.614090	-66.146249	-72.574793			
44527	12.551632	3.539630	-7.528073	-1.255983	2.204323	5.030065	158.436117	-65.855528	-72.532671			
44528	11.762918	3.483100	-7.166632	-1.290872	2.108988	4.178170	158.348554	-65.524631	-72.577282			
44529	10.896716	3.206087	-6.963627	-1.108944	2.191582	3.282212	158.233333	-65.254414	-72.601862			
44530	9.863266	2.589795	-6.920740	-0.602207	2.496441	2.241053	158.066135	-65.079275	-72.592365			
44531	9.034734	1.846457	-6.944236	0.062043	2.792172	1.388118	157.847572	-64.936769	-72.565923			
44532	8.761860	0.807792	-6.810455	1.075286	2.706101	0.926288	157.552594	-64.780885	-72.555267			
44533	8.322452	-0.678361	-6.996962	2.552542	2.951752	0.358462	157.135947	-64.652215	-72.469592			
44534	7.905705	-1.968480	-7.232106	3.847026	3.241883	-0.149934	156.670084	-64.600972	-72.297379			
44535	7.965118	-2.387228	-6.719202	4.241552	2.725131	-0.385470	156.260599	-64.708082	-72.070828			
44536	8.421205	-2.356754	-5.646107	4.148774	1.593220	-0.400002	156.050823	-64.987897	-71.931312			
44537	8.121719	-2.346644	-4.857145	3.987024	1.050631	-0.977514	156.064091	-65.412495	-71.845621			
44538	7.493940	-1.805194	-4.058276	3.238516	0.672799	-1.753767	156.428896	-65.873532	-71.874104			
44539	7.000395	-0.734016	-3.510912	2.004616	0.493721	-2.222696	157.134825	-66.305207	-72.017886			
44540	6.688496	0.352068	-3.115867	0.788568	0.355977	-2.476510	158.150829	-66.671321	-72.282006			
44541	6.857892	1.167006	-2.724815	-0.102400	-0.008090	-2.342331	159.358472	-66.951400	-72.642896			
44542	7.126529	1.732025	-2.747050	-0.699192	-0.063094	-2.012666	160.598056	-67.174106	-73.057138			
44543	7.069621	2.042382	-3.019515	-1.065078	0.215844	-1.933159	161.729401	-67.372980	-73.488616			
44544	6.960983	2.064055	-3.361382	-1.144115	0.570087	-1.914574	162.690119	-67.512668	-73.933479			
44545	6.928204	1.858103	-3.805404	-0.976994	0.988623	-1.812589	163.472143	-67.566693	-74.391011			
44546	6.910567	1.639154	-3.959090	-0.794237	1.125810	-1.799025	164.066597	-67.508264	-74.854882			
44547	7.175674	1.355862	-4.047470	-0.505651	1.091296	-1.550484	164.465847	-67.373056	-75.285011			
44548	7.411781	1.069835	-4.161799	-0.205143	1.085111	-1.316806	164.735610	-67.203209	-75.654418			
44549	7.749513	0.991538	-4.077016	-0.101549	0.851543	-1.042018	164.913759	-67.020103	-75.950961			
44550	8.148914	0.896933	-4.049912	0.026955	0.646159	-0.691681	165.090376	-66.852454	-76.202563			
44551	8.737149	0.730164	-3.819305	0.231470	0.184382	-0.253901	165.349229	-66.753337	-76.453247			
44552	8.981827	0.452808	-3.627842	0.503890	-0.094837	-0.128859	165.708113	-66.802447	-76.728931			
44553	8.678757	0.057496	-3.515314	0.836426	-0.067745	-0.486530	166.144244	-66.993236	-77.051900			
44554	8.240802	-0.306898	-3.593510	1.126028	0.202408	-0.890291	166.670013	-67.260727	-77.448468			
44555	7.667323	-0.437707	-3.831328	1.174225	0.676877	-1.337945	167.228905	-67.564943	-77.870529			
44556	7.226492	-0.324384	-3.729403	0.983949	0.781315	-1.771726	167.766488	-67.827550	-78.293655			
44557	7.183660	-0.222349	-3.508450	0.841555	0.617440	-1.883369	168.203906	-68.010128	-78.658038			
44558	7.451067	-0.183232	-3.179113	0.791018	0.228996	-1.751637	168.533395	-68.118585	-78.930083			
44559	7.652899	-0.143463	-2.923742	0.744387	-0.074250	-1.653272	168.748686	-68.165204	-79.098544			
44560	7.934631	-0.077824	-2.610962	0.683074	-0.467900	-1.500286	168.882198	-68.154332	-79.205247			
44561	8.048518	0.010929	-2.409494	0.594989	-0.701548	-1.461745	168.913081	-68.121569	-79.245728			
44562	7.738799	0.367869	-2.303205	0.216340	-0.697923	-1.763142	168.888310	-68.043105	-79.262525			
44563	7.609881	0.612917	-2.411739	-0.029316	-0.564480	-1.826267	168.774018	-67.920117	-79.242938			
44564	7.429405	0.749317	-2.537237	-0.165101	-0.399194	-1.938143	168.593165	-67.768021	-79.194532			
44565	7.521242	0.822296	-2.616920	-0.215681	-0.378284	-1.818699	168.366088	-67.608335	-79.118861			
44566	7.627650	0.816326	-2.521449	-0.189236	-0.523998	-1.756962	168.114138	-67.475615	-78.994081			
44567	7.717942	0.717659	-2.538210	-0.068454	-0.553770	-1.675563	167.868602	-67.402280	-78.812329			
44568	7.788873	0.772123	-2.454341	-0.106265	-0.663769	-1.637444	167.649580	-67.361478	-78.604690			
44569	7.989718	0.815593	-2.308473	-0.125464	-0.877012	-1.503359	167.414343	-67.331011	-78.385561			
44570	8.284778	0.691841	-2.216485	0.033182	-1.076171	-1.276311	167.119430	-67.286411	-78.158385			
44571	8.600829	0.504568	-2.272308	0.266188	-1.146271	-0.980507	166.727783	-67.247889	-77.910249			
44572	8.834011	-0.044201	-2.255869	0.854886	-1.251483	-0.821939	166.234708	-67.233958	-77.628049			
44573	8.859648	-0.654010	-2.385776	1.495682	-1.142159	-0.808723	165.737358	-67.237304	-77.323091			
44574	8.902299	-0.825597	-2.555623	1.702305	-1.000429	-0.726159	165.328345	-67.228714	-77.039342			
44575	9.031992	-0.837943	-2.619112	1.749971	-0.990692	-0.587999	165.015762	-67.199521	-76.806700			
44576	9.145377	-0.747434	-2.734768	1.691455	-0.928385	-0.434383	164.820269	-67.164367	-76.664773			
44577	9.155670	-0.442180	-2.797706	1.400494	-0.876997	-0.372430	164.784532	-67.100552	-76.642644			
44578	9.590911	-0.029895	-2.800007	1.029564	-1.052284	0.069577	164.937263	-66.965219	-76.781738			
44579	10.233977	0.381456	-2.714910	0.663952	-1.397353	0.668583	165.243181	-66.832149	-77.020732			
44580	10.583634	0.911653	-2.523950	0.138970	-1.726816	0.967547	165.653123	-66.752622	-77.301173			
44581	11.047519	1.600921	-2.052415	-0.555221	-2.352535	1.276958	166.146539	-66.718272	-77.627868			
44582	11.440513	2.038186	-1.560100	-1.010482	-2.965841	1.485811	166.660861	-66.750438	-77.979424			
44583	11.505481	2.198948	-1.324801	-1.209862	-3.202134	1.467783	167.161022	-66.877117	-78.321166			
44584	11.088397	2.138239	-1.376418	-1.217001	-2.974411	1.100184	167.603921	-67.060618	-78.668334			
44585	10.706887	1.917597	-1.864966	-1.044829	-2.351670	0.919066	167.979693	-67.221411	-79.041906			
44586	10.338801	1.829374	-2.537942	-0.992929	-1.569503	0.828235	168.280425	-67.317092	-79.465338			
44587	10.178627	1.962319	-3.278966	-1.133723	-0.813169	0.969714	168.458136	-67.306823	-79.930572			
44588	10.807794	1.776360	-3.822657	-0.893409	-0.558303	1.740091	168.456177	-67.190452	-80.428285			
44589	11.319789	0.628258	-4.577088	0.328909	-0.107082	2.408697	168.289851	-66.996370	-80.891461			
44590	11.172369	-1.115508	-5.852608	2.157130	1.014082	2.622627	168.124383	-66.723310	-81.317228			
44591	11.071151	-2.273623	-7.750311	3.464674	2.657839	3.177225	168.134579	-66.314022	-81.698214			
44592	11.397600	-2.643016	-9.123068	3.976652	3.639393	4.009773	168.296950	-65.784636	-82.084274			
44593	12.185913	-2.920993	-10.045707	4.383895	3.995829	5.112375	168.489219	-65.230091	-82.433016			
44594	12.702252	-3.539102	-10.530808	5.068819	4.024841	5.771775	168.779801	-64.636151	-82.777959			
44595	12.615662	-3.236411	-10.727304	4.746768	4.098694	5.851638	169.335473	-64.103522	-83.139142			
44596	12.397414	-1.886472	-10.086525	3.266204	3.566055	5.536785	170.088605	-63.753045	-83.558914			
44597	11.850061	-0.903424	-9.498323	2.119240	3.281941	4.890885	170.852578	-63.790667	-83.968971			
44598	10.122055	-0.116374	-8.811370	1.104846	3.508866	3.093711	171.623548	-64.238611	-84.310877			
44599	8.271656	1.201144	-7.736405	-0.455174	3.491634	1.018477	172.428618	-64.911798	-84.621168			
44600	6.537716	2.428368	-6.472041	-1.898182	3.214730	-1.061289	173.136527	-65.639021	-84.874389			
44601	5.935749	2.991040	-5.719208	-2.573042	2.862599	-1.934034	173.577740	-66.178840	-84.966251			
44602	6.436177	3.421668	-4.974506	-3.041811	2.038348	-1.783356	173.641191	-66.625445	-84.746707			
44603	7.168385	3.239725	-4.130344	-2.860988	1.025674	-1.463811	173.294673	-67.102165	-84.215754			
44604	7.743100	2.655908	-3.545903	-2.247870	0.327098	-1.185844	172.568578	-67.589982	-83.435698			
44605	8.346002	2.025547	-2.749138	-1.570285	-0.566593	-0.951039	171.588652	-68.046026	-82.549504			
44606	8.431174	1.939105	-2.256999	-1.442447	-0.980731	-1.043669	170.468350	-68.446536	-81.633676			
44607	8.154280	2.970881	-0.554206	-2.492312	-2.397466	-1.833607	169.364351	-68.642961	-80.864732			
44608	8.172114	0.679659	-1.883752	-0.107255	-1.172665	-1.481602	168.090381	-68.538255	-80.245586			
44609	8.585696	-2.305688	-4.024072	3.075803	0.583672	-0.570320	166.626740	-68.415364	-79.505533			
44610	8.138058	-1.053035	-3.783034	1.871476	0.545840	-0.989577	165.233586	-68.405860	-78.573284			
44611	7.044006	1.907862	-2.238300	-1.197512	-0.376819	-2.283299	164.154718	-68.297300	-77.790752			
44612	7.132372	1.133319	-3.440536	-0.275378	0.662038	-1.845378	163.373974	-68.002950	-77.294817			
44613	7.123857	0.158296	-5.439458	0.900820	2.449724	-1.236596	162.904058	-67.798511	-76.839980			
44614	7.004678	0.661749	-5.620754	0.421961	2.679354	-1.225528	162.666034	-67.838428	-76.362618			
44615	6.759787	0.815272	-4.862692	0.180460	2.093128	-1.713841	162.513238	-68.057037	-75.897945			
44616	6.246357	0.687568	-4.217173	0.196235	1.709359	-2.442905	162.457214	-68.356260	-75.428384			
44617	5.805385	1.124026	-3.608502	-0.341365	1.345616	-3.025944	162.533988	-68.629908	-75.004014			
44618	5.836422	1.579024	-3.031415	-0.843855	0.828574	-3.153263	162.559506	-68.859289	-74.603605			
44619	6.448438	1.744519	-2.184280	-1.001817	-0.156727	-2.857937	162.444557	-69.049118	-74.223175			
44620	7.568791	1.676195	-1.490926	-0.854117	-1.175150	-2.053271	162.201878	-69.185627	-73.856822			
44621	8.005821	1.673483	-1.549491	-0.793214	-1.248040	-1.620754	161.784714	-69.317320	-73.434479			
44622	7.483283	1.832855	-1.882493	-0.969426	-0.733325	-1.975276	161.187962	-69.422083	-72.899081			
44623	7.245941	2.061766	-2.100150	-1.184987	-0.433334	-2.094325	160.580976	-69.373791	-72.380536			
44624	7.750703	1.964910	-2.481881	-0.985566	-0.254534	-1.502589	160.133353	-69.147442	-71.985819			
44625	8.445113	1.880763	-2.898987	-0.773676	-0.128825	-0.721705	159.851507	-68.865667	-71.703397			
44626	9.054011	1.765798	-3.169562	-0.549674	-0.119187	-0.074987	159.636932	-68.641931	-71.479762			
44627	9.211475	1.774275	-3.030759	-0.526142	-0.326645	0.026076	159.444614	-68.536165	-71.260248			
44628	9.069725	1.686943	-2.702842	-0.459695	-0.590737	-0.228808	159.278090	-68.545032	-71.025033			
44629	8.763929	1.746102	-2.453946	-0.562785	-0.712972	-0.590316	159.277249	-68.596184	-70.849142			
44630	8.524270	1.988950	-2.343939	-0.842895	-0.733475	-0.820208	159.520549	-68.599596	-70.818552			
44631	8.466837	2.052289	-2.132746	-0.933103	-0.923311	-0.939998	159.863280	-68.571523	-70.862761			
44632	8.200862	1.714529	-1.671330	-0.657585	-1.273425	-1.390511	160.099826	-68.576171	-70.858150			
44633	7.911095	1.106548	-1.214535	-0.108573	-1.600936	-1.893711	160.198966	-68.572032	-70.799188			
44634	7.830590	0.558985	-0.948078	0.419994	-1.823547	-2.129737	160.208547	-68.481261	-70.695138			
44635	8.112785	0.260691	-1.024235	0.762821	-1.863300	-1.882968	160.192729	-68.280183	-70.572007			
44636	8.590227	0.568457	-1.327522	0.540835	-1.781629	-1.303245	160.195431	-68.004687	-70.426459			
44637	9.190261	0.585396	-1.732783	0.630803	-1.649648	-0.610148	160.100351	-67.761825	-70.185277			
44638	9.682867	0.766663	-1.882946	0.541415	-1.714162	-0.083370	159.952493	-67.619155	-69.831150			
44639	9.804097	1.345611	-2.153718	0.011864	-1.530183	0.198699	159.782116	-67.575157	-69.391681			
44640	9.773468	1.728477	-2.535132	-0.346468	-1.171091	0.358039	159.588932	-67.628678	-68.884448			
44641	9.348646	2.037755	-2.888437	-0.695549	-0.680807	0.134439	159.373310	-67.808581	-68.318770			
44642	8.463496	2.105885	-3.232017	-0.882019	-0.021731	-0.553479	159.181700	-68.024157	-67.728807			
44643	8.162193	2.478748	-3.389039	-1.298208	0.231239	-0.729056	159.129804	-68.151213	-67.215783			
44644	8.466548	2.950879	-3.352271	-1.726268	0.065037	-0.397614	159.146739	-68.178481	-66.783241			
44645	8.944586	3.167189	-3.320718	-1.869824	-0.155237	0.063724	159.147948	-68.150523	-66.391985			
44646	9.627473	3.282440	-2.978469	-1.868371	-0.734305	0.594228	159.107992	-68.108524	-66.020207			
44647	10.391602	3.232895	-2.494504	-1.677922	-1.453565	1.129491	158.962420	-68.119560	-65.602060			
44648	10.928145	3.271676	-1.957879	-1.599854	-2.131882	1.450393	158.683607	-68.236450	-65.079451			
44649	11.241314	3.042976	-1.792945	-1.300039	-2.337204	1.662880	158.261820	-68.457152	-64.430226			
44650	11.164919	2.914026	-2.208906	-1.182977	-1.855573	1.727819	157.778139	-68.741535	-63.683033			
44651	11.007349	2.882370	-3.192859	-1.205324	-0.814641	1.915372	157.272507	-69.012569	-62.927285			
44652	11.596007	3.014546	-3.847848	-1.257171	-0.345088	2.703743	156.812041	-69.188706	-62.276083			
44653	12.891706	3.462025	-4.088390	-1.475038	-0.529501	4.059600	156.333137	-69.288071	-61.686778			
44654	13.006904	3.954031	-4.832750	-1.951917	0.119800	4.482238	155.854571	-69.352258	-61.110676			
44655	12.544921	4.429508	-6.117406	-2.540772	1.437730	4.536375	155.579519	-69.288731	-60.722225			
44656	12.828923	4.740477	-7.343639	-2.835963	2.451091	5.251563	155.450980	-69.092370	-60.577971			
44657	13.122939	3.968659	-7.814253	-2.004496	2.865617	5.575434	155.043233	-68.962989	-60.365186			
44658	12.099396	3.906505	-7.362395	-2.036958	2.767347	4.472032	154.468305	-68.852017	-60.074523			
44659	10.928795	3.435107	-7.345529	-1.702126	3.169093	3.311879	153.784020	-68.640657	-59.777619			
44660	10.083528	2.002053	-7.316905	-0.348569	3.540874	2.293617	152.919050	-68.406963	-59.376184			
44661	9.281743	0.632886	-6.715842	0.968605	3.349345	1.118765	151.856233	-68.247406	-58.772886			
44662	8.152119	-0.351461	-5.750718	1.833419	2.885865	-0.433936	150.673795	-68.163684	-58.086462			
44663	7.175203	-1.572984	-5.033552	2.932561	2.615249	-1.821792	149.445283	-68.115779	-57.450667			
44664	6.707084	-2.775463	-4.592883	4.092929	2.415663	-2.657640	148.350224	-68.060965	-57.008054			
44665	6.835052	-3.296111	-4.567948	4.691045	2.356580	-2.679057	147.601273	-68.009171	-56.836435			
44666	7.323726	-3.301306	-4.372330	4.832126	1.989308	-2.306294	147.341162	-67.993208	-56.992962			
44667	7.646929	-2.516276	-4.681498	4.143543	2.133228	-1.750185	147.633263	-68.065802	-57.348305			
44668	8.246888	-1.039802	-4.841865	2.782728	2.043488	-0.834035	148.469656	-68.236006	-57.833051			
44669	8.554399	-0.002225	-4.916919	1.742651	1.990141	-0.307143	149.620907	-68.538696	-58.360983			
44670	8.661792	0.623450	-4.109207	1.027203	1.180808	-0.333757	151.074077	-68.932869	-58.965449			
44671	8.811304	1.392721	-3.430622	0.176760	0.456093	-0.267676	152.818055	-69.326607	-59.698513			
44672	9.078307	2.058124	-3.393393	-0.557858	0.281628	0.075424	154.647061	-69.645067	-60.560364			
44673	9.367799	2.187986	-3.466335	-0.760699	0.234666	0.381602	156.307242	-69.914186	-61.455450			
44674	8.869235	1.805127	-3.444648	-0.567424	0.395733	-0.153073	157.641636	-70.170972	-62.270992			
44675	7.929451	1.477088	-3.629858	-0.483398	0.886538	-1.025546	158.734346	-70.335114	-63.080266			
44676	7.056935	1.424717	-3.984706	-0.641253	1.477422	-1.743368	159.607378	-70.316822	-63.924432			
44677	6.567370	1.473755	-4.350127	-0.808195	1.936856	-2.078270	160.226707	-70.084084	-64.796591			
44678	6.516275	1.263955	-4.554061	-0.610708	2.125075	-2.072553	160.580818	-69.677719	-65.630569			
44679	7.101990	0.940467	-4.366066	-0.162290	1.736502	-1.606412	160.738360	-69.165590	-66.346239			
44680	7.806738	0.568706	-4.026422	0.363137	1.152101	-1.093692	160.759564	-68.663593	-66.892119			
44681	8.510243	0.505727	-3.733029	0.572871	0.577345	-0.541572	160.766366	-68.254993	-67.305168			
44682	9.158040	0.425081	-3.722496	0.768165	0.298027	0.047753	160.803056	-68.005736	-67.628104			
44683	9.555474	0.200924	-3.853203	1.050095	0.272150	0.435134	160.873427	-67.971591	-67.888576			
44684	9.375118	-0.089756	-3.972367	1.299166	0.477491	0.275160	160.965557	-68.190244	-68.116182			
44685	8.324262	-0.469629	-4.184690	1.499143	1.108772	-0.672208	161.128866	-68.611681	-68.365288			
44686	7.116918	-0.530242	-3.997158	1.366249	1.400743	-1.870403	161.472017	-69.075552	-68.732959			
44687	6.331730	-0.438382	-3.622405	1.144914	1.347842	-2.722055	161.985403	-69.468905	-69.247815			
44688	6.138450	-0.352008	-3.199349	1.009284	1.037326	-3.034380	162.616827	-69.770914	-69.854821			
44689	5.975711	-0.346784	-2.683041	0.965568	0.621071	-3.354364	163.246082	-69.973516	-70.460967			
44690	6.380795	-0.392834	-2.054052	1.047721	-0.093655	-3.180837	163.861938	-70.057005	-71.058690			
44691	7.260062	-0.339944	-1.544470	1.084007	-0.867414	-2.513241	164.407980	-70.027724	-71.591757			
44692	8.221767	-0.341708	-1.389563	1.175730	-1.341008	-1.660117	164.831838	-69.927102	-72.006442			
44693	8.952484	-0.470416	-1.438257	1.366782	-1.547116	-0.971017	165.139318	-69.805885	-72.303527			
44694	9.172533	-0.618842	-1.752182	1.518276	-1.335728	-0.674903	165.408946	-69.697934	-72.537798			
44695	9.065336	-0.548623	-2.189847	1.413667	-0.912050	-0.623215	165.706513	-69.604965	-72.764551			
44696	8.763648	-0.190123	-2.495954	1.004170	-0.564149	-0.771626	166.039446	-69.526259	-72.992785			
44697	8.801238	0.304251	-2.643994	0.497569	-0.490213	-0.644420	166.412842	-69.416184	-73.272329			
44698	8.713814	0.574234	-2.815417	0.200112	-0.343252	-0.645958	166.786931	-69.275570	-73.572624			
44699	8.920533	0.720033	-2.873827	0.060294	-0.397288	-0.421645	167.150820	-69.126926	-73.836952			
44700	9.347507	0.908716	-2.630413	-0.087410	-0.809892	-0.093783	167.449027	-69.031388	-74.022512			
44701	9.307184	0.957997	-2.250319	-0.135040	-1.166882	-0.261483	167.638576	-69.039521	-74.116914			
44702	8.777182	0.567409	-1.767281	0.216226	-1.403394	-0.954477	167.665826	-69.106249	-74.099144			
44703	8.336271	0.017100	-1.168799	0.746761	-1.762699	-1.615430	167.596071	-69.145113	-74.001435			
44704	8.062702	-0.504601	-0.911502	1.255942	-1.867390	-2.000641	167.500046	-69.112442	-73.825150			
44705	7.800674	-0.692496	-0.972359	1.423387	-1.710131	-2.241363	167.425595	-69.023898	-73.622425			
44706	7.847133	-0.813889	-1.219436	1.548635	-1.497324	-2.125903	167.324909	-68.860959	-73.450823			
44707	8.345108	-0.735823	-1.487827	1.521830	-1.449284	-1.567725	167.269284	-68.626852	-73.386171			
44708	9.001537	-0.559106	-1.818957	1.411026	-1.419771	-0.832599	167.245071	-68.362263	-73.413090			
44709	9.547401	-0.431430	-2.288655	1.330551	-1.224347	-0.153111	167.220032	-68.140360	-73.471947			
44710	10.070401	-0.158018	-2.497104	1.112739	-1.270840	0.425485	167.234364	-67.995570	-73.545655			
44711	10.423381	0.219082	-2.444491	0.779245	-1.495758	0.762088	167.308098	-67.937488	-73.626298			
44712	10.524475	0.484957	-2.390375	0.523341	-1.607438	0.857641	167.415012	-67.971465	-73.685207			
44713	10.423771	0.925712	-2.006488	0.081304	-1.954951	0.661541	167.591731	-68.061906	-73.773157			
44714	10.481869	1.241943	-1.473507	-0.216474	-2.487909	0.548136	167.832566	-68.123830	-73.932691			
44715	10.734889	1.440424	-1.080600	-0.385197	-2.964007	0.653764	168.169832	-68.085399	-74.188131			
44716	11.194828	1.611734	-1.292088	-0.536726	-2.970389	1.163648	168.570861	-67.948778	-74.510125			
44717	11.654325	2.248645	-1.853937	-1.171521	-2.708855	1.832320	168.985781	-67.756430	-74.879401			
44718	12.268594	2.328764	-3.133938	-1.275677	-1.799925	2.871784	169.283741	-67.560800	-75.263128			
44719	13.053761	2.169736	-4.078323	-1.105681	-1.246223	3.933781	169.519998	-67.384647	-75.697999			
44720	13.672743	1.196776	-4.980502	-0.137053	-0.608884	4.774699	169.741751	-67.217455	-76.182370			
44721	13.327834	-0.727705	-6.370921	1.674745	0.896505	4.854983	169.965800	-67.020740	-76.659975			
44722	13.382137	-2.209821	-7.810415	3.093579	2.230718	5.366918	170.237804	-66.717836	-77.087158			
44723	13.429219	-3.060663	-8.997613	3.901704	3.263758	5.833151	170.457321	-66.376129	-77.421210			
44724	13.242637	-3.385935	-9.551593	4.196495	3.763000	5.881046	170.625126	-66.033297	-77.664256			
44725	12.731458	-3.545653	-10.149962	4.286341	4.425326	5.670410	170.922631	-65.679085	-77.868577			
44726	11.932707	-2.739239	-9.740079	3.389863	4.230035	4.863032	171.492610	-65.339404	-78.118966			
44727	11.500907	-1.571255	-9.138492	2.140151	3.702825	4.328020	172.252187	-65.096245	-78.467038			
44728	10.516168	-0.572920	-8.455027	0.998422	3.378994	3.225337	173.151757	-65.135523	-78.893621			
44729	9.570541	0.144905	-7.972240	0.113578	3.295535	2.199711	174.225624	-65.470016	-79.395818			
44730	8.177688	1.422365	-7.434758	-1.365829	3.326114	0.734457	175.431143	-66.114415	-79.908831			
44731	6.403291	2.889615	-6.697830	-3.025316	3.297898	-1.199799	176.567417	-67.001075	-80.350339			
44732	4.436802	4.288581	-5.515916	-4.531877	2.884419	-3.516383	177.415855	-67.897102	-80.631776			
44733	3.524531	4.757758	-4.471102	-4.998387	2.237663	-4.806886	177.813975	-68.467227	-80.640429			
44734	4.292385	4.443702	-3.111294	-4.504966	0.752217	-4.617434	177.670408	-68.683321	-80.260834			
44735	5.704334	3.819965	-2.140582	-3.675545	-0.567005	-3.657815	177.079465	-68.756701	-79.568953			
44736	6.421171	2.955543	-1.820958	-2.702867	-0.993318	-3.105213	176.080477	-68.789685	-78.696200			
44737	6.806963	1.802010	-2.086903	-1.514671	-0.717477	-2.662314	174.727721	-68.702784	-77.808240			
44738	7.358902	0.840940	-2.224347	-0.468814	-0.662691	-2.121852	173.182499	-68.470455	-77.033701			
44739	8.084919	0.036852	-2.592975	0.435647	-0.511580	-1.348733	171.624270	-68.109521	-76.388694			
44740	8.192128	-0.473622	-3.760577	0.961610	0.532225	-0.853445	170.220489	-67.642760	-75.841775			
44741	8.099918	-0.308478	-4.746853	0.836689	1.398571	-0.561791	169.033814	-67.152609	-75.357403			
44742	8.134826	-0.158697	-5.665152	0.751705	2.156386	-0.164974	168.079802	-66.699148	-74.920410			
44743	8.483792	0.242984	-5.846818	0.464147	2.104833	0.265641	167.442300	-66.343990	-74.548425			
44744	8.809595	0.386245	-6.179058	0.396471	2.237119	0.712373	167.112068	-66.164425	-74.217574			
44745	8.894926	0.552366	-5.966244	0.261047	1.988502	0.722899	167.011343	-66.193713	-73.888723			
44746	8.723156	0.462460	-5.643759	0.328800	1.787182	0.427286	167.040151	-66.389875	-73.568592			
44747	8.406770	0.455496	-4.875695	0.301847	1.244697	-0.168363	167.150839	-66.694370	-73.249258			
44748	8.232329	0.788891	-3.909997	-0.034218	0.444807	-0.675821	167.252936	-67.070941	-72.896166			
44749	8.000223	1.148768	-3.163604	-0.399611	-0.135658	-1.143591	167.227910	-67.478119	-72.467669			
44750	7.876408	1.365428	-2.806696	-0.617922	-0.386880	-1.371835	167.051527	-67.868945	-71.957173			
44751	7.845220	1.526446	-2.627961	-0.769688	-0.507422	-1.450056	166.707385	-68.199724	-71.364686			
44752	7.724225	1.900070	-2.529332	-1.136351	-0.552320	-1.561935	166.174173	-68.463334	-70.679555			
44753	7.272441	2.232476	-2.286403	-1.481198	-0.624287	-2.033473	165.483237	-68.612770	-69.957904			
44754	7.045602	2.293377	-2.256437	-1.537243	-0.561591	-2.242154	164.739513	-68.591507	-69.297500			
44755	7.027682	2.487777	-2.376316	-1.704839	-0.463423	-2.190164	164.086729	-68.426540	-68.772404			
44756	7.228786	2.500415	-2.594683	-1.668136	-0.340181	-1.917039	163.510327	-68.206058	-68.363251			
44757	7.380357	2.405639	-2.649246	-1.522053	-0.344433	-1.760366	163.027921	-68.012181	-68.058873			
44758	7.551699	2.268685	-2.575610	-1.329625	-0.469082	-1.638285	162.679156	-67.859297	-67.860454			
44759	7.894570	1.953833	-2.367497	-0.937472	-0.759922	-1.428752	162.462768	-67.740511	-67.764364			
44760	7.938930	1.601081	-2.130766	-0.558515	-0.966367	-1.513023	162.384701	-67.696652	-67.732141			
44761	7.892484	1.497436	-1.942499	-0.450712	-1.117599	-1.636212	162.430062	-67.690750	-67.771922			
44762	7.993057	1.336084	-1.806506	-0.273175	-1.264665	-1.611252	162.528959	-67.691848	-67.887142			
44763	8.112232	1.474372	-1.760693	-0.396899	-1.363818	-1.502177	162.634893	-67.712383	-68.028286			
44764	8.295069	1.546924	-1.956070	-0.460008	-1.252101	-1.254184	162.687657	-67.727964	-68.193744			
44765	8.768365	1.492079	-2.180048	-0.356001	-1.202094	-0.741228	162.682157	-67.743318	-68.362441			
44766	8.949608	1.607235	-2.225996	-0.450827	-1.226672	-0.543073	162.616430	-67.798687	-68.498315			
44767	9.138276	1.797226	-2.101122	-0.611663	-1.412011	-0.390114	162.531765	-67.893621	-68.618038			
44768	9.178879	2.052704	-2.064939	-0.864940	-1.461425	-0.334004	162.487076	-68.025549	-68.736935			
44769	9.267965	2.431106	-1.943356	-1.233334	-1.612753	-0.249219	162.467251	-68.181871	-68.855670			
44770	9.226093	2.685116	-1.866369	-1.499834	-1.660955	-0.283490	162.431316	-68.368670	-68.938004			
44771	9.036629	2.612451	-1.661606	-1.456867	-1.745647	-0.534939	162.325630	-68.593559	-68.945401			
44772	8.570215	2.278743	-1.726696	-1.198536	-1.460265	-0.977885	162.166666	-68.834983	-68.879036			
44773	8.105571	1.954901	-1.749607	-0.943454	-1.221785	-1.434138	161.964348	-69.030692	-68.765823			
44774	7.772766	1.296397	-2.026273	-0.342584	-0.776108	-1.720557	161.752515	-69.140502	-68.651772			
44775	8.084215	0.607524	-2.275369	0.378041	-0.581939	-1.421064	161.551398	-69.165582	-68.554668			
44776	8.599474	-0.222591	-2.360067	1.273534	-0.611443	-1.005039	161.377838	-69.139046	-68.502415			
44777	9.341550	-0.584982	-2.147088	1.743154	-1.038799	-0.426578	161.293840	-69.080972	-68.517111			
44778	9.961288	-0.415663	-1.961259	1.665992	-1.440104	0.106846	161.243953	-69.038292	-68.557427			
44779	10.395887	0.307431	-1.720380	1.014845	-1.866259	0.512808	161.200260	-69.009126	-68.582083			
44780	10.949812	0.754182	-1.526929	0.652512	-2.264060	1.015375	161.107881	-69.005679	-68.527597			
44781	11.679658	1.047424	-1.463831	0.464773	-2.576618	1.711171	161.002321	-69.076943	-68.318414			
44782	11.748687	1.327832	-1.590569	0.201629	-2.472679	1.856493	160.843861	-69.237725	-67.890987			
44783	11.616241	1.217781	-2.393126	0.280995	-1.627685	1.994879	160.669179	-69.409539	-67.272291			
44784	11.800771	1.376254	-3.489754	0.118445	-0.630782	2.553341	160.516953	-69.538080	-66.532468			
44785	12.849964	1.690938	-4.383395	-0.077590	-0.126868	3.868425	160.277830	-69.595032	-65.726402			
44786	14.059280	3.010193	-4.511175	-1.193896	-0.503893	5.200504	159.929239	-69.643169	-64.902939			
44787	13.059602	4.329062	-5.154524	-2.656790	0.295704	4.634354	159.439687	-69.745382	-64.057457			
44788	11.527969	5.267015	-6.289897	-3.869147	1.746672	3.684614	159.059383	-69.746619	-63.417022			
44789	10.870870	5.763810	-7.470492	-4.527120	2.985014	3.521490	158.883907	-69.607398	-63.087787			
44790	10.866460	5.840594	-7.860941	-4.611873	3.304502	3.670544	158.811650	-69.404684	-62.946850			
44791	10.988616	5.890510	-8.085460	-4.630959	3.422161	3.886405	158.766708	-69.145770	-62.908741			
44792	10.345387	5.601992	-8.419427	-4.435934	3.932941	3.383911	158.543785	-68.906768	-62.808016			
44793	9.516304	4.369304	-8.133200	-3.270913	4.060479	2.377997	157.987599	-68.663305	-62.640531			
44794	8.750029	2.645154	-7.146680	-1.539523	3.583496	1.115359	157.005999	-68.450617	-62.286327			
44795	7.800455	1.260960	-5.893346	-0.157502	2.868040	-0.383104	155.763417	-68.205086	-61.782503			
44796	7.726700	-0.211960	-5.207865	1.427449	2.370111	-0.912565	154.471018	-67.808481	-61.352976			
44797	8.316556	-1.728447	-5.669224	3.145306	2.680031	-0.473773	153.306892	-67.378438	-61.040162			
44798	8.786772	-2.428577	-6.232877	4.035162	3.037563	0.007882	152.464104	-67.096885	-60.853610			
44799	8.715016	-1.943033	-6.570109	3.630028	3.312540	0.124255	151.899778	-67.044417	-60.760728			
44800	8.476193	-1.586821	-6.363238	3.275893	3.177173	-0.115849	151.598296	-67.168449	-60.824883			
44801	8.471083	-1.436430	-6.015846	3.121971	2.859729	-0.216431	151.792515	-67.400128	-61.138502			
44802	8.698994	-0.434244	-5.746818	2.122743	2.513357	0.090007	152.553387	-67.728145	-61.663524			
44803	8.935082	0.701345	-5.459191	0.947899	2.148619	0.415413	153.616735	-68.168623	-62.301771			
44804	9.158270	1.482438	-4.634061	0.095469	1.302272	0.475152	154.768591	-68.685508	-62.988305			
44805	9.182057	1.507721	-3.493534	-0.035978	0.266397	0.122839	155.922330	-69.236829	-63.684065			
44806	8.837330	1.143621	-2.497164	0.180568	-0.492579	-0.573320	157.104962	-69.769771	-64.389642			
44807	8.086170	0.266855	-2.246623	0.853307	-0.388209	-1.468521	158.271129	-70.260691	-65.132692			
44808	7.180086	-0.296351	-2.298659	1.206606	0.020260	-2.364969	159.395401	-70.667837	-65.926096			
44809	6.289365	-0.448420	-2.459880	1.171911	0.479995	-3.164064	160.434596	-70.956475	-66.768748			
44810	5.633811	-0.443286	-2.858000	1.022227	1.063746	-3.654125	161.339170	-71.081329	-67.602965			
44811	5.441740	-0.195045	-3.236746	0.707775	1.452327	-3.687588	162.107395	-71.010004	-68.404524			
44812	5.735379	0.147149	-3.429275	0.381510	1.494904	-3.309167	162.648880	-70.801355	-69.052990			
44813	6.382833	0.361772	-3.552924	0.237809	1.361367	-2.630438	162.981861	-70.508308	-69.514705			
44814	7.444997	0.548175	-3.526159	0.183029	0.946172	-1.613093	163.224554	-70.184802	-69.830964			
44815	8.883507	0.819328	-3.334889	0.095440	0.242191	-0.292101	163.399830	-69.937206	-70.033500			
44816	9.625050	0.919737	-3.129860	0.092988	-0.221526	0.347323	163.431153	-69.908430	-70.107932			
44817	9.382873	0.746380	-2.918239	0.242327	-0.321675	0.033595	163.363429	-70.043312	-70.146789			
44818	8.885601	0.360779	-2.828775	0.565072	-0.192950	-0.499824	163.285523	-70.227365	-70.205437			
44819	8.296957	0.133777	-2.903484	0.712571	0.106274	-1.050924	163.298601	-70.395582	-70.307402			
44820	7.775504	-0.090911	-3.138675	0.860152	0.525933	-1.487934	163.386131	-70.492116	-70.440463			
44821	7.959796	-0.309465	-3.216052	1.086192	0.559094	-1.309470	163.600838	-70.485259	-70.625923			
44822	8.448810	-0.179773	-3.205322	0.999463	0.378707	-0.837922	163.941086	-70.440833	-70.861386			
44823	9.002173	-0.090537	-3.072024	0.958886	0.062183	-0.349005	164.329595	-70.427160	-71.111737			
44824	9.301330	-0.060187	-2.692901	0.955139	-0.392787	-0.184424	164.664154	-70.505025	-71.328508			
44825	9.101948	-0.129619	-2.442177	0.992412	-0.547461	-0.456309	164.908624	-70.659419	-71.469657			
44826	8.625973	-0.168724	-2.202201	0.974940	-0.599182	-0.982287	165.027969	-70.830640	-71.492506			
44827	8.102071	-0.248376	-2.153283	0.992780	-0.453244	-1.496992	165.000027	-70.974026	-71.360850			
44828	7.665771	-0.319440	-2.088812	1.020441	-0.355285	-1.934764	164.844993	-71.059145	-71.093475			
44829	7.554077	-0.036832	-2.085097	0.734933	-0.336355	-2.017831	164.619594	-71.063845	-70.738647			
44830	7.604359	0.279771	-2.000215	0.443746	-0.456138	-1.970468	164.298572	-71.003845	-70.337673			
44831	7.619564	0.377406	-1.917452	0.371654	-0.552127	-1.974715	163.922472	-70.903155	-69.941843			
44832	7.689532	0.410445	-1.708391	0.378358	-0.782739	-1.973039	163.553598	-70.784378	-69.609855			
44833	7.713949	0.394308	-1.396601	0.432161	-1.095698	-2.052300	163.259342	-70.650240	-69.382423			
44834	7.628326	0.268630	-1.120949	0.575632	-1.334067	-2.235820	163.064654	-70.502777	-69.276288			
44835	7.743360	0.005213	-1.135052	0.861264	-1.354296	-2.152919	162.990393	-70.325121	-69.283746			
44836	7.870588	-0.116175	-1.247045	0.999825	-1.303106	-2.014163	163.035933	-70.126617	-69.375861			
44837	8.183301	-0.015653	-1.522067	0.930814	-1.181300	-1.626030	163.192169	-69.895282	-69.533349			
44838	8.651519	0.088842	-1.909384	0.870108	-1.011170	-1.053535	163.402943	-69.652409	-69.722993			
44839	9.475140	0.063474	-2.426164	0.973226	-0.831422	-0.115780	163.656274	-69.418724	-69.948999			
44840	9.785013	0.197508	-2.912114	0.853084	-0.524095	0.349172	163.925271	-69.266004	-70.178849			
44841	9.973544	0.144848	-3.211655	0.906378	-0.327294	0.621804	164.184040	-69.174806	-70.408701			
44842	10.231794	0.041278	-3.229784	1.028175	-0.405567	0.859762	164.420875	-69.126719	-70.641811			
44843	10.590456	-0.040535	-3.053690	1.147540	-0.696201	1.127279	164.627565	-69.104332	-70.860796			
44844	11.160427	-0.101169	-2.517377	1.285899	-1.392127	1.470529	164.778919	-69.118611	-71.084289			
44845	11.484171	-0.088992	-1.943556	1.322419	-2.038455	1.578862	164.876427	-69.182104	-71.294231			
44846	11.818268	0.261555	-1.182121	1.027876	-2.883209	1.666329	164.989939	-69.271330	-71.515662			
44847	11.916603	0.475127	-0.850245	0.818884	-3.226537	1.670904	165.108046	-69.415535	-71.743666			
44848	11.316696	0.545613	-0.993216	0.654219	-2.867396	1.173743	165.172533	-69.628560	-71.917181			
44849	10.415697	0.435368	-1.715530	0.617892	-1.850293	0.570658	165.273337	-69.801939	-72.122286			
44850	9.958994	0.759268	-2.800155	0.191002	-0.687838	0.535709	165.470639	-69.826015	-72.430667			
44851	10.416207	1.290064	-3.634218	-0.329821	-0.103121	1.289100	165.719545	-69.688885	-72.849522			
44852	11.346256	0.760205	-4.324670	0.268865	0.233245	2.348370	165.845285	-69.464917	-73.242467			
44853	11.634078	-1.039491	-4.892947	2.083137	0.720981	2.657821	165.895588	-69.194883	-73.553321			
44854	11.432054	-3.127672	-5.899661	4.134349	1.769992	2.639367	166.030688	-68.788522	-73.804952			
44855	11.852566	-4.082260	-6.742221	5.120831	2.357378	3.257293	166.348160	-68.261382	-74.042897			
44856	12.219246	-4.192796	-7.379414	5.259243	2.713415	3.837293	166.626174	-67.770784	-74.204419			
44857	11.917824	-4.249177	-8.284296	5.262926	3.556840	3.912072	166.944163	-67.259968	-74.337186			
44858	11.744931	-3.853970	-9.619689	4.794283	4.717986	4.332586	167.491596	-66.681438	-74.459245			
44859	11.927200	-2.312691	-10.159457	3.192472	4.928627	4.895681	168.305209	-66.240663	-74.626506			
44860	11.525433	-1.225187	-9.910694	1.964949	4.710079	4.557810	169.162842	-66.171715	-74.788961			
44861	10.360575	-0.368950	-9.296159	0.879706	4.536751	3.322682	170.129093	-66.439118	-74.950334			
44862	8.949487	1.175160	-8.256673	-0.895423	4.016389	1.707332	171.299950	-66.891181	-75.107260			
44863	7.385174	3.175427	-7.087438	-3.103574	3.332595	-0.111398	172.523069	-67.480137	-75.220282			
44864	5.893865	5.136605	-5.777688	-5.185261	2.417388	-1.953179	173.524864	-68.120236	-75.213374			
44865	5.025213	6.362000	-4.702918	-6.426908	1.536931	-3.166077	174.066643	-68.672091	-75.025199			
44866	5.428132	6.953490	-3.187424	-6.794833	-0.115732	-3.348005	174.064950	-69.094987	-74.528064			
44867	6.306526	6.592142	-2.180199	-6.204720	-1.285540	-2.896716	173.594232	-69.459978	-73.761408			
44868	6.509633	5.901379	-1.599924	-5.393489	-1.749906	-2.912742	172.725620	-69.735517	-72.743246			
44869	7.031649	4.639458	-1.465841	-4.038762	-1.796007	-2.492866	171.499097	-69.752548	-71.642820			
44870	8.375122	3.557927	-1.730460	-2.809043	-1.789102	-1.169545	170.159013	-69.456764	-70.660628			
44871	9.632830	2.911125	-2.401803	-2.039280	-1.487073	0.220448	168.732359	-68.986328	-69.863926			
44872	9.477478	2.078338	-3.404263	-1.260239	-0.395952	0.384602	167.095523	-68.486906	-69.090181			
44873	9.286281	1.389115	-4.375666	-0.584664	0.637329	0.510161	165.522130	-67.933589	-68.375324			
44874	9.087670	1.191865	-4.960617	-0.336136	1.223710	0.531476	164.202005	-67.360217	-67.759057			
44875	8.816943	1.095664	-5.516656	-0.200470	1.785595	0.489857	163.173757	-66.799159	-67.244877			
44876	8.424779	0.896031	-6.068018	0.001497	2.403458	0.327483	162.390303	-66.339640	-66.756225			
44877	8.354958	0.583430	-6.098818	0.374838	2.448676	0.247347	161.811281	-65.992131	-66.294901			
44878	8.526216	0.158673	-5.924870	0.887854	2.244914	0.286693	161.326446	-65.757430	-65.801275			
44879	8.331824	-0.336959	-5.587428	1.401657	2.059547	-0.089224	160.858011	-65.686446	-65.223910			
44880	8.222781	-0.481876	-4.819284	1.599211	1.428262	-0.513531	160.375210	-65.726653	-64.585720			
44881	8.231524	-0.510985	-3.668384	1.725228	0.401044	-0.961771	159.853791	-65.845431	-63.911464			
44882	8.281565	-0.666964	-2.910262	1.958165	-0.251856	-1.233602	159.287901	-66.038963	-63.166458			
44883	8.142211	-0.348621	-2.721389	1.650847	-0.362656	-1.388560	158.683443	-66.316697	-62.281619			
44884	7.811431	0.393234	-2.681800	0.881836	-0.320036	-1.597781	157.943745	-66.637805	-61.239429			
44885	7.662314	1.018746	-2.787555	0.255293	-0.195333	-1.601986	156.996833	-66.927534	-60.060748			
44886	7.573596	1.579726	-2.666268	-0.267137	-0.297947	-1.639359	155.850735	-67.174713	-58.751142			
44887	7.307381	1.912234	-2.405144	-0.580633	-0.447966	-1.919590	154.641656	-67.316843	-57.460978			
44888	7.153128	1.742646	-2.623140	-0.418796	-0.128455	-2.009308	153.528432	-67.313645	-56.319692			
44889	7.405492	1.473290	-2.755252	-0.065559	-0.020378	-1.775376	152.610373	-67.226993	-55.355422			
44890	7.846026	1.111895	-2.587354	0.441594	-0.244276	-1.491870	151.872076	-67.152598	-54.543620			
44891	7.987389	0.841356	-2.625230	0.765051	-0.194612	-1.399909	151.396296	-67.136368	-53.886214			
44892	7.869006	1.215523	-2.549437	0.396586	-0.274958	-1.466102	151.269149	-67.167489	-53.441585			
44893	8.156811	1.658364	-2.655438	0.019966	-0.333503	-1.082083	151.459987	-67.234380	-53.260482			
44894	8.366345	2.126259	-2.671175	-0.407773	-0.460720	-0.797519	151.827540	-67.403866	-53.247850			
44895	8.459487	2.367577	-2.561192	-0.646291	-0.622768	-0.706519	152.250136	-67.707121	-53.317062			
44896	8.373393	2.300349	-2.349652	-0.626923	-0.755197	-0.870514	152.689502	-68.125193	-53.414914			
44897	8.327771	2.294521	-1.971311	-0.641751	-1.062316	-1.039892	153.232674	-68.550974	-53.631767			
44898	8.303439	2.036417	-1.694085	-0.417189	-1.238474	-1.195503	153.850109	-68.911693	-53.962286			
44899	8.448609	1.980741	-1.319715	-0.332760	-1.604505	-1.189544	154.543562	-69.182904	-54.404866			
44900	8.586653	2.016579	-1.124432	-0.357056	-1.827914	-1.118285	155.239646	-69.386286	-54.901099			
44901	8.701161	1.889018	-0.895967	-0.218553	-2.047526	-1.104008	155.891547	-69.555155	-55.412081			
44902	8.940603	1.770928	-0.791836	-0.080900	-2.186158	-0.929467	156.485901	-69.746420	-55.886513			
44903	8.815729	2.027933	-0.818152	-0.399073	-2.166834	-1.001084	157.003248	-70.002523	-56.289842			
44904	8.430333	2.164128	-0.757729	-0.635630	-2.120042	-1.361101	157.416073	-70.316895	-56.601984			
44905	7.971825	2.423691	-0.621825	-0.988787	-2.143954	-1.797919	157.748163	-70.661798	-56.812142			
44906	7.518177	2.588415	-0.540875	-1.249405	-2.100444	-2.227015	158.019066	-70.977956	-56.931959			
44907	7.446829	2.552164	-0.717481	-1.279079	-1.889425	-2.244492	158.298372	-71.166483	-57.035163			
44908	7.900061	2.274582	-0.988910	-0.989550	-1.694563	-1.768318	158.555524	-71.215645	-57.128528			
44909	8.420256	1.651436	-1.256510	-0.346134	-1.457091	-1.270800	158.749019	-71.180063	-57.219981			
44910	8.728838	1.016011	-1.579413	0.266890	-1.112103	-0.957665	158.887173	-71.106685	-57.337417			
44911	9.172286	0.772327	-1.776899	0.549197	-1.011090	-0.508885	158.968439	-70.992204	-57.488087			
44912	10.059059	1.142824	-1.777240	0.352675	-1.356138	0.369932	159.011162	-70.836676	-57.652002			
44913	10.676920	1.594869	-1.781901	0.032707	-1.645610	1.004255	159.040066	-70.678927	-57.773861			
44914	10.950805	2.025443	-1.582547	-0.293278	-2.024050	1.248242	159.112641	-70.563843	-57.833931			
44915	10.893043	2.595346	-1.670800	-0.864585	-2.067629	1.285202	159.278464	-70.486345	-57.829210			
44916	10.249441	3.271110	-2.403625	-1.755196	-1.374373	0.983557	159.569333	-70.393739	-57.762601			
44917	10.157497	3.799357	-3.625465	-2.496699	-0.375571	1.339844	159.979877	-70.201263	-57.716377			
44918	11.759752	3.926265	-4.541753	-2.491885	-0.092363	3.153269	160.432936	-69.878648	-57.745786			
44919	13.879726	3.801583	-4.811088	-2.015880	-0.532175	5.217197	160.794164	-69.521246	-57.800601			
44920	13.512742	4.399832	-5.446381	-2.762659	-0.072859	5.153198	161.017751	-69.281674	-57.764280			
44921	12.113196	5.762998	-6.552784	-4.540494	0.956963	4.377041	161.205459	-69.049432	-57.808502			
44922	11.555665	6.310423	-7.742194	-5.385958	2.030175	4.335316	161.254948	-68.817876	-57.991720			
44923	11.075812	5.624319	-8.518303	-4.927690	3.034769	4.093277	161.189474	-68.591523	-58.280023			
44924	10.541109	5.020140	-8.475248	-4.378013	3.282711	3.536574	161.140448	-68.230545	-58.666713			
44925	10.444834	3.860988	-8.285146	-3.152542	3.364127	3.278842	160.904820	-67.718180	-59.011778			
44926	10.346186	2.442879	-7.411068	-1.538356	2.862072	2.732260	160.386530	-67.253398	-59.136151			
44927	9.691343	1.134863	-6.187881	-0.095391	2.209331	1.527889	159.533126	-66.962050	-58.964345			
44928	8.597157	-0.389760	-4.842870	1.459644	1.646796	-0.186001	158.410508	-66.788492	-58.633316			
44929	7.707655	-2.008757	-4.325879	3.009820	1.768099	-1.447864	157.341216	-66.583545	-58.373276			
44930	7.671852	-2.940084	-4.647019	3.958049	2.202612	-1.531529	156.548158	-66.308356	-58.340452			
44931	8.198106	-2.525426	-5.334858	3.675088	2.529917	-0.749576	156.085295	-66.074058	-58.544496			
44932	8.427578	-1.858230	-5.812273	3.090657	2.738200	-0.262325	155.877990	-65.974949	-58.901132			
44933	8.531983	-0.993346	-5.869553	2.289118	2.596240	-0.001848	156.079595	-65.985701	-59.391398			
44934	8.656133	0.208021	-5.622259	1.135505	2.135250	0.223885	156.773224	-66.096507	-59.990094			
44935	9.050223	1.393985	-5.223631	0.014290	1.439461	0.630635	157.950849	-66.237914	-60.751788			
44936	9.800716	2.101968	-4.813826	-0.602581	0.660948	1.270810	159.453229	-66.387865	-61.669622			
44937	10.520083	2.359726	-4.383297	-0.802911	-0.066465	1.797785	161.082276	-66.575078	-62.678111			
44938	10.982385	2.334789	-3.846295	-0.767971	-0.744104	2.007340	162.640797	-66.836444	-63.697836			
44939	10.868958	1.635110	-3.702191	-0.214226	-0.716186	1.761161	164.029655	-67.148599	-64.727427			
44940	10.165389	1.053453	-3.670733	0.128844	-0.377668	1.038995	165.192459	-67.479506	-65.723030			
44941	9.460333	0.945058	-3.737413	0.026189	-0.029504	0.402852	166.073133	-67.755467	-66.669111			
44942	8.553936	0.899938	-4.234053	-0.187703	0.769364	-0.258650	166.579400	-67.933602	-67.518873			
44943	7.662441	0.989589	-4.491056	-0.454443	1.310416	-0.984428	166.776072	-67.962772	-68.288482			
44944	7.210798	1.034809	-4.397946	-0.539249	1.372380	-1.432108	166.799091	-67.852187	-68.985597			
44945	6.921378	1.134401	-4.208796	-0.632089	1.270915	-1.757164	166.760254	-67.658422	-69.601894			
44946	6.972143	1.243459	-3.898664	-0.679333	0.932867	-1.811140	166.752760	-67.458691	-70.192275			
44947	7.214541	1.277484	-3.440591	-0.627624	0.400243	-1.752594	166.844960	-67.304815	-70.815818			
44948	7.674150	1.110016	-2.963820	-0.367837	-0.199519	-1.522101	167.070515	-67.245351	-71.515647			
44949	7.603631	0.841877	-2.642387	-0.106003	-0.439907	-1.731763	167.413583	-67.354977	-72.255079			
44950	6.952078	0.812066	-2.395726	-0.167414	-0.408307	-2.427876	167.920966	-67.611626	-73.057982			
44951	5.853608	0.724493	-2.421182	-0.240362	0.049916	-3.441558	168.587614	-67.923017	-73.982185			
44952	4.858201	0.877265	-2.547763	-0.537296	0.534240	-4.309180	169.430727	-68.158235	-75.082296			
44953	4.659631	0.486766	-2.867649	-0.214919	0.945293	-4.405960	170.287594	-68.217091	-76.256472			
44954	5.247258	0.313190	-2.800247	-0.011265	0.675490	-3.895197	171.133969	-68.103401	-77.417554			
44955	5.948640	-0.079603	-2.778720	0.414698	0.405477	-3.272241	171.828246	-67.916469	-78.464526			
44956	6.724207	-0.374973	-2.442408	0.760427	-0.202838	-2.692196	172.358950	-67.734527	-79.382072			
44957	7.174056	-0.615375	-2.162041	1.022377	-0.645178	-2.392539	172.688638	-67.607602	-80.141410			
44958	7.395837	-0.685239	-2.002491	1.096104	-0.897572	-2.251550	172.847734	-67.502566	-80.742347			
44959	7.829584	-0.813811	-2.179651	1.239493	-0.918329	-1.791727	172.804843	-67.357735	-81.158203			
44960	8.414443	-0.908715	-2.578233	1.366433	-0.799577	-1.108129	172.580038	-67.198716	-81.384299			
44961	8.817003	-0.811733	-2.951110	1.305227	-0.641538	-0.593564	172.224026	-67.073292	-81.442153			
44962	9.110514	-0.763074	-3.151482	1.297108	-0.590654	-0.247952	171.778345	-67.004778	-81.356952			
44963	9.085662	-0.639605	-3.336887	1.201486	-0.420319	-0.196407	171.294424	-67.002018	-81.179955			
44964	8.828604	-0.394960	-3.495194	0.973530	-0.174973	-0.360801	170.785081	-67.042870	-80.934560			
44965	8.570223	-0.204987	-3.495661	0.799496	-0.068354	-0.589541	170.243864	-67.085487	-80.634125			
44966	8.398414	-0.049344	-3.206775	0.657745	-0.260909	-0.850632	169.752845	-67.119678	-80.323153			
44967	8.360784	0.008953	-2.727899	0.610603	-0.679324	-1.065696	169.355486	-67.171765	-80.031122			
44968	8.110796	0.217666	-2.283940	0.391560	-0.982197	-1.450229	169.083064	-67.247021	-79.785017			
44969	7.955871	0.504083	-2.026638	0.099446	-1.149896	-1.668666	168.909119	-67.310186	-79.592354			
44970	7.961884	0.967349	-1.675811	-0.364174	-1.468948	-1.760032	168.794790	-67.356264	-79.466411			
44971	8.297431	1.056919	-1.560432	-0.427478	-1.699099	-1.486241	168.677873	-67.350285	-79.403718			
44972	8.731446	1.146546	-1.778900	-0.476222	-1.662355	-0.996396	168.605264	-67.322015	-79.409283			
44973	9.174333	1.155170	-2.070321	-0.443014	-1.564490	-0.477531	168.539635	-67.280510	-79.483084			
44974	9.767378	0.996967	-2.395069	-0.232699	-1.496247	0.179262	168.491779	-67.220486	-79.624779			
44975	10.258777	0.864557	-2.717691	-0.055732	-1.397884	0.742814	168.463971	-67.133203	-79.816847			
44976	10.953726	0.626064	-3.037911	0.240535	-1.387511	1.484299	168.457417	-67.032255	-80.050117			
44977	11.477805	0.510478	-3.225409	0.395473	-1.434748	2.027454	168.470336	-66.971194	-80.301849			
44978	11.869388	0.447198	-3.077440	0.470199	-1.734380	2.325015	168.523611	-66.944223	-80.571269			
44979	11.981109	0.690207	-2.806866	0.208782	-2.025899	2.342722	168.639605	-66.959270	-80.857854			
44980	11.800970	0.811403	-2.468737	0.041171	-2.260220	2.057679	168.780385	-67.012290	-81.171966			
44981	11.462571	0.709827	-2.618460	0.108360	-1.984617	1.797663	168.973695	-67.077823	-81.530644			
44982	11.288222	0.628150	-3.183692	0.185634	-1.393358	1.848292	169.270949	-67.096094	-81.985063			
44983	11.542415	1.185665	-3.941964	-0.344497	-0.778007	2.412211	169.688685	-67.074712	-82.554262			
44984	12.223923	2.184140	-4.217162	-1.327062	-0.758168	3.212026	170.114850	-67.048469	-83.187434			
44985	12.622287	2.185213	-4.551281	-1.322853	-0.599246	3.704055	170.374667	-67.095796	-83.750076			
44986	12.122862	0.738042	-5.145284	0.120014	0.095737	3.376657	170.445952	-67.214534	-84.134218			
44987	11.535279	-1.032412	-5.934058	1.915033	0.974460	3.021822	170.440372	-67.278234	-84.329347			
44988	11.124381	-1.846847	-6.360156	2.743024	1.471628	2.754108	170.500602	-67.169478	-84.400044			
44989	11.302516	-2.780126	-7.225066	3.743864	2.100374	3.196888	170.562238	-66.850676	-84.414005			
44990	11.535746	-3.567886	-7.893021	4.584724	2.487427	3.637030	170.719863	-66.334751	-84.483886			
44991	11.377427	-3.542555	-8.922330	4.613907	3.366438	3.934337	171.027441	-65.715863	-84.621768			
44992	11.142391	-2.373467	-8.924714	3.408431	3.390865	3.837216	171.452924	-65.176379	-84.867129			
44993	10.422681	-1.138623	-8.846243	2.103016	3.592699	3.258434	171.898328	-64.976600	-85.167869			
44994	8.922742	0.329265	-8.364894	0.502175	3.855322	1.788131	172.430736	-65.232664	-85.499349			
44995	6.927649	1.598504	-7.919401	-0.928036	4.402523	-0.168017	173.198513	-65.775925	-85.902598			
44996	5.682196	2.530169	-7.416514	-2.007205	4.560417	-1.514117	174.118920	-66.321761	-86.372861			
44997	5.658214	3.779365	-7.341388	-3.343062	4.582465	-1.565314	174.927928	-66.661379	-86.734197			
44998	6.234352	5.146203	-6.483593	-4.787408	3.618179	-1.364208	175.319717	-66.905255	-86.823273			
44999	7.383749	5.056167	-5.891374	-4.702634	2.654335	-0.558914	175.028533	-67.208290	-86.606002			
45000	8.571211	3.793389	-4.948202	-3.407150	1.370539	0.129758	174.228616	-67.600040	-86.147938			
45001	9.719589	1.973246	-3.336826	-1.561782	-0.509312	0.521661	173.144427	-68.067746	-85.524302			
45002	9.936894	0.545780	-2.343471	-0.115296	-1.458790	0.306062	171.985225	-68.591642	-84.771115			
45003	9.355767	0.272314	-1.893269	0.170903	-1.604036	-0.400652	170.857245	-68.847378	-83.988573			
45004	9.536107	0.211661	-2.198199	0.316969	-1.366665	-0.125292	169.631692	-68.771413	-83.317639			
45005	9.449550	-0.238341	-3.011181	0.891542	-0.623110	0.048057	168.346954	-68.559787	-82.717531			
45006	8.641020	-0.302151	-3.564950	1.041026	0.147610	-0.519609	167.165733	-68.362388	-82.112130			
45007	7.856197	-0.105320	-4.059160	0.925727	0.881246	-1.062048	166.064922	-68.213614	-81.458916			
45008	6.831879	-0.367438	-4.479239	1.240069	1.615091	-1.892678	164.987230	-68.167069	-80.716414			
45009	5.828253	-0.756493	-4.847063	1.659441	2.294101	-2.740346	164.073280	-68.173092	-79.905276			
45010	5.549095	-1.055233	-4.923887	1.980736	2.451631	-3.014398	163.310132	-68.162222	-79.035639			
45011	5.621735	-0.889307	-4.886090	1.837895	2.419214	-2.954253	162.623025	-68.206074	-78.069069			
45012	6.299919	0.125845	-3.719076	0.770666	1.183525	-2.633437	162.118280	-68.256074	-77.182147			
45013	6.793273	1.033036	-2.766690	-0.171697	0.196521	-2.409840	161.671686	-68.354323	-76.373285			
45014	7.240190	1.798657	-2.037165	-0.944596	-0.582151	-2.159299	161.240209	-68.463352	-75.620294			
45015	7.574178	2.348568	-1.523173	-1.483341	-1.135932	-1.956908	160.705002	-68.581042	-74.869635			
45016	7.548362	2.504918	-1.474237	-1.615959	-1.146748	-1.970540	160.028049	-68.695397	-74.078767			
45017	7.530791	2.591601	-1.549604	-1.662690	-1.050080	-1.941020	159.264456	-68.730313	-73.265473			
45018	7.644841	2.511852	-1.692644	-1.519642	-0.954812	-1.787918	158.509667	-68.637199	-72.478204			
45019	7.769189	2.430557	-2.196487	-1.338408	-0.543802	-1.505751	157.879887	-68.400322	-71.807021			
45020	8.137275	2.052063	-2.807718	-0.823265	-0.149791	-1.003092	157.361274	-68.054330	-71.286123			
45021	8.719349	1.619303	-2.907334	-0.273272	-0.324985	-0.489535	156.961302	-67.703283	-70.908206			
45022	9.313268	0.973773	-2.836967	0.469713	-0.669008	-0.062549	156.627927	-67.459984	-70.604085			
45023	9.143195	0.363709	-2.871214	1.079480	-0.622461	-0.303670	156.448660	-67.352095	-70.364142			
45024	9.278976	0.081855	-2.864149	1.383003	-0.697259	-0.225687	156.538692	-67.309101	-70.272533			
45025	9.239815	0.594032	-2.616740	0.841276	-0.895443	-0.269900	156.845769	-67.350465	-70.289924			
45026	9.050209	1.053360	-2.428753	0.326081	-0.980828	-0.440053	157.259818	-67.454690	-70.381304			
45027	8.621757	1.753178	-2.102518	-0.472474	-1.099641	-0.846284	157.673075	-67.630238	-70.470872			
45028	8.017274	1.960046	-1.926288	-0.791015	-1.023560	-1.436794	157.952712	-67.856197	-70.512182			
45029	7.722176	1.995181	-1.569467	-0.905577	-1.229127	-1.828635	158.128857	-68.063706	-70.542004			
45030	7.571097	2.082524	-1.593734	-1.022380	-1.132913	-1.946963	158.249231	-68.210790	-70.562513			
45031	7.491655	2.307617	-1.413075	-1.275899	-1.259760	-2.051769	158.378985	-68.296578	-70.604188			
45032	7.125303	2.232750	-1.459430	-1.250856	-1.084478	-2.386765	158.489231	-68.351840	-70.614621			
45033	6.983726	2.338874	-1.603498	-1.370570	-0.900674	-2.455767	158.668293	-68.345047	-70.660452			
45034	7.301515	2.368156	-1.753259	-1.358529	-0.879178	-2.107128	158.880752	-68.307572	-70.751361			
45035	7.825069	2.384657	-1.620316	-1.325070	-1.194451	-1.666449	159.055345	-68.303711	-70.836403			
45036	8.140103	2.350531	-1.590785	-1.261554	-1.334701	-1.389866	159.188752	-68.331799	-70.911885			
45037	8.471168	2.179677	-1.750460	-1.051695	-1.301732	-1.050541	159.346717	-68.355531	-71.007513			
45038	8.607766	1.761397	-1.962313	-0.619848	-1.151845	-0.905619	159.543488	-68.405375	-71.103137			
45039	8.654167	1.453700	-2.346713	-0.305279	-0.810360	-0.770287	159.907865	-68.421111	-71.249993			
45040	9.200777	1.322126	-2.629601	-0.118646	-0.748105	-0.182355	160.425238	-68.365025	-71.479766			
45041	9.790333	0.954408	-2.768099	0.295808	-0.847036	0.366644	160.999475	-68.259782	-71.745390			
45042	10.672355	1.014459	-2.709805	0.311964	-1.245088	1.170191	161.556669	-68.114427	-71.993077			
45043	11.422596	1.344663	-2.543611	0.045539	-1.707828	1.842136	162.014399	-67.982967	-72.164761			
45044	12.056507	1.727724	-2.123392	-0.285034	-2.362128	2.319594	162.310311	-67.920095	-72.199398			
45045	12.394759	2.244858	-1.824832	-0.768919	-2.785477	2.582850	162.445006	-67.945276	-72.041575			
45046	12.346725	2.041077	-1.893957	-0.565621	-2.688616	2.542314	162.410251	-68.056511	-71.708034			
45047	11.767837	2.166219	-1.962601	-0.744543	-2.397481	2.050024	162.250278	-68.217423	-71.209012			
45048	10.827874	2.115856	-2.633030	-0.787652	-1.408949	1.414375	161.999142	-68.363199	-70.569528			
45049	10.204889	2.278767	-3.652288	-1.011261	-0.229821	1.214382	161.748249	-68.395146	-69.866391			
45050	10.365065	1.851651	-4.503816	-0.558224	0.531980	1.613287	161.485926	-68.326957	-69.164984			
45051	11.590595	1.969422	-4.514001	-0.490071	0.098648	2.770903	161.190750	-68.229036	-68.498005			
45052	12.204403	2.373820	-4.396414	-0.773230	-0.257771	3.349627	160.821692	-68.197982	-67.843144			
45053	11.473899	3.978593	-5.143404	-2.459059	0.564401	3.132141	160.644830	-68.135981	-67.365255			
45054	10.972060	4.949703	-6.367737	-3.514552	1.777635	3.222709	160.569955	-67.993676	-67.167513			
45055	10.462888	4.592494	-7.459599	-3.252315	2.968342	3.103190	160.518672	-67.805015	-67.167100			
45056	10.489074	4.922267	-7.882248	-3.560781	3.281452	3.337664	160.555251	-67.504539	-67.331615			
45057	10.602156	4.384931	-8.246863	-2.985696	3.557218	3.531794	160.618052	-67.104433	-67.602736			
45058	10.388749	3.976994	-8.368166	-2.574265	3.702906	3.356587	160.664841	-66.724896	-67.843126			
45059	9.523304	2.901420	-8.443311	-1.594002	4.117411	2.471726	160.449518	-66.505342	-67.895720			
45060	8.786413	1.563506	-7.680395	-0.318380	3.762871	1.339590	160.011720	-66.437788	-67.723513			
45061	7.728102	0.447005	-6.581787	0.689858	3.221895	-0.200899	159.298772	-66.478491	-67.325126			
45062	7.022462	-0.597411	-5.889767	1.675775	2.923598	-1.268380	158.398855	-66.521276	-66.819596			
45063	6.882326	-1.585856	-5.636145	2.695767	2.799806	-1.655423	157.505726	-66.467671	-66.410023			
45064	7.251137	-2.545537	-5.722573	3.773798	2.774286	-1.453989	156.714153	-66.344867	-66.152407			
45065	7.389193	-2.832614	-5.688166	4.140702	2.676507	-1.406160	156.163618	-66.264165	-66.018808			
45066	7.599175	-2.430395	-5.526047	3.809212	2.417355	-1.219799	155.981361	-66.239439	-66.035911			
45067	8.053160	-1.466324	-5.503292	2.933239	2.191682	-0.653958	156.242393	-66.236571	-66.218043			
45068	8.723806	-0.202377	-5.441106	1.759223	1.842635	0.150294	156.871081	-66.268592	-66.511691			
45069	9.630891	0.839618	-5.145033	0.805970	1.191277	1.043702	157.714191	-66.367120	-66.867315			
45070	10.078851	1.411318	-4.706914	0.223651	0.600309	1.381912	158.631579	-66.590958	-67.227053			
45071	10.181604	1.817196	-4.173741	-0.256489	0.065334	1.337043	159.650478	-66.906895	-67.661960			
45072	9.402119	1.765014	-3.946748	-0.415451	0.171286	0.526033	160.669312	-67.310514	-68.147356			
45073	8.218595	1.442228	-3.757176	-0.351799	0.480681	-0.681087	161.616378	-67.763460	-68.680177			
45074	7.068117	1.167489	-3.606002	-0.307682	0.802792	-1.838667	162.489734	-68.135336	-69.298359			
45075	6.283838	1.140325	-3.521734	-0.434776	1.020324	-2.604407	163.253844	-68.339471	-69.970424			
45076	5.950400	1.239297	-3.444099	-0.606161	1.058157	-2.933897	163.882427	-68.349844	-70.673184			
45077	5.901169	1.164709	-3.421239	-0.553950	1.046055	-2.994763	164.322882	-68.211179	-71.316870			
45078	6.185461	1.104364	-3.254808	-0.459112	0.771578	-2.793631	164.590273	-67.988156	-71.851132			
45079	6.761632	1.097410	-3.070235	-0.377046	0.365059	-2.324376	164.733782	-67.735544	-72.269121			
45080	7.513010	0.890137	-2.781089	-0.073586	-0.193295	-1.754818	164.813255	-67.515532	-72.596246			
45081	8.044398	0.517089	-2.752860	0.361269	-0.417392	-1.312499	164.856031	-67.388427	-72.865026			
45082	8.269439	0.171120	-2.697419	0.728602	-0.546986	-1.160583	164.963589	-67.360917	-73.166726			
45083	8.153145	-0.156943	-2.882951	1.028818	-0.321801	-1.230860	165.211939	-67.379469	-73.549753			
45084	7.888263	-0.099284	-3.169396	0.920840	0.034045	-1.361033	165.635744	-67.393730	-74.030200			
45085	7.681579	-0.119213	-3.358291	0.892259	0.277032	-1.480459	166.157060	-67.365778	-74.575091			
45086	7.902221	-0.064751	-3.449014	0.832803	0.257987	-1.234532	166.733399	-67.256912	-75.165622			
45087	8.317052	-0.171354	-3.474639	0.953570	0.103448	-0.848553	167.251577	-67.116826	-75.721440			
45088	8.622445	-0.107524	-3.336601	0.896199	-0.169210	-0.611647	167.703425	-67.012815	-76.203520			
45089	8.956733	0.034834	-3.101650	0.765660	-0.536686	-0.380286	168.025006	-66.985767	-76.595188			
45090	8.948584	-0.124853	-2.964143	0.907766	-0.655718	-0.451872	168.193586	-67.054831	-76.855961			
45091	8.840424	-0.306772	-2.654184	1.069577	-0.882118	-0.681984	168.242878	-67.181792	-76.990766			
45092	8.559833	-0.603555	-2.654969	1.334683	-0.743545	-0.961157	168.191136	-67.341838	-76.986950			
45093	8.328602	-0.718199	-2.575486	1.428903	-0.701711	-1.211506	168.046616	-67.503677	-76.854376			
45094	7.962769	-0.748495	-2.715023	1.431720	-0.409744	-1.498873	167.823894	-67.649727	-76.605990			
45095	7.659165	-0.579840	-2.586986	1.247462	-0.400599	-1.814261	167.521767	-67.757027	-76.269665			
45096	7.403809	-0.468635	-2.585123	1.128104	-0.294973	-2.043569	167.153280	-67.830940	-75.869556			
45097	7.270955	-0.157048	-2.468952	0.823426	-0.354061	-2.184860	166.764633	-67.859781	-75.451750			
45098	7.241042	0.223706	-2.323655	0.461068	-0.487138	-2.234285	166.388062	-67.839586	-75.051323			
45099	7.451339	0.454314	-1.914994	0.273691	-0.952338	-2.169771	166.011661	-67.796087	-74.683499			
45100	7.637033	0.791647	-1.393681	-0.021921	-1.519599	-2.158693	165.659491	-67.747102	-74.373864			
45101	7.736154	0.924116	-0.947085	-0.125217	-1.979577	-2.218966	165.341995	-67.678268	-74.144820			
45102	7.878246	0.967851	-1.037729	-0.139814	-1.953271	-2.050887	165.076648	-67.612046	-73.979023			
45103	7.913655	1.085545	-1.129687	-0.242158	-1.891621	-1.974087	164.909327	-67.530494	-73.902313			
45104	8.259424	1.043657	-1.383370	-0.156051	-1.793378	-1.567662	164.851346	-67.403200	-73.939379			
45105	8.906887	1.188473	-1.737059	-0.226783	-1.732277	-0.828802	164.937981	-67.213319	-74.112196			
45106	9.803132	1.284642	-2.168605	-0.226360	-1.703271	0.162384	165.085222	-66.994575	-74.396510			
45107	10.770832	1.103373	-2.691076	0.054591	-1.618794	1.225724	165.253880	-66.784603	-74.758844			
45108	11.791262	0.991089	-2.907850	0.265828	-1.842827	2.229112	165.389930	-66.623500	-75.133672			
45109	12.728239	0.910220	-2.941331	0.429444	-2.198680	3.089611	165.501139	-66.544033	-75.501120			
45110	13.231505	0.864880	-2.776754	0.501546	-2.556534	3.481809	165.659518	-66.549045	-75.870732			
45111	13.274926	1.037114	-2.618956	0.302611	-2.718640	3.479247	165.887459	-66.622507	-76.232164			
45112	12.668266	0.533636	-2.880384	0.720573	-2.218190	2.978974	166.121087	-66.774243	-76.575113			
45113	12.233486	0.450996	-3.153417	0.735380	-1.770650	2.682489	166.407735	-66.946183	-76.970057			
45114	12.508290	0.971551	-3.554228	0.213660	-1.481686	3.140788	166.744684	-67.097110	-77.439724			
45115	12.828716	1.625934	-4.115086	-0.436794	-1.061528	3.708987	167.100870	-67.238635	-77.994877			
45116	12.902257	1.670748	-4.606371	-0.501782	-0.597346	3.966622	167.397309	-67.451884	-78.545233			
45117	12.038819	0.587375	-5.282382	0.499316	0.405769	3.331411	167.629212	-67.769925	-79.015526			
45118	10.789551	-0.400285	-5.665684	1.377274	1.279677	2.234710	167.883298	-68.090233	-79.371502			
45119	10.015217	-1.013125	-6.177145	1.925639	2.075500	1.653445	168.194886	-68.243990	-79.652387			
45120	10.178507	-1.570704	-6.726941	2.485525	2.518195	1.968720	168.596444	-68.095129	-79.977274			
45121	10.650066	-2.462420	-7.463008	3.406117	2.949959	2.632349	169.098642	-67.611463	-80.393885			
45122	11.099625	-3.091546	-8.413558	4.067548	3.526589	3.399554	169.676137	-66.953040	-80.851828			
45123	11.663679	-2.042961	-8.392367	3.016464	3.142038	4.031920	170.367738	-66.324729	-81.372995			
45124	11.470093	-0.809766	-8.306705	1.722863	3.028090	3.938012	170.969095	-66.020152	-81.869191			
45125	10.019491	0.057381	-8.302119	0.718712	3.580667	2.676532	171.554843	-66.149740	-82.319714			
45126	8.402611	1.239618	-7.947030	-0.627047	3.950339	1.109603	172.255502	-66.568901	-82.740945			
45127	7.143082	2.212124	-7.495377	-1.752657	4.095700	-0.207996	173.056017	-67.046525	-83.136226			
45128	6.438180	3.228672	-6.832473	-2.888343	3.807289	-1.111061	173.738567	-67.558851	-83.385843			
45129	6.571266	3.666135	-5.914338	-3.379765	2.952555	-1.359249	174.044736	-68.041837	-83.348697			
45130	7.255193	3.568630	-4.931276	-3.273191	1.843520	-1.119141	173.904912	-68.513300	-83.028517			
45131	7.419681	2.858664	-4.048488	-2.542511	1.046610	-1.324250	173.286028	-69.018702	-82.421451			
45132	7.803884	1.628729	-3.243500	-1.256082	0.258843	-1.302204	172.258098	-69.410829	-81.605646			
45133	8.817750	0.658252	-2.558187	-0.178734	-0.658906	-0.633162	170.957085	-69.636434	-80.683814			
45134	9.675079	0.095042	-2.361109	0.499839	-1.091428	0.074143	169.495168	-69.743562	-79.747585			
45135	9.252899	-0.038402	-2.152795	0.680198	-1.115143	-0.402833	167.853633	-69.836521	-78.758188			
45136	8.551223	-0.322690	-2.282727	0.996448	-0.741065	-1.043660	166.286850	-69.818869	-77.824003			
45137	8.026341	-0.091426	-2.787400	0.818919	-0.091371	-1.355695	165.019999	-69.652577	-76.999062			
45138	7.488980	0.414259	-3.409143	0.367069	0.667608	-1.609156	163.996858	-69.433771	-76.265231			
45139	6.890941	0.590475	-4.306275	0.244223	1.700530	-1.848639	163.175511	-69.245769	-75.585899			
45140	6.196932	0.580158	-4.723577	0.255349	2.317021	-2.355016	162.586037	-69.101822	-74.958897			
45141	5.760515	0.561672	-5.005718	0.266628	2.718779	-2.664726	162.288178	-68.939607	-74.425286			
45142	6.063708	0.722909	-5.258150	0.146328	2.838801	-2.272193	162.209373	-68.806330	-73.937448			
45143	6.580716	1.155534	-4.945324	-0.261708	2.358355	-1.846073	162.216612	-68.756705	-73.483038			
45144	7.015710	1.396058	-4.391169	-0.493399	1.688967	-1.605651	162.142298	-68.849712	-72.987167			
45145	7.197158	1.636278	-3.540268	-0.749876	0.844312	-1.704990	161.936718	-69.053113	-72.425432			
45146	7.187783	2.002952	-2.678572	-1.138094	0.062094	-1.967204	161.587140	-69.295454	-71.822011			
45147	7.645204	2.157826	-2.013669	-1.245638	-0.690938	-1.742302	161.101903	-69.468335	-71.213385			
45148	8.232863	2.116146	-2.072494	-1.115810	-0.802343	-1.171829	160.502987	-69.598887	-70.567606			
45149	7.869469	2.186327	-2.257582	-1.197330	-0.482661	-1.437811	159.801019	-69.713364	-69.849885			
45150	7.582774	2.132105	-2.516552	-1.141566	-0.122693	-1.623730	159.069060	-69.730944	-69.144043			
45151	7.654847	2.034347	-2.622992	-1.000131	-0.036980	-1.529354	158.454758	-69.643119	-68.527125			
45152	7.964018	1.984975	-2.604448	-0.880440	-0.160674	-1.248355	158.006410	-69.493451	-68.048085			
45153	8.360700	1.843013	-2.613842	-0.660269	-0.291977	-0.890306	157.698321	-69.348873	-67.691978			
45154	8.664353	1.642680	-2.397014	-0.405206	-0.604119	-0.703028	157.496394	-69.251285	-67.434680			
45155	8.849420	1.618078	-2.161069	-0.348723	-0.895101	-0.610633	157.437655	-69.209734	-67.286269			
45156	9.208141	1.659873	-2.125818	-0.339579	-1.049673	-0.281317	157.512165	-69.222047	-67.251596			
45157	9.214857	1.934715	-1.870944	-0.623385	-1.294836	-0.321011	157.670933	-69.329606	-67.273606			
45158	9.088654	2.314817	-1.634537	-1.036455	-1.470307	-0.464020	157.838191	-69.529652	-67.316345			
45159	8.554707	2.478623	-1.313224	-1.293457	-1.576026	-1.043759	157.900627	-69.819755	-67.304235			
45160	7.999330	2.359335	-1.085842	-1.268437	-1.570796	-1.648235	157.862515	-70.137525	-67.242049			
45161	7.487508	2.121068	-0.975503	-1.113067	-1.468920	-2.189267	157.748951	-70.411793	-67.146514			
45162	7.256268	1.984147	-0.958817	-1.014739	-1.379314	-2.425040	157.619343	-70.586261	-67.062277			
45163	7.374491	2.032453	-0.895981	-1.050744	-1.459338	-2.323827	157.522270	-70.661354	-67.011738			
45164	7.639581	2.215373	-0.804088	-1.198668	-1.625496	-2.077146	157.441337	-70.665235	-66.994402			
45165	7.821828	2.243677	-0.904155	-1.199892	-1.587359	-1.870828	157.405655	-70.614382	-67.023882			
45166	7.948566	2.169428	-1.125965	-1.104060	-1.420418	-1.693736	157.408374	-70.522090	-67.105615			
45167	8.269993	2.010479	-1.494369	-0.896423	-1.177382	-1.299279	157.454069	-70.409851	-67.244886			
45168	8.597217	1.798840	-1.836776	-0.636523	-0.961800	-0.913728	157.507433	-70.317073	-67.396118			
45169	9.108526	1.815070	-1.904645	-0.585316	-1.072001	-0.410794	157.631293	-70.214340	-67.609698			
45170	9.776348	1.908904	-1.886060	-0.595900	-1.319248	0.221383	157.808006	-70.108020	-67.868462			
45171	10.455182	1.876226	-2.106830	-0.476577	-1.343308	0.922216	157.973181	-70.011324	-68.114472			
45172	10.968531	2.158750	-2.076786	-0.696811	-1.558268	1.428671	158.112173	-69.933050	-68.297493			
45173	11.646219	2.119428	-1.903193	-0.578627	-1.953480	2.002457	158.185633	-69.871870	-68.389121			
45174	12.168480	2.182911	-1.775869	-0.576937	-2.250168	2.459012	158.171850	-69.859852	-68.318098			
45175	12.164104	2.088736	-1.985910	-0.470882	-2.045709	2.510681	158.027395	-69.882429	-68.065780			
45176	11.936526	1.772536	-2.612535	-0.154464	-1.365592	2.457566	157.725591	-69.876713	-67.623643			
45177	11.652208	1.268497	-3.471069	0.356791	-0.444795	2.398213	157.239913	-69.818301	-66.999564			
45178	11.653642	0.700346	-4.380713	0.982814	0.432524	2.610487	156.584355	-69.698943	-66.257430			
45179	12.240246	0.348329	-4.676796	1.481792	0.536367	3.200135	155.744794	-69.567076	-65.413396			
45180	12.628264	1.107783	-4.180199	0.851114	-0.067397	3.508155	154.801640	-69.518829	-64.470151			
45181	11.647453	2.573530	-4.246217	-0.676487	0.282984	2.827665	153.955045	-69.488505	-63.579417			
45182	10.714614	3.751839	-5.458924	-1.908514	1.696287	2.522590	153.390445	-69.363383	-62.959432			
45183	11.095014	4.820324	-6.555540	-2.839906	2.558268	3.404722	153.152478	-69.149078	-62.649446			
45184	11.611668	5.094787	-7.448389	-2.981127	3.185998	4.231109	153.136103	-68.924996	-62.551201			
45185	11.277120	5.286505	-7.817273	-3.204980	3.585534	4.083435	153.200091	-68.754370	-62.487857			
45186	10.261878	4.539529	-7.844528	-2.629113	3.936599	3.034141	153.087847	-68.672360	-62.313378			
45187	9.363479	3.540662	-6.922016	-1.794274	3.391091	1.737480	152.779512	-68.666325	-62.015247			
45188	8.409109	2.353077	-5.945602	-0.777580	2.836973	0.333598	152.283248	-68.688175	-61.610961			
45189	7.303294	1.102134	-5.263526	0.285450	2.605079	-1.129976	151.756584	-68.604941	-61.267159			
45190	6.842535	-0.432625	-5.306795	1.762067	2.835984	-1.811342	151.292725	-68.327584	-61.121902			
45191	7.069882	-1.869706	-5.450525	3.280316	2.901800	-1.812330	150.816086	-67.963335	-61.085016			
45192	8.183820	-2.340241	-4.983898	3.992891	2.052631	-1.030102	150.311541	-67.675343	-61.054973			
45193	8.843551	-2.658771	-4.682640	4.467457	1.513079	-0.595490	149.807523	-67.573404	-60.975488			
45194	8.881733	-2.507122	-4.628130	4.352810	1.435398	-0.561576	149.497189	-67.663119	-60.897667			
45195	9.047415	-1.537632	-4.575245	3.424292	1.342579	-0.240622	149.577980	-67.889351	-60.887124			
45196	9.490975	-0.289103	-4.739779	2.245193	1.383483	0.467013	150.009180	-68.212729	-60.921606			
45197	9.793971	0.334343	-4.578718	1.604324	1.177458	0.819203	150.702237	-68.612591	-61.005091			
45198	10.148195	0.770947	-4.120288	1.122726	0.674879	1.088679	151.712870	-69.039543	-61.182947			
45199	10.283515	1.353298	-3.932436	0.454622	0.476442	1.260306	152.955666	-69.446668	-61.475961			
45200	10.068494	1.779874	-3.974457	-0.120546	0.592116	1.140507	154.193333	-69.850492	-61.815502			
45201	9.677027	1.688735	-3.803583	-0.201237	0.581369	0.703229	155.308836	-70.234965	-62.200862			
45202	9.066900	1.284259	-3.645854	0.014276	0.671773	0.020833	156.276294	-70.580426	-62.612631			
45203	8.423303	1.138945	-3.623449	-0.011706	0.871985	-0.613894	157.115592	-70.808314	-63.086951			
45204	7.931451	1.188730	-3.837319	-0.193320	1.217080	-1.007732	157.813494	-70.861158	-63.649527			
45205	7.572192	1.187249	-4.030234	-0.278308	1.491416	-1.286925	158.290848	-70.778719	-64.240414			
45206	7.319373	1.023806	-3.983430	-0.153648	1.512317	-1.555670	158.586640	-70.603771	-64.815927			
45207	7.310231	0.923345	-3.726585	-0.035802	1.247940	-1.650535	158.822199	-70.368910	-65.379380			
45208	7.483701	0.769095	-3.493408	0.161432	0.948520	-1.574041	159.032105	-70.100476	-65.891064			
45209	7.704212	0.744547	-3.404271	0.228449	0.756782	-1.394062	159.287034	-69.844124	-66.363073			
45210	8.027713	0.859004	-3.405459	0.161305	0.610665	-1.073111	159.623149	-69.655295	-66.799773			
45211	8.112687	0.780486	-3.544554	0.238027	0.694335	-0.955492	160.009416	-69.587810	-67.209459			
45212	7.944453	0.724376	-3.374663	0.254559	0.581145	-1.174122	160.506057	-69.631025	-67.637323			
45213	7.559506	0.691488	-3.143701	0.210965	0.491165	-1.613829	161.107997	-69.773794	-68.105090			
45214	6.799628	0.531079	-2.810872	0.245314	0.442673	-2.453223	161.773794	-69.970323	-68.614932			
45215	6.015767	0.175974	-2.550936	0.472868	0.484594	-3.311214	162.470486	-70.155360	-69.171508			
45216	5.479512	-0.048810	-2.190802	0.615194	0.338568	-3.953174	163.108659	-70.276574	-69.732448			
45217	5.568015	-0.214834	-1.924776	0.778976	0.071023	-3.969586	163.655169	-70.297810	-70.279427			
45218	5.667122	-0.320053	-1.771324	0.886274	-0.104624	-3.933924	164.022186	-70.257911	-70.704295			
45219	5.860031	-0.460766	-1.521123	1.050717	-0.404976	-3.846277	164.199946	-70.136693	-70.972421			
45220	6.119016	-0.368023	-1.211389	1.000433	-0.806991	-3.697696	164.233882	-69.917117	-71.077542			
45221	6.776968	-0.565052	-1.425319	1.272085	-0.836237	-3.033271	164.152400	-69.575664	-71.055813			
45222	7.429006	-0.439524	-1.719175	1.230771	-0.825776	-2.319895	163.988749	-69.183940	-70.913696			
45223	8.073725	-0.155176	-1.968283	1.041636	-0.876854	-1.613352	163.777481	-68.783022	-70.702349			
45224	8.595664	0.152790	-2.146230	0.823515	-0.959361	-1.042496	163.530563	-68.416228	-70.441884			
45225	8.938803	0.549463	-2.351142	0.497708	-0.960803	-0.616988	163.282248	-68.101001	-70.177466			
45226	9.172190	0.933167	-2.543303	0.171253	-0.929075	-0.295567	163.027360	-67.854646	-69.922555			
45227	9.425045	1.047038	-2.594842	0.118672	-1.007468	-0.033537	162.727574	-67.666074	-69.657323			
45228	9.877520	0.982454	-2.500406	0.273841	-1.268863	0.341011	162.378849	-67.551836	-69.374646			
45229	10.249507	0.818374	-2.204414	0.521757	-1.669262	0.556635	161.982398	-67.516224	-69.055936			
45230	10.518190	0.462109	-1.891202	0.945026	-2.021209	0.648865	161.546328	-67.547227	-68.689255			
45231	10.613957	0.212428	-1.672123	1.234535	-2.222994	0.629120	161.130532	-67.611331	-68.303666			
45232	10.493027	0.144097	-1.708125	1.305499	-2.119961	0.523823	160.768878	-67.680685	-67.934568			
45233	10.199547	0.203502	-1.928234	1.216721	-1.797637	0.340062	160.522475	-67.723613	-67.649050			
45234	9.939796	0.252201	-2.135242	1.136962	-1.508923	0.179954	160.453741	-67.710069	-67.511108			
45235	9.878018	0.229066	-2.283585	1.149653	-1.354145	0.171652	160.609400	-67.630944	-67.566911			
45236	10.131365	0.117496	-2.474140	1.286224	-1.277988	0.458245	160.935144	-67.500873	-67.751380			
45237	10.490661	-0.005285	-2.550554	1.445036	-1.350458	0.800861	161.325427	-67.400957	-67.987238			
45238	10.940387	0.364778	-2.097318	1.139101	-1.980849	1.096140	161.713598	-67.380511	-68.255888			
45239	11.214883	0.242297	-1.676338	1.288206	-2.460508	1.184073	162.004392	-67.495996	-68.532273			
45240	11.462288	0.493574	-1.081089	1.061140	-3.098640	1.235778	162.287809	-67.745359	-68.823581			
45241	11.330514	0.727236	-0.913687	0.775315	-3.182860	1.096579	162.604453	-68.086997	-69.144357			
45242	10.852216	0.847130	-1.497744	0.525013	-2.426557	0.890918	162.966361	-68.453846	-69.496354			
45243	10.689740	1.629894	-2.245484	-0.349191	-1.689688	1.095658	163.515881	-68.712866	-69.948610			
45244	11.148402	2.484893	-3.103295	-1.225694	-1.093060	1.908860	164.172001	-68.823429	-70.514639			
45245	11.951606	2.614672	-3.554855	-1.326768	-0.961341	2.821777	164.805089	-68.810862	-71.152366			
45246	12.637738	2.060996	-3.753649	-0.748317	-0.990980	3.472936	165.345716	-68.719543	-71.741460			
45247	12.472316	0.754696	-4.544011	0.464306	-0.130063	3.474282	165.796350	-68.573451	-72.192853			
45248	11.681490	-0.024265	-5.266669	1.097215	0.830747	2.927064	166.205336	-68.340834	-72.488644			
45249	11.119852	-0.550049	-6.047956	1.514298	1.727227	2.647425	166.495989	-67.951718	-72.712930			
45250	11.166273	-1.786885	-7.455977	2.701537	3.008932	3.114667	166.644653	-67.342509	-72.939531			
45251	11.862930	-2.262275	-8.667071	3.238497	3.743932	4.203613	166.857760	-66.540338	-73.218190			
45252	12.567032	-1.825651	-9.494379	2.890708	4.009920	5.252763	167.079611	-65.835678	-73.452532			
45253	12.245143	-1.173231	-9.470796	2.230517	3.933484	5.038846	167.144441	-65.571941	-73.547920			
45254	10.741361	-0.794166	-8.928634	1.701218	3.984770	3.489771	167.164398	-65.718916	-73.576653			
45255	9.277854	0.138191	-8.074298	0.608214	3.746488	1.887116	167.450955	-66.017536	-73.697576			
45256	8.660752	1.172901	-7.660091	-0.535178	3.573256	1.232944	168.004664	-66.370942	-73.930312			
45257	7.961236	2.454419	-7.209799	-1.946866	3.375502	0.492707	168.646555	-66.899736	-74.184809			
45258	6.314288	3.365393	-6.362364	-3.062934	3.209516	-1.327891	169.171839	-67.685362	-74.369531			
45259	4.274003	3.800365	-5.466119	-3.712214	3.162654	-3.583374	169.576106	-68.553806	-74.497900			
45260	2.763594	3.919084	-4.841423	-3.977184	3.155838	-5.267548	169.878696	-69.235709	-74.607268			
45261	3.108700	3.982200	-4.183178	-3.980609	2.442598	-5.207331	170.109376	-69.476322	-74.789890			
45262	5.022442	3.585563	-3.125036	-3.333451	0.858613	-3.812861	170.051977	-69.447504	-74.942236			
45263	6.279225	2.275994	-2.237836	-1.844428	-0.255592	-3.019349	169.715778	-69.425750	-74.998788			
45264	6.459272	1.211142	-1.642434	-0.718117	-0.768362	-3.120859	169.341927	-69.343960	-75.013026			
45265	6.871495	1.043585	-1.716165	-0.502370	-0.839334	-2.720805	168.971506	-69.052864	-75.047241			
45266	7.937521	0.706350	-2.659346	-0.087405	-0.340784	-1.419172	168.458499	-68.589890	-75.097689			
45267	8.559199	-0.114711	-3.794689	0.792670	0.490103	-0.495856	167.825677	-68.083615	-75.120589			
45268	8.744406	-0.603741	-4.751768	1.335122	1.261862	-0.013066	167.262574	-67.573216	-75.108631			
45269	8.896659	-0.590733	-5.528293	1.387929	1.837849	0.422377	166.849764	-67.068908	-75.080163			
45270	9.191187	-0.652034	-6.156630	1.526229	2.227077	0.935205	166.588753	-66.625919	-75.031876			
45271	9.542919	-0.503204	-6.428784	1.446610	2.270698	1.385562	166.499316	-66.347910	-74.954902			
45272	9.680124	-0.330695	-6.287034	1.299555	2.049456	1.476770	166.509599	-66.286426	-74.833949			
45273	9.467122	-0.291061	-5.969371	1.228032	1.846939	1.161152	166.612537	-66.419431	-74.691508			
45274	8.601562	0.204461	-5.205412	0.625497	1.491646	0.112452	166.767388	-66.728379	-74.488845			
45275	8.286938	0.405176	-4.542093	0.371979	1.040896	-0.418757	166.932586	-67.075137	-74.256207			
45276	8.049503	0.837258	-3.941736	-0.096031	0.599228	-0.831361	167.040870	-67.420365	-73.948928			
45277	7.834092	1.285077	-3.526616	-0.570086	0.308015	-1.150044	167.024670	-67.734191	-73.551445			
45278	7.801655	1.662285	-3.170859	-0.940619	-0.001142	-1.280484	166.803143	-67.984160	-73.039808			
45279	7.921900	1.905009	-2.759728	-1.140901	-0.414968	-1.296368	166.357201	-68.167196	-72.410328			
45280	7.998475	2.007587	-2.475480	-1.197545	-0.687276	-1.314016	165.719670	-68.301173	-71.691929			
45281	7.905105	2.094021	-2.232863	-1.250840	-0.863821	-1.473001	164.991416	-68.380028	-70.954381			
45282	7.863023	2.201350	-2.149320	-1.322897	-0.918114	-1.524170	164.258083	-68.391720	-70.265628			
45283	8.170084	2.053709	-2.223779	-1.105590	-0.933516	-1.220872	163.619405	-68.323820	-69.700186			
45284	8.548514	2.172716	-2.203107	-1.140202	-1.096993	-0.860150	163.162842	-68.199116	-69.282012			
45285	8.717360	2.129326	-2.333716	-1.051849	-1.041612	-0.659480	162.835173	-68.058864	-68.969607			
45286	8.826381	1.949441	-2.471289	-0.842058	-0.949718	-0.528210	162.629213	-67.936063	-68.741442			
45287	8.746096	2.218383	-2.419536	-1.101307	-1.008380	-0.590983	162.543908	-67.835037	-68.592892			
45288	8.628084	2.104980	-2.556037	-1.001554	-0.840695	-0.664015	162.484342	-67.777182	-68.494193			
45289	8.662486	2.113753	-2.488564	-0.997157	-0.921824	-0.655424	162.449155	-67.758647	-68.440674			
45290	8.448505	2.003835	-2.437279	-0.913736	-0.882996	-0.884175	162.402650	-67.781019	-68.419057			
45291	8.585774	1.874960	-2.294131	-0.761152	-1.046793	-0.822754	162.354190	-67.821057	-68.468607			
45292	8.542342	1.799130	-2.121276	-0.687959	-1.173649	-0.932511	162.291291	-67.910641	-68.563201			
45293	8.269511	1.889871	-1.932142	-0.814005	-1.243894	-1.240658	162.223978	-68.031333	-68.709450			
45294	8.070415	2.072546	-1.603522	-1.018282	-1.470408	-1.518157	162.082633	-68.197997	-68.864634			
45295	7.973456	2.233271	-1.267591	-1.189390	-1.729928	-1.703257	161.878304	-68.392418	-69.012520			
45296	7.654155	2.256963	-1.075869	-1.259201	-1.764605	-2.057823	161.631592	-68.590266	-69.115006			
45297	7.684294	2.278207	-0.923433	-1.281173	-1.886663	-2.073802	161.426244	-68.734521	-69.230443			
45298	7.680579	2.230291	-0.966068	-1.241872	-1.816989	-2.063169	161.271046	-68.843367	-69.352664			
45299	7.693737	2.273471	-1.125983	-1.291199	-1.656483	-1.988433	161.215061	-68.888697	-69.532022			
45300	7.964593	2.033490	-1.468634	-1.027582	-1.405859	-1.646027	161.218750	-68.885043	-69.776782			
45301	8.188706	1.837870	-1.994882	-0.813570	-0.977819	-1.280736	161.307931	-68.850828	-70.092127			
45302	8.472058	1.596885	-2.500149	-0.547100	-0.594129	-0.872652	161.470997	-68.808079	-70.472086			
45303	8.751110	1.248238	-2.826956	-0.176894	-0.376492	-0.541298	161.706729	-68.785213	-70.886225			
45304	9.247792	0.827111	-2.835791	0.284746	-0.530039	-0.123238	161.987000	-68.787903	-71.295776			
45305	9.949651	0.522812	-2.590710	0.646732	-0.995389	0.413337	162.284349	-68.814416	-71.674013			
45306	10.619940	0.311789	-2.323736	0.908422	-1.468572	0.925009	162.547519	-68.875144	-71.965794			
45307	11.186242	0.100280	-1.921051	1.158145	-2.024480	1.295537	162.702358	-68.982846	-72.143358			
45308	11.549796	-0.290526	-1.851798	1.570919	-2.180837	1.575352	162.750926	-69.130669	-72.181614			
45309	11.830251	-0.332486	-1.895123	1.633731	-2.200440	1.855462	162.749224	-69.322556	-72.072445			
45310	11.725699	-0.360654	-2.355915	1.648071	-1.682076	1.918750	162.665495	-69.570627	-71.768058			
45311	11.535763	-0.169875	-2.969639	1.436476	-0.984256	1.972423	162.513878	-69.861603	-71.284395			
45312	11.438869	0.223214	-3.841807	1.030852	-0.069228	2.211830	162.197347	-70.193934	-70.569921			
45313	11.222515	0.736377	-4.649001	0.487312	0.824234	2.319206	161.738794	-70.553414	-69.661235			
45314	11.200905	2.242682	-5.213638	-1.023258	1.361869	2.627965	161.238439	-70.851129	-68.641815			
45315	11.646134	4.425078	-5.973746	-3.154157	1.853214	3.510836	160.698750	-71.005224	-67.563308			
45316	12.962487	6.899146	-6.602828	-5.441083	1.861446	5.225625	160.073702	-70.899279	-66.469096			
45317	15.022945	8.170366	-7.538437	-6.402698	1.953811	7.636043	159.351281	-70.585160	-65.398109			
45318	15.417138	7.726656	-8.707289	-5.866963	2.903520	8.362935	158.542086	-70.329256	-64.432017			
45319	13.696228	6.695110	-9.083021	-5.016493	3.846131	6.769040	157.731020	-70.166586	-63.734993			
45320	11.378481	5.777684	-8.784060	-4.339864	4.357870	4.406475	156.924579	-69.967564	-63.380098			
45321	9.009298	4.564746	-8.486484	-3.365610	4.920205	1.955370	156.018842	-69.690548	-63.247434			
45322	7.532292	3.313025	-7.918805	-2.193957	4.941832	0.246219	155.063432	-69.329470	-63.298814			
45323	6.478712	1.665800	-7.631618	-0.568812	5.096765	-1.055557	153.916671	-69.066357	-63.269294			
45324	5.501314	0.224567	-6.492477	0.830882	4.388070	-2.565618	152.571896	-69.014694	-63.062043			
45325	4.643755	-1.688848	-5.468502	2.663769	3.727943	-4.039744	151.080887	-69.212266	-62.685182			
45326	4.092932	-3.235471	-4.494945	4.126739	2.966741	-5.165870	149.895837	-69.588772	-62.403282			
45327	4.137244	-3.687981	-3.570618	4.550848	2.055528	-5.507821	149.495829	-70.093897	-62.581693			
45328	3.892592	-3.226983	-3.087586	4.015140	1.685456	-5.795639	150.067365	-70.707422	-63.392043			
45329	4.072583	-0.743938	-3.317298	1.571536	1.945206	-5.134015	151.755549	-71.067935	-64.845714			
45330	5.790826	2.919906	-3.171127	-1.890174	1.389240	-2.985391	153.971003	-70.942877	-66.620046			
45331	8.045527	3.739762	-3.803732	-2.440687	1.280831	-0.561383	155.498077	-70.807496	-68.052794			
45332	8.264328	2.955344	-3.387013	-1.730966	0.757981	-0.596735	156.813383	-70.819864	-69.044193			
45333	8.491319	3.951613	-2.847972	-2.799204	0.140492	-0.433332	158.534562	-70.741550	-70.040590			
45334	9.439578	4.849432	-3.929975	-3.627514	0.804912	0.876522	160.229014	-70.648957	-71.205690			
45335	9.479025	4.529350	-4.268976	-3.382343	1.062557	0.958626	161.546325	-70.655926	-72.431437			
45336	8.310557	3.591360	-4.658149	-2.609357	1.802903	-0.137863	162.337754	-70.758219	-73.672017			
45337	7.549160	2.252491	-5.173871	-1.328681	2.544245	-0.835282	162.649448	-70.734818	-74.976402			
45338	8.206389	1.392604	-5.065792	-0.375335	2.208929	-0.329767	162.548327	-70.540338	-76.214743			
45339	8.687954	0.635579	-4.621181	0.453531	1.557561	-0.086057	162.063107	-70.223793	-77.247136			
45340	8.874803	0.360389	-4.173680	0.776059	0.981640	-0.079009	161.358160	-69.762240	-78.142008			
45341	9.719689	0.293438	-4.241464	0.994330	0.646374	0.729617	160.659505	-69.179106	-79.008581			
45342	10.401461	0.591076	-4.720137	0.902962	0.772363	1.562989	160.072824	-68.675121	-79.891090			
45343	10.644405	0.479341	-5.123498	1.171647	0.940213	1.914447	159.685786	-68.354589	-80.871735			
45344	10.462656	-0.278462	-5.487532	2.017394	1.131963	1.776361	159.752597	-68.196237	-82.041232			
45345	10.256208	-0.643620	-5.798340	2.428538	1.361462	1.653487	160.390260	-68.143201	-83.405678			
45346	9.720213	-0.296974	-6.113228	2.101618	1.887419	1.321175	161.354688	-68.248811	-84.842050			
45347	8.896687	-0.082627	-5.749743	1.723704	1.918302	0.461846	162.408810	-68.518832	-86.288842			
45348	7.964261	0.034346	-4.727559	1.284699	1.399120	-0.747808	163.426461	-68.916471	-87.708074			
45349	7.306187	0.168338	-3.713955	0.847346	0.795493	-1.697821	164.355546	-69.296600	-89.113230			
45350	6.996696	0.179888	-3.093775	0.640011	0.384426	-2.196915	165.102887	-69.583130	-90.443319			
45351	7.209586	0.186127	-2.610499	0.477710	-0.102412	-2.158361	165.632206	-69.734576	-91.655789			
45352	7.295286	0.283632	-2.191116	0.245432	-0.475647	-2.208995	165.922268	-69.777763	-92.728048			
45353	7.364802	0.243593	-1.810330	0.154417	-0.858433	-2.275039	166.041603	-69.682905	-93.687556			
45354	7.447015	0.273995	-1.831723	0.111369	-0.881920	-2.190482	166.109880	-69.454710	-94.597632			
45355	7.743870	0.449973	-2.122458	0.008224	-0.714580	-1.802449	166.195129	-69.112201	-95.493684			
45356	8.015593	1.044299	-2.546161	-0.443815	-0.299218	-1.354762	166.349150	-68.727300	-96.415375			
45357	8.285278	1.643058	-2.963318	-0.895748	0.115670	-0.907027	166.551407	-68.340004	-97.384340			
45358	8.533595	1.998301	-3.409352	-1.100129	0.489032	-0.485868	166.733925	-67.985784	-98.370976			
45359	8.763983	2.351021	-3.920752	-1.264892	0.931686	-0.053644	166.856120	-67.682492	-99.346704			
45360	8.889665	2.735046	-4.041247	-1.582564	1.105674	0.142776	166.942188	-67.456320	-100.293932			
45361	8.799756	2.642808	-4.093092	-1.461060	1.140827	0.073532	166.891512	-67.322612	-101.127022			
45362	8.580205	2.283994	-3.926290	-1.159510	0.947741	-0.220526	166.644117	-67.292438	-101.784538			
45363	8.513179	1.855354	-3.535184	-0.891201	0.483438	-0.464639	166.168667	-67.310318	-102.268291			
45364	8.628408	1.359850	-3.141206	-0.583173	-0.087878	-0.548895	165.525536	-67.306437	-102.639935			
45365	8.769021	0.775119	-3.067209	-0.066699	-0.465320	-0.502306	164.740939	-67.258729	-102.929671			
45366	8.939625	0.287063	-3.250359	0.473167	-0.628074	-0.328726	163.870921	-67.176666	-103.196991			
45367	9.128280	-0.129338	-3.381987	0.921594	-0.833245	-0.156803	162.971628	-67.049756	-103.503634			
45368	9.392941	-0.501350	-3.717370	1.419311	-0.909524	0.160045	162.091659	-66.907014	-103.848994			
45369	9.552639	-0.669497	-4.348789	1.905815	-0.635288	0.510916	161.257997	-66.779745	-104.202515			
45370	9.804487	-0.773684	-4.775850	2.234980	-0.530048	0.876496	160.467223	-66.705566	-104.529538			
45371	10.067418	-0.888303	-4.955264	2.445336	-0.617904	1.157033	159.731328	-66.715580	-104.811524			
45372	9.628774	-0.476242	-4.809185	2.112607	-0.373504	0.745035	159.077645	-66.802038	-105.042064			
45373	9.030927	0.282711	-4.845388	1.618490	0.281996	0.307399	158.528416	-66.874286	-105.265472			
45374	8.828440	1.202951	-4.754324	0.882626	0.798196	0.216059	158.104381	-66.868890	-105.552629			
45375	9.079264	1.791181	-4.844137	0.470904	1.086137	0.565437	157.792127	-66.787109	-105.922950			
45376	9.422599	2.159692	-4.641410	0.046204	1.005718	0.863391	157.564167	-66.709451	-106.334629			
45377	9.334109	2.216386	-4.460763	-0.074851	0.932811	0.725842	157.360926	-66.698332	-106.736360			
45378	8.686519	2.328692	-4.316155	-0.154646	1.145902	0.095419	157.230005	-66.749544	-107.192371			
45379	8.027453	2.529955	-4.310041	-0.217987	1.520309	-0.482187	157.245654	-66.776878	-107.820861			
45380	7.827279	2.734343	-4.649614	-0.124886	1.958672	-0.511621	157.441169	-66.727594	-108.698384			
45381	8.028410	2.900299	-5.218863	0.090964	2.366640	-0.091867	157.807872	-66.592615	-109.844566			
45382	9.164132	2.879855	-5.612982	0.202699	2.173560	1.096709	158.279912	-66.395469	-111.217961			
45383	10.285486	3.062946	-5.680514	-0.069527	1.898076	2.180373	158.828367	-66.222343	-112.681486			
45384	10.335854	3.312028	-5.748848	-0.235515	2.085458	2.288719	159.393890	-66.140452	-114.134252			
45385	9.800081	3.410038	-5.788290	-0.202577	2.387229	1.824937	159.949172	-66.120282	-115.543828			
45386	8.900996	3.415509	-5.663656	-0.131318	2.665040	0.950707	160.449126	-66.176820	-116.880925			
45387	7.749956	3.458890	-5.545543	-0.013042	3.062703	-0.148405	160.858377	-66.246202	-118.141309			
45388	7.095679	3.936796	-5.179307	-0.442288	3.431630	-0.829347	161.194339	-66.231668	-119.384423			
45389	6.748847	4.103226	-5.180181	-0.440892	3.682395	-1.125743	161.330206	-66.151881	-120.560322			
45390	6.475305	4.135924	-5.085261	-0.412104	3.744361	-1.404071	161.286272	-66.046984	-121.684661			
45391	6.319065	4.036580	-4.859676	-0.401503	3.587046	-1.638807	161.061642	-65.936995	-122.760601			
45392	6.036806	3.703641	-4.824648	-0.067550	3.394751	-1.944549	160.721107	-65.821055	-123.837805			
45393	6.073451	3.466695	-4.741205	0.093981	3.125843	-1.963905	160.350032	-65.647386	-124.967974			
45394	6.205398	3.368440	-4.894956	0.323031	3.043698	-1.784938	159.970795	-65.454569	-126.152519			
45395	6.122296	3.508113	-5.109126	0.517908	3.241725	-1.743325	159.558228	-65.265660	-127.335775			
45396	6.098588	3.664281	-5.204090	0.608033	3.369692	-1.690084	159.104261	-65.072641	-128.520646			
45397	6.209422	3.584789	-5.263259	0.764673	3.233674	-1.562408	158.644049	-64.862722	-129.709414			
45398	6.637404	3.396553	-5.182916	0.762430	2.837831	-1.220894	158.256349	-64.632511	-130.955411			
45399	7.399139	3.156338	-4.998746	0.575848	2.249650	-0.630960	157.937824	-64.380501	-132.282763			
45400	7.777975	2.828062	-4.907066	0.583216	1.749944	-0.369631	157.703239	-64.149393	-133.686686			
45401	7.971350	2.303403	-5.026960	0.878817	1.207287	-0.226851	157.568727	-63.920300	-135.153573			
45402	8.341201	2.014793	-5.121276	0.963178	0.806845	0.101117	157.601822	-63.661893	-136.726227			
45403	8.957884	1.931079	-5.326498	0.950232	0.549248	0.729581	157.770689	-63.368576	-138.390868			
45404	9.551794	1.931390	-5.468875	0.832991	0.365529	1.324988	158.051896	-63.078998	-140.141865			
45405	10.081828	2.083357	-5.605432	0.664291	0.352567	1.885117	158.423035	-62.807472	-141.950183			
45406	10.475840	2.467984	-5.653200	0.394041	0.597454	2.323229	158.833172	-62.609688	-143.770656			
45407	10.306777	2.744687	-5.681633	0.375345	0.912018	2.231865	159.178727	-62.538078	-145.512682			
45408	9.883083	2.902101	-5.511850	0.349785	1.157082	1.806984	159.475663	-62.584916	-147.180827			
45409	9.322452	3.056684	-5.190459	0.275345	1.417043	1.192232	159.728996	-62.717960	-148.775527			
45410	8.698658	3.152795	-4.803263	0.204430	1.631649	0.481664	159.929127	-62.904489	-150.322177			
