// General information: 
//  MT Manager version: 2022.0.0 
//  XDA version: 2022.0.0 build 7085 rev 119802 built on 2022-11-08
// Device information: 
//  DeviceId: 00B4938D
//  ProductCode: MTW2-3A7G6
//  Firmware Version: 4.6.0
//  Hardware Version: 2.0.0
// Device settings: 
//  Filter Profile: human(46.1)
//  Option Flags: Orientation Smoother Disabled, Position/Velocity Smoother Disabled, Continuous Zero Rotation Update Disabled, AHS Disabled, ICC Disabled
// Coordinate system: ENU
PacketCounter	Acc_X	Acc_Y	Acc_Z	FreeAcc_E	FreeAcc_N	FreeAcc_U	Roll	Pitch	Yaw	Vel_E	Vel_N	Vel_U
44365	9.136604	-2.099612	0.423550	-0.442721	0.095979	-0.439318	-68.697808	-75.410955	-136.262310			
44366	9.229421	-2.022047	0.373753	-0.535766	0.014211	-0.372174	-69.032096	-75.330082	-135.986726			
44367	9.290947	-2.050786	0.503470	-0.415157	-0.047774	-0.293958	-69.499009	-75.261253	-135.584616			
44368	9.476230	-2.031640	0.476281	-0.476321	-0.108104	-0.121727	-69.988219	-75.187393	-135.155986			
44369	9.668168	-2.033058	0.345323	-0.620169	-0.109792	0.052875	-70.530912	-75.112073	-134.659964			
44370	9.746302	-1.979195	0.149835	-0.826933	-0.112134	0.098600	-70.993356	-75.017952	-134.241244			
44371	9.688757	-2.020307	0.035796	-0.898216	-0.041651	0.043597	-71.439072	-74.920535	-133.843627			
44372	9.687299	-2.106085	0.071833	-0.831468	-0.004093	0.066236	-71.738583	-74.825528	-133.588412			
44373	9.589605	-2.165317	0.202399	-0.674906	-0.009244	-0.002770	-71.920008	-74.735841	-133.450603			
44374	9.280519	-2.116481	0.053523	-0.778835	0.058420	-0.325834	-71.998202	-74.653822	-133.436468			
44375	9.148557	-2.201017	0.046318	-0.731082	0.150088	-0.432618	-72.110168	-74.590497	-133.394641			
44376	9.099236	-2.165508	0.121224	-0.673131	0.087292	-0.483192	-72.201698	-74.546158	-133.359411			
44377	9.230172	-2.256368	0.169337	-0.615722	0.112872	-0.329856	-72.361064	-74.524003	-133.244112			
44378	9.363437	-2.319571	0.263745	-0.527711	0.095342	-0.177525	-72.489305	-74.517400	-133.129525			
44379	9.490014	-2.352210	0.181270	-0.604933	0.130607	-0.053430	-72.673374	-74.527454	-132.944559			
44380	9.619006	-2.319409	0.163366	-0.652780	0.081320	0.061465	-72.782151	-74.536302	-132.801228			
44381	9.652404	-2.222872	0.253297	-0.612229	-0.052153	0.076533	-72.874383	-74.548382	-132.648137			
44382	9.646894	-2.204087	0.351737	-0.529024	-0.110882	0.074280	-72.858121	-74.557884	-132.580663			
44383	9.763128	-2.157124	0.496198	-0.438052	-0.236148	0.185833	-72.797807	-74.577156	-132.547741			
44384	9.718165	-2.160372	0.591573	-0.345196	-0.259978	0.150903	-72.627007	-74.599115	-132.637428			
44385	9.814170	-2.199412	0.704004	-0.246992	-0.284865	0.262470	-72.453063	-74.635816	-132.728336			
44386	9.978984	-2.280511	0.778546	-0.181266	-0.265181	0.448102	-72.151786	-74.675381	-132.950856			
44387	10.094793	-2.379392	0.870267	-0.085443	-0.224606	0.592405	-71.792020	-74.716677	-133.234685			
44388	10.235874	-2.561204	0.838466	-0.078523	-0.058150	0.771561	-71.276448	-74.745959	-133.677903			
44389	10.321870	-2.703985	0.944380	0.042010	0.028108	0.899070	-70.653680	-74.766501	-134.232110			
44390	10.392181	-2.989742	1.150882	0.302601	0.205778	1.055913	-69.813148	-74.763741	-135.000950			
44391	10.353131	-3.387010	1.383082	0.642794	0.495637	1.137793	-68.820833	-74.742433	-135.933908			
44392	10.093608	-3.677302	1.358335	0.741640	0.845236	0.956892	-67.670218	-74.696467	-137.051023			
44393	9.592906	-3.828831	1.324610	0.824524	1.118056	0.507596	-66.522960	-74.645502	-138.188672			
44394	9.043143	-3.817741	1.408818	0.961447	1.203395	-0.016485	-65.355788	-74.595275	-139.331978			
44395	8.495281	-3.685273	1.759175	1.295744	1.065865	-0.537426	-64.170046	-74.563805	-140.434498			
44396	8.076019	-3.523233	2.244387	1.715304	0.827527	-0.921952	-62.830577	-74.554419	-141.608741			
44397	7.942646	-3.297735	2.763772	2.087255	0.479438	-1.037024	-61.417891	-74.589952	-142.756027			
44398	8.244098	-2.976596	2.900579	1.991965	0.148363	-0.798904	-59.945854	-74.666942	-143.894508			
44399	9.128387	-2.778176	3.162782	1.940683	-0.203897	0.048374	-58.474591	-74.790167	-144.958856			
44400	10.184674	-2.596267	3.209521	1.667999	-0.462104	1.039630	-56.957454	-74.927159	-146.019453			
44401	11.191031	-2.353712	3.071145	1.223639	-0.684352	1.945066	-55.553930	-75.075426	-146.938140			
44402	11.817735	-1.883084	2.918382	0.768230	-1.053763	2.435604	-54.164797	-75.191908	-147.833744			
44403	11.995272	-1.291583	2.803838	0.408090	-1.496256	2.475945	-52.892872	-75.281385	-148.636268			
44404	11.936509	-0.873349	2.738272	0.203666	-1.777490	2.333909	-51.601494	-75.329376	-149.496635			
44405	11.844287	-0.540225	2.920655	0.260481	-2.072739	2.218301	-50.179360	-75.342112	-150.522973			
44406	11.558315	-0.237445	3.083407	0.341312	-2.303886	1.923302	-48.494203	-75.304096	-151.855824			
44407	11.280101	-0.117176	3.124960	0.363506	-2.323567	1.654137	-46.778644	-75.237701	-153.297083			
44408	11.024682	-0.224643	3.122418	0.405051	-2.124226	1.441939	-45.128781	-75.118012	-154.756006			
44409	10.525580	-0.175987	3.186175	0.510755	-2.079037	0.975582	-43.665389	-74.946093	-156.095997			
44410	9.758443	0.037009	3.111964	0.499527	-2.125594	0.194552	-42.403633	-74.722632	-157.281451			
44411	9.033548	0.200017	2.854134	0.334807	-2.084280	-0.575020	-41.455806	-74.489282	-158.202991			
44412	8.892667	0.286767	2.887361	0.323679	-2.142282	-0.713001	-40.698190	-74.261029	-158.956831			
44413	8.567716	0.334960	2.879162	0.340664	-2.137946	-1.030859	-40.051917	-74.047447	-159.587941			
44414	8.294604	0.413339	2.822181	0.294034	-2.151855	-1.314514	-39.452611	-73.834047	-160.176045			
44415	8.270486	0.376618	2.774783	0.233010	-2.087996	-1.337543	-38.943044	-73.646026	-160.684481			
44416	8.165413	0.301039	2.784253	0.256019	-2.000028	-1.419185	-38.406642	-73.427275	-161.232709			
44417	8.147937	0.126350	2.645788	0.151624	-1.778510	-1.433020	-37.948345	-73.213193	-161.730043			
44418	8.044442	0.003070	2.552491	0.095066	-1.613293	-1.529186	-37.504736	-72.991379	-162.213317			
44419	7.731713	-0.100593	2.681994	0.298013	-1.527944	-1.777821	-37.166696	-72.792434	-162.575230			
44420	7.502014	-0.117328	2.942625	0.574570	-1.577907	-1.930235	-36.874747	-72.617896	-162.859907			
44421	7.385199	-0.423887	3.173893	0.892146	-1.358485	-1.928969	-36.673906	-72.503580	-163.010277			
44422	7.585089	-0.526652	3.208788	0.883230	-1.285580	-1.708711	-36.419720	-72.423886	-163.165317			
44423	7.832522	-0.726891	3.035996	0.708010	-1.052468	-1.476917	-36.205693	-72.377116	-163.264756			
44424	8.020744	-0.934806	2.980832	0.659304	-0.845831	-1.272111	-35.969443	-72.335869	-163.354842			
44425	8.169684	-0.908234	3.076914	0.689967	-0.907426	-1.110013	-35.773405	-72.304164	-163.388573			
44426	7.925513	-0.936793	2.912208	0.614086	-0.794348	-1.376800	-35.580466	-72.263844	-163.410281			
44427	7.727555	-0.854403	2.723010	0.474992	-0.784266	-1.626162	-35.497190	-72.279821	-163.306326			
44428	7.762668	-0.670887	2.784064	0.473430	-0.973345	-1.609726	-35.451456	-72.349664	-163.133132			
44429	7.993314	-0.367151	2.843600	0.391685	-1.293557	-1.428943	-35.514416	-72.485456	-162.824375			
44430	8.206366	-0.028538	2.988561	0.392878	-1.672559	-1.249694	-35.588637	-72.643782	-162.469299			
44431	8.471315	0.278082	2.922441	0.206561	-1.961017	-1.066672	-35.779653	-72.832417	-161.986571			
44432	9.129808	0.302122	2.944337	0.076825	-2.050026	-0.436915	-36.036554	-73.025376	-161.434872			
44433	9.497652	0.383772	2.779310	-0.153456	-2.115133	-0.139026	-36.385444	-73.199362	-160.772690			
44434	9.631164	0.416224	2.395476	-0.511930	-2.050917	-0.106896	-36.773525	-73.326239	-160.072374			
44435	9.412416	0.582571	2.472519	-0.387452	-2.227146	-0.329235	-37.286713	-73.436751	-159.291484			
44436	9.019738	0.374729	2.530299	-0.140993	-2.025748	-0.659828	-37.858931	-73.527217	-158.477966			
44437	8.861942	0.489106	2.513308	-0.109528	-2.135447	-0.839523	-38.573877	-73.630233	-157.532875			
44438	8.818175	0.783749	2.626841	-0.031151	-2.467079	-0.913972	-39.310384	-73.725215	-156.569916			
44439	8.836504	0.714211	2.768132	0.151970	-2.469187	-0.860800	-40.142549	-73.822814	-155.543857			
44440	9.091523	0.753523	2.869801	0.209607	-2.590618	-0.609214	-40.960346	-73.906947	-154.553002			
44441	9.669705	0.510544	2.743592	0.044128	-2.422261	-0.044287	-41.827408	-73.980607	-153.515052			
44442	10.445476	0.250876	2.586382	-0.200718	-2.257673	0.709799	-42.568388	-73.999428	-152.623831			
44443	10.742563	0.014322	2.522965	-0.256320	-2.086373	1.020108	-43.186198	-73.948359	-151.888201			
44444	10.826535	-0.161767	2.325113	-0.418968	-1.905724	1.088633	-43.575916	-73.838215	-151.414007			
44445	10.740143	-0.207237	2.534332	-0.200058	-1.934593	1.051645	-43.777770	-73.693465	-151.128354			
44446	10.541605	-0.145930	2.947621	0.203134	-2.095046	0.929969	-43.747977	-73.534664	-151.050988			
44447	10.195545	0.181032	3.271518	0.497215	-2.457255	0.598815	-43.639644	-73.388846	-151.039924			
44448	9.860456	0.684467	3.696495	0.846338	-3.006236	0.267362	-43.410369	-73.274555	-151.139477			
44449	9.762640	1.294913	4.105457	1.106403	-3.680148	0.140859	-43.182719	-73.209597	-151.241558			
44450	9.680720	1.983020	4.293106	1.143214	-4.364914	-0.029026	-42.902053	-73.183641	-151.426148			
44451	9.911653	2.814827	4.546995	1.138117	-5.249232	0.086279	-42.776142	-73.203393	-151.536871			
44452	10.476249	2.976870	5.035248	1.415809	-5.605654	0.701085	-42.812935	-73.242674	-151.622149			
44453	11.077807	3.126399	5.669747	1.819424	-6.009206	1.377366	-43.097279	-73.284278	-151.603526			
44454	12.460841	1.962423	5.794784	1.836133	-5.147821	2.947860	-43.540074	-73.303860	-151.589865			
44455	14.211101	0.344697	4.650620	0.681913	-3.579236	4.693389	-44.204622	-73.255886	-151.479796			
44456	16.469910	-0.687867	2.039063	-2.103942	-2.224055	6.512614	-45.094817	-73.116336	-151.160173			
44457	16.778153	-0.917316	-0.078041	-4.134487	-1.501663	6.404716	-46.166952	-72.795268	-150.684558			
44458	12.827280	-1.500854	-0.703106	-3.603182	-0.265165	2.606329	-47.102651	-72.302084	-150.330220			
44459	9.123894	-3.342105	0.205231	-1.344982	1.661789	-0.331857	-47.736240	-71.747594	-150.164564			
44460	6.857344	-4.668433	2.850318	2.022855	2.339720	-1.604458	-47.780744	-71.223835	-150.415837			
44461	6.055612	-4.920240	5.241650	4.468516	1.868350	-1.756920	-47.644635	-70.853139	-150.762913			
44462	6.650971	-5.198702	6.818150	5.792362	1.473288	-0.755814	-47.701924	-70.713989	-150.860377			
44463	8.698514	-5.406932	6.598974	5.070438	1.383138	1.179262	-48.239681	-70.808536	-150.399802			
44464	11.096585	-6.044186	5.267747	3.404093	2.012016	3.293755	-49.154581	-71.072195	-149.425846			
44465	12.547536	-6.032136	3.092722	1.092998	2.464419	4.191716	-50.352633	-71.394083	-147.943041			
44466	12.206171	-5.422685	1.651471	-0.233491	2.401311	3.427487	-51.329736	-71.602794	-146.553822			
44467	10.779493	-4.909896	1.401037	-0.191041	2.218747	1.905163	-52.007979	-71.653114	-145.452513			
44468	9.252386	-4.288405	1.747433	0.363507	1.777836	0.373465	-52.374913	-71.604533	-144.714261			
44469	8.421367	-3.332349	2.186883	0.735034	0.882806	-0.566780	-52.759878	-71.569735	-143.998318			
44470	7.728327	-2.701836	2.004559	0.589640	0.463924	-1.417316	-53.337230	-71.593664	-143.186980			
44471	8.034319	-2.236579	1.825917	0.257133	0.003726	-1.279211	-54.295607	-71.697402	-142.043810			
44472	8.384568	-1.968860	1.087853	-0.545707	-0.120904	-1.149655	-55.383454	-71.804188	-140.828607			
44473	8.286340	-2.146786	0.288072	-1.183544	0.267190	-1.334322	-56.546808	-71.886630	-139.559060			
44474	8.785724	-2.335433	0.325913	-1.178628	0.294808	-0.797530	-57.650106	-71.938073	-138.373494			
44475	8.878302	-2.449388	0.400925	-1.064727	0.322225	-0.661358	-58.606986	-71.936605	-137.424488			
44476	8.818856	-2.635274	0.449426	-0.932063	0.461763	-0.656445	-59.413956	-71.915358	-136.777956			
44477	8.853967	-2.781756	0.703594	-0.636532	0.486541	-0.539936	-60.195927	-71.909650	-136.261098			
44478	8.907619	-2.860922	1.166355	-0.163862	0.385982	-0.393825	-60.924077	-71.941229	-135.859359			
44479	8.949143	-3.101475	1.050389	-0.183391	0.613768	-0.304842	-61.718423	-72.014895	-135.409471			
44480	8.676331	-3.171268	0.797394	-0.303399	0.801420	-0.580297	-62.403340	-72.115338	-135.034261			
44481	8.226662	-3.476380	0.613158	-0.257820	1.229353	-0.949208	-62.991796	-72.227036	-134.681321			
44482	8.309067	-4.172866	0.302402	-0.341786	1.951523	-0.723161	-63.412017	-72.361547	-134.414813			
44483	7.870338	-3.846272	0.368952	-0.247439	1.727293	-1.220403	-63.654936	-72.488856	-134.250053			
44484	7.277482	-3.914527	0.416030	-0.041491	1.910825	-1.762511	-63.739717	-72.597826	-134.211978			
44485	7.118185	-3.435334	0.694680	0.135075	1.420061	-2.007701	-63.944540	-72.720020	-133.970817			
44486	7.351245	-2.988229	0.808032	0.086891	0.926702	-1.890764	-64.304963	-72.853031	-133.527568			
44487	7.933634	-2.543633	0.918406	-0.023674	0.356184	-1.438407	-64.921001	-72.997005	-132.825829			
44488	8.260233	-2.177408	0.682971	-0.377183	0.018468	-1.251363	-65.652227	-73.132817	-131.998476			
44489	8.684744	-1.948515	0.544627	-0.614484	-0.251470	-0.920155	-66.467253	-73.241155	-131.105836			
44490	9.243773	-1.581972	0.452601	-0.871430	-0.696194	-0.490102	-67.236571	-73.316325	-130.285848			
44491	9.811871	-1.302002	0.231733	-1.228503	-1.026942	-0.042437	-67.923116	-73.354563	-129.608126			
44492	9.853121	-1.133605	0.142712	-1.344957	-1.176690	-0.055850	-68.319938	-73.359056	-129.284770			
44493	9.423071	-1.099114	0.109638	-1.297487	-1.111867	-0.480238	-68.552983	-73.344650	-129.163093			
44494	9.268872	-1.174553	0.077436	-1.278004	-1.000096	-0.611379	-68.588826	-73.334064	-129.260869			
44495	8.669221	-1.324261	-0.179442	-1.371946	-0.645665	-1.173119	-68.534109	-73.320431	-129.473943			
44496	8.425471	-1.423329	-0.026076	-1.162033	-0.543813	-1.364667	-68.356661	-73.310513	-129.796398			
44497	8.659057	-1.396903	0.552366	-0.676650	-0.800769	-1.087058	-68.176455	-73.305360	-130.137440			
44498	8.903735	-1.325711	0.805859	-0.516744	-0.994914	-0.844604	-67.901600	-73.287935	-130.600282			
44499	9.312332	-1.275606	0.998561	-0.444019	-1.188058	-0.445983	-67.624157	-73.240667	-131.123611			
44500	9.471389	-1.004606	1.112430	-0.472989	-1.504540	-0.354013	-67.283368	-73.159147	-131.762623			
44501	9.375213	-0.997912	1.097212	-0.502605	-1.484960	-0.451251	-66.957934	-73.027230	-132.450011			
44502	9.159092	-1.094224	0.933527	-0.620572	-1.297303	-0.653564	-66.639187	-72.856696	-133.139351			
44503	8.840039	-1.247915	0.718368	-0.745668	-1.021888	-0.945939	-66.395337	-72.648228	-133.764543			
44504	8.157845	-1.529326	0.195522	-1.035369	-0.443387	-1.587189	-66.235185	-72.408127	-134.304613			
44505	7.908421	-1.462532	-0.038863	-1.248922	-0.380582	-1.876762	-66.266156	-72.157853	-134.632179			
44506	8.031404	-1.575427	0.036725	-1.193257	-0.353058	-1.723301	-66.405833	-71.913040	-134.803687			
44507	8.607844	-1.606616	0.184104	-1.193890	-0.532790	-1.152390	-66.616441	-71.684154	-134.812224			
44508	9.014745	-1.844546	0.338199	-1.084486	-0.495221	-0.682469	-66.759733	-71.458231	-134.822692			
44509	9.043595	-1.882061	0.619206	-0.842298	-0.603450	-0.612771	-66.841701	-71.244795	-134.790525			
44510	9.198916	-2.023472	0.573037	-0.894487	-0.519229	-0.433291	-66.864508	-71.049022	-134.746373			
44511	9.231632	-1.889439	0.622058	-0.924041	-0.689107	-0.439793	-66.814447	-70.851688	-134.734030			
44512	9.439135	-1.767659	0.416132	-1.227635	-0.786721	-0.311691	-66.641957	-70.653590	-134.844843			
44513	9.396041	-1.415336	0.385867	-1.393937	-1.095144	-0.469501	-66.310120	-70.445141	-135.159095			
44514	9.276472	-1.231746	0.542045	-1.322636	-1.296899	-0.623972	-65.858146	-70.249479	-135.675154			
44515	9.153873	-1.244344	0.722772	-1.162182	-1.328517	-0.716070	-65.498527	-70.085241	-136.173804			
44516	9.382895	-1.643237	0.697149	-1.141564	-1.017179	-0.384692	-65.280378	-69.965866	-136.570475			
44517	9.607083	-2.124789	0.777234	-0.984279	-0.676427	-0.015316	-65.245257	-69.878865	-136.774178			
44518	9.850070	-2.477227	0.688099	-1.017293	-0.390313	0.308912	-65.312080	-69.839929	-136.823369			
44519	10.188679	-3.053226	0.749745	-0.850669	0.010269	0.816035	-65.462113	-69.839323	-136.717575			
44520	10.511586	-3.472099	1.280066	-0.302742	0.095982	1.326729	-65.491619	-69.883775	-136.599648			
44521	11.166502	-3.582504	1.357162	-0.351163	0.016459	1.987457	-65.430530	-69.957180	-136.510542			
44522	12.033764	-3.551404	1.707330	-0.253176	-0.333049	2.842899	-65.221875	-70.047325	-136.613683			
44523	12.840648	-3.671440	1.838657	-0.285571	-0.442170	3.658216	-65.090534	-70.157857	-136.755001			
44524	13.680758	-3.938571	2.091096	-0.156540	-0.472583	4.567863	-65.117629	-70.296384	-136.875180			
44525	14.343266	-4.841983	1.952379	-0.101397	0.249528	5.448802	-65.446319	-70.471051	-136.863038			
44526	14.706551	-5.709179	0.717367	-0.939678	1.435718	5.885941	-66.116991	-70.706022	-136.539604			
44527	14.525653	-6.023887	-0.824933	-2.080075	2.377031	5.614052	-66.955151	-70.944948	-136.080631			
44528	14.160661	-6.372523	-1.306531	-2.199017	2.968671	5.326361	-67.729999	-71.161926	-135.668465			
44529	13.464039	-6.816068	-1.074829	-1.572655	3.423673	4.839923	-68.384144	-71.333265	-135.341024			
44530	12.185954	-7.502035	-0.961169	-0.855894	4.272287	3.851741	-68.728359	-71.458003	-135.247448			
44531	10.256683	-7.732784	-0.785313	-0.132027	4.844135	2.109101	-68.705076	-71.566568	-135.448853			
44532	8.373217	-7.447727	0.059327	0.966905	4.678527	0.324339	-68.313773	-71.696372	-135.982367			
44533	6.672842	-7.366092	1.279492	2.429795	4.489771	-1.189396	-67.863935	-71.888760	-136.492734			
44534	5.798442	-7.137645	2.337900	3.498427	4.067635	-1.986528	-67.401068	-72.176907	-136.776770			
44535	6.011614	-6.447581	2.719826	3.539870	3.315483	-1.965103	-67.019391	-72.589414	-136.742071			
44536	6.717993	-5.535816	2.854495	3.178647	2.393103	-1.560827	-66.431462	-73.097916	-136.780691			
44537	7.191968	-4.807376	2.873104	2.843860	1.745499	-1.330083	-65.561266	-73.636803	-137.008841			
44538	7.545274	-3.694256	2.813500	2.336486	0.813904	-1.305529	-64.494475	-74.177335	-137.389176			
44539	8.170835	-2.773016	2.816913	1.920210	-0.027559	-0.941488	-63.512972	-74.695755	-137.702130			
44540	8.977786	-1.880942	2.465359	1.174374	-0.756107	-0.417745	-62.773023	-75.163908	-137.846093			
44541	9.627265	-1.414336	2.125918	0.629241	-1.098257	0.066659	-62.411673	-75.551594	-137.709831			
44542	10.189736	-1.347549	1.857709	0.301470	-1.106922	0.569085	-62.328575	-75.853644	-137.378339			
44543	10.498793	-1.601680	1.458107	-0.006032	-0.751401	0.880831	-62.318988	-76.056172	-137.019683			
44544	10.373943	-2.019400	1.003694	-0.260185	-0.165608	0.799047	-61.998875	-76.150834	-136.991212			
44545	10.465981	-2.540011	0.540368	-0.559998	0.478951	0.945441	-61.245427	-76.156071	-137.437927			
44546	10.099838	-2.682746	0.976524	-0.083373	0.556045	0.667818	-59.873144	-76.072228	-138.560689			
44547	9.637710	-2.674554	1.534767	0.458604	0.477188	0.284619	-58.075466	-75.914002	-140.200220			
44548	8.747474	-2.517416	1.963068	0.904782	0.372762	-0.552499	-55.998107	-75.701360	-142.205835			
44549	7.704924	-2.040427	2.202358	1.119364	0.046974	-1.619772	-53.970427	-75.470389	-144.241766			
44550	6.865947	-1.458983	2.530064	1.364045	-0.445295	-2.490677	-52.143423	-75.268316	-146.107308			
44551	6.377686	-0.983662	2.996260	1.716375	-0.943358	-2.972806	-50.662938	-75.142234	-147.652497			
44552	6.223258	-0.684438	3.161019	1.783991	-1.229686	-3.142262	-49.468282	-75.111952	-148.907569			
44553	6.372498	-0.875699	3.179870	1.808265	-1.051645	-2.948920	-48.553754	-75.171288	-149.874981			
44554	6.905529	-1.008498	3.271062	1.809624	-0.998140	-2.387584	-47.782101	-75.301959	-150.663684			
44555	7.546197	-1.385429	3.165169	1.685086	-0.660017	-1.712838	-47.095672	-75.452365	-151.336033			
44556	8.072109	-1.571643	2.770917	1.261715	-0.387139	-1.235678	-46.336215	-75.570763	-152.063472			
44557	8.213145	-1.814018	2.174542	0.747431	0.049244	-1.157406	-45.594258	-75.638423	-152.785080			
44558	8.308869	-1.808139	1.773111	0.345083	0.191056	-1.135421	-44.899458	-75.666261	-153.464278			
44559	8.300738	-1.787851	1.663306	0.231226	0.230063	-1.166369	-44.357374	-75.672709	-153.993871			
44560	8.293071	-1.480692	1.661117	0.133247	-0.040974	-1.227389	-43.989315	-75.679395	-154.312749			
44561	7.883648	-1.149834	1.661460	0.125741	-0.300603	-1.680757	-43.920241	-75.692739	-154.329988			
44562	7.725626	-0.853426	1.767075	0.178020	-0.597612	-1.866158	-44.223061	-75.745310	-153.969157			
44563	7.843488	-0.487118	2.092078	0.363582	-1.069885	-1.759273	-44.853745	-75.825429	-153.308832			
44564	7.781608	-0.524446	2.042030	0.363368	-1.028399	-1.824657	-45.681872	-75.911386	-152.482910			
44565	7.663667	-0.446899	1.964466	0.320566	-1.085750	-1.969926	-46.755874	-76.010007	-151.440648			
44566	7.533622	-0.479567	2.069234	0.485277	-1.100366	-2.078302	-48.004310	-76.113106	-150.238122			
44567	7.444559	-0.470552	2.287780	0.739398	-1.199970	-2.138707	-49.467603	-76.223763	-148.831278			
44568	7.612632	-0.416586	2.258618	0.699136	-1.295529	-1.998621	-51.017361	-76.328451	-147.319243			
44569	7.756911	-0.312570	2.133204	0.562365	-1.407714	-1.905744	-52.681375	-76.418084	-145.698219			
44570	8.370727	-0.316438	1.870840	0.238983	-1.438916	-1.354475	-54.302420	-76.486340	-144.130614			
44571	8.569721	-0.544953	1.566127	0.021553	-1.192450	-1.165882	-55.738723	-76.518875	-142.762900			
44572	8.601600	-1.044093	1.454189	0.088260	-0.726737	-1.057332	-56.784083	-76.526894	-141.766173			
44573	8.773508	-1.620644	1.627865	0.411797	-0.293555	-0.757574	-57.404825	-76.528378	-141.141784			
44574	9.087790	-1.909590	1.936664	0.738349	-0.179729	-0.357124	-57.468632	-76.528324	-141.014773			
44575	9.423406	-1.936138	2.309710	1.031816	-0.319662	0.021798	-57.065086	-76.533469	-141.340435			
44576	9.475876	-1.792871	2.785976	1.414921	-0.594533	0.107632	-56.357894	-76.570139	-141.972445			
44577	9.556090	-1.354600	2.686324	1.175819	-0.954628	0.090655	-55.885725	-76.714742	-142.380283			
44578	10.324000	-0.974372	2.621929	0.882580	-1.366960	0.759030	-55.785888	-76.933113	-142.416599			
44579	11.223491	-0.497889	2.410979	0.421471	-1.847802	1.520241	-56.100609	-77.148405	-142.002317			
44580	11.802082	0.351693	1.725905	-0.524236	-2.498706	1.843769	-56.810248	-77.322111	-141.156769			
44581	12.058980	1.127566	1.423544	-1.023703	-3.179872	1.915783	-57.767517	-77.438764	-140.027095			
44582	11.935034	1.996566	1.563728	-1.072203	-4.045305	1.648647	-58.596369	-77.488151	-139.001944			
44583	11.449471	2.541438	1.892333	-0.801301	-4.615641	1.104449	-59.242593	-77.472068	-138.210651			
44584	11.451650	2.740073	2.922646	0.132112	-5.140098	1.176036	-59.604741	-77.426677	-137.828889			
44585	11.882174	1.743872	3.966896	1.328976	-4.605422	1.891469	-59.798104	-77.373993	-137.793729			
44586	13.142906	0.815462	4.416498	1.789049	-4.074386	3.344248	-59.710328	-77.309016	-138.207349			
44587	14.577063	-0.324620	3.387695	0.871793	-2.907755	4.845323	-59.472235	-77.203962	-138.951956			
44588	15.214339	-1.512980	1.779654	-0.448740	-1.380925	5.511272	-59.158790	-77.025371	-139.892420			
44589	14.455770	-3.409286	0.843430	-0.654212	0.783055	5.028557	-59.277086	-76.795051	-140.443627			
44590	14.746124	-6.710301	1.019750	0.490099	3.686754	5.988685	-59.584687	-76.499349	-140.690284			
44591	15.813736	-9.562230	0.795441	0.973654	6.166229	7.599136	-59.223072	-76.030776	-141.400572			
44592	15.339588	-10.669696	-0.084705	0.498242	7.507536	7.291083	-58.288809	-75.416093	-142.596556			
44593	13.214012	-10.550010	-0.039651	0.778510	7.643102	5.250150	-57.504878	-74.763140	-143.530195			
44594	10.612374	-9.783472	1.082286	1.968293	6.874987	2.771784	-57.011091	-74.178098	-144.013721			
44595	8.650005	-8.561194	1.966992	2.696029	5.705651	0.777953	-56.719445	-73.753110	-144.018352			
44596	7.071478	-6.568212	2.796311	3.076252	3.832055	-1.048093	-56.279228	-73.480187	-144.037742			
44597	5.862502	-4.954091	4.363328	4.225230	2.010085	-2.325542	-55.783958	-73.353735	-144.134538			
44598	5.321324	-3.404115	4.909870	4.349198	0.515585	-3.117177	-55.560006	-73.400086	-144.011973			
44599	5.307565	-2.173477	4.552214	3.657572	-0.463040	-3.486193	-55.949716	-73.617461	-143.336268			
44600	5.737866	-1.226717	3.469458	2.311965	-1.022779	-3.482321	-57.027088	-73.951271	-142.049288			
44601	6.357660	-1.057988	2.321063	1.120093	-0.896199	-3.114303	-58.590490	-74.297073	-140.367093			
44602	7.546103	-1.249195	0.823654	-0.394753	-0.436063	-2.142220	-60.361936	-74.598574	-138.426578			
44603	8.711719	-1.692836	-0.240357	-1.415060	0.094948	-1.048807	-62.040094	-74.811013	-136.522486			
44604	10.170574	-2.013888	-0.798488	-2.061833	0.276980	0.375820	-63.194451	-74.907668	-135.070065			
44605	11.027194	-2.012496	-0.537027	-1.944127	-0.001929	1.239816	-63.687538	-74.865818	-134.355619			
44606	13.403293	12.509192	1.311285	-4.964989	-14.494973	0.340360	-64.604421	-74.900599	-134.779329			
44607	17.239062	2.130041	-11.358808	-14.560561	-0.311774	4.963232	-64.673910	-73.901393	-142.888821			
44608	-0.437141	-33.235824	3.402167	17.453344	27.208505	-1.359500	-61.758934	-73.039438	-145.831891			
44609	1.896207	-11.451251	6.803325	9.987000	7.000915	-4.149945	-59.715933	-73.378869	-140.945304			
44610	10.352195	15.946360	1.889595	-5.167420	-17.275417	-3.506917	-64.105915	-74.464027	-133.495732			
44611	12.200502	-3.682867	-10.756306	-11.268808	4.651653	1.565849	-64.044095	-74.375416	-135.867186			
44612	3.655475	-6.064596	6.170579	6.942593	2.703500	-4.093480	-62.902455	-74.460200	-137.233476			
44613	6.517421	-3.061162	0.517162	0.202881	1.444072	-2.742452	-63.962349	-74.901350	-135.682135			
44614	6.988153	-2.275326	-0.485252	-1.026021	0.996419	-2.587647	-64.302477	-75.150745	-135.248260			
44615	6.279899	-3.742349	0.537578	0.546162	2.132308	-2.820822	-65.068611	-75.403313	-134.322602			
44616	7.647475	-2.859784	0.600788	0.125864	1.054561	-1.695108	-66.084895	-75.651848	-132.885109			
44617	8.789744	-2.457962	0.271876	-0.457905	0.583843	-0.711895	-66.888055	-75.822432	-131.668047			
44618	9.263312	-1.982568	0.323958	-0.604990	0.037098	-0.353455	-67.029384	-75.885620	-131.098839			
44619	9.587254	-1.665935	0.546613	-0.541514	-0.387211	-0.089192	-66.631203	-75.841479	-131.188547			
44620	9.561142	-1.758775	0.515513	-0.566823	-0.283558	-0.098128	-65.885660	-75.709299	-131.767571			
44621	9.067695	-1.837068	-0.020945	-1.006543	0.046415	-0.615789	-65.278054	-75.538045	-132.308842			
44622	8.637177	-1.838785	-0.549781	-1.464672	0.283829	-1.091545	-64.991449	-75.365842	-132.558192			
44623	8.239397	-1.879943	-0.604019	-1.455986	0.397203	-1.475483	-65.025988	-75.216590	-132.450995			
44624	7.996956	-1.752826	-0.424228	-1.289107	0.248791	-1.720719	-65.304334	-75.111583	-132.029679			
44625	8.115924	-1.680698	0.061812	-0.866150	-0.012917	-1.569729	-65.856098	-75.061421	-131.275320			
44626	8.904029	-1.729749	0.923761	-0.155713	-0.403933	-0.705569	-66.515233	-75.043805	-130.358647			
44627	9.926174	-1.757043	1.749570	0.484691	-0.845769	0.371950	-67.028766	-75.023779	-129.559537			
44628	10.401355	-1.543897	2.019934	0.618159	-1.232287	0.805753	-67.177879	-74.962549	-129.173269			
44629	10.502736	-1.279891	1.761122	0.279307	-1.433629	0.813403	-66.944147	-74.852574	-129.273082			
44630	9.893912	-0.878835	1.515455	0.015418	-1.620830	0.103513	-66.427319	-74.702055	-129.766297			
44631	9.496589	-0.792627	1.224968	-0.251368	-1.542989	-0.332714	-65.930157	-74.533689	-130.328282			
44632	9.157751	-1.049252	0.831876	-0.536301	-1.128490	-0.642293	-65.541100	-74.344662	-130.818967			
44633	8.902330	-1.164293	0.103395	-1.182152	-0.770926	-0.945565	-65.466954	-74.140572	-130.985243			
44634	8.759524	-1.496068	-0.374842	-1.543725	-0.317131	-1.059161	-65.734478	-73.909773	-130.757781			
44635	8.611826	-1.811155	-0.414394	-1.483938	-0.020047	-1.128627	-66.222799	-73.658069	-130.197493			
44636	8.627781	-1.994834	-0.401809	-1.435320	0.095836	-1.065696	-66.804767	-73.400209	-129.430529			
44637	8.313097	-2.095471	-0.564829	-1.514219	0.253854	-1.359281	-67.354852	-73.130657	-128.609931			
44638	8.379579	-1.830587	-0.059954	-1.121225	-0.202721	-1.311302	-67.733638	-72.879252	-127.893878			
44639	8.471023	-1.315339	0.533883	-0.705538	-0.912017	-1.301301	-67.909973	-72.665425	-127.344003			
44640	8.204840	-1.276428	1.185382	-0.055213	-1.092001	-1.496544	-67.816415	-72.482756	-127.101800			
44641	8.326971	-1.451094	1.558236	0.308325	-1.074648	-1.290817	-67.703875	-72.355060	-126.905479			
44642	8.427781	-1.873010	1.563060	0.379410	-0.715124	-1.076358	-67.574295	-72.258146	-126.794231			
44643	8.804867	-1.898385	1.580177	0.324289	-0.794404	-0.708278	-67.505966	-72.188375	-126.658535			
44644	9.163599	-1.660277	1.207071	-0.156690	-1.014727	-0.478297	-67.488520	-72.125556	-126.544804			
44645	9.430945	-1.535290	0.620191	-0.798228	-1.055394	-0.329363	-67.532669	-72.074015	-126.418556			
44646	9.714372	-1.615203	-0.114721	-1.540074	-0.871541	-0.124568	-67.565765	-72.032075	-126.315315			
44647	9.873515	-1.525956	-0.932704	-2.374841	-0.794922	-0.096053	-67.565587	-71.998076	-126.219889			
44648	9.942844	-1.328607	-1.283465	-2.769108	-0.913310	-0.129169	-67.432142	-71.996940	-126.204260			
44649	9.925369	-1.382970	-0.902955	-2.391276	-0.952914	-0.085682	-67.195416	-72.043969	-126.213817			
44650	10.208558	-1.662271	-0.303050	-1.807656	-0.898705	0.335925	-66.904316	-72.163187	-126.201881			
44651	11.076863	-1.813441	1.054535	-0.619351	-1.272612	1.371866	-66.526520	-72.345427	-126.190161			
44652	12.211973	-1.695159	2.350240	0.415431	-1.914973	2.584466	-65.968460	-72.575519	-126.352810			
44653	13.006333	-1.564447	3.230179	1.108740	-2.359446	3.425493	-65.267775	-72.823622	-126.791388			
44654	13.173716	-1.568423	3.324483	1.174346	-2.338322	3.611604	-64.621874	-73.085196	-127.389543			
44655	13.360703	-2.111275	3.343287	1.270439	-1.801442	3.945359	-64.292558	-73.377033	-127.894699			
44656	13.759048	-3.313519	2.784220	0.917031	-0.564246	4.570739	-64.270965	-73.691440	-128.287359			
44657	13.471012	-4.350455	1.245992	-0.257983	0.890769	4.367809	-64.543972	-74.000635	-128.550737			
44658	12.926101	-4.680802	0.129577	-1.091938	1.638387	3.793681	-65.078190	-74.311671	-128.681259			
44659	12.509085	-5.607944	-0.399970	-1.221790	2.777188	3.561889	-65.972023	-74.622105	-128.533722			
44660	11.927637	-6.793952	-0.717823	-1.032306	4.130188	3.256974	-66.898222	-74.888527	-128.288720			
44661	11.025443	-7.552107	-1.414989	-1.257394	5.240722	2.497874	-67.507994	-75.083648	-128.176171			
44662	9.752215	-7.627273	-1.611805	-1.152467	5.648694	1.261731	-67.561661	-75.231330	-128.402577			
44663	8.778728	-7.884606	-1.046059	-0.364878	5.951102	0.423448	-67.156515	-75.359946	-128.874083			
44664	8.264611	-7.705507	0.563813	1.194040	5.463091	0.022205	-66.195243	-75.500808	-129.666283			
44665	6.859890	-7.173170	2.809817	3.387407	4.659782	-1.255894	-64.773362	-75.710382	-130.727649			
44666	6.535929	-6.064733	4.189987	4.440571	3.384650	-1.696055	-63.222633	-76.043013	-131.775295			
44667	6.701486	-4.753482	4.417237	4.288621	2.165694	-1.816830	-61.701531	-76.475193	-132.706010			
44668	7.361858	-3.241374	4.465614	3.873682	0.721587	-1.498972	-60.341412	-76.950985	-133.471886			
44669	8.177507	-2.228284	4.100141	3.189834	-0.177023	-0.956016	-59.499528	-77.450902	-133.778617			
44670	9.573793	-1.491690	3.735166	2.517087	-0.918902	0.219912	-59.336238	-77.942042	-133.454650			
44671	11.377176	-1.069687	3.044939	1.577098	-1.368134	1.827593	-59.954293	-78.362670	-132.465440			
44672	12.572418	-1.099011	2.209497	0.695064	-1.294502	2.915074	-61.047847	-78.652498	-131.150208			
44673	12.986231	-1.604475	1.437718	0.067351	-0.694897	3.332494	-62.221705	-78.797140	-129.863167			
44674	12.307285	-2.285630	0.948154	-0.148105	0.155671	2.739051	-62.852007	-78.787044	-129.166486			
44675	11.809122	-2.823690	0.731598	-0.192777	0.778592	2.324874	-62.685797	-78.660475	-129.279612			
44676	10.947296	-3.008685	0.895323	0.065499	1.040884	1.527903	-61.552030	-78.418144	-130.368184			
44677	9.728644	-2.883934	1.186484	0.407387	1.039831	0.342287	-59.752785	-78.090742	-132.183134			
44678	8.573727	-2.645583	1.629961	0.862693	0.892320	-0.778115	-57.586592	-77.707547	-134.434148			
44679	7.506943	-2.291158	2.191475	1.408982	0.594629	-1.808518	-55.328259	-77.308021	-136.854340			
44680	6.629665	-2.083916	2.819063	2.034548	0.393873	-2.605245	-53.047943	-76.922963	-139.323268			
44681	5.886457	-1.738858	2.842864	2.046666	0.173598	-3.367804	-50.910042	-76.588965	-141.666409			
44682	5.413860	-1.432546	2.965434	2.133210	-0.073414	-3.846141	-49.144068	-76.330084	-143.687776			
44683	5.695491	-1.395302	3.100479	2.162061	-0.173069	-3.544203	-47.851301	-76.204772	-145.254668			
44684	5.969239	-1.669772	2.963174	2.010848	0.095097	-3.243991	-46.950219	-76.190742	-146.405727			
44685	6.273026	-1.817507	2.603180	1.631188	0.295033	-2.980198	-46.416747	-76.276067	-147.136554			
44686	6.892712	-1.956327	2.203953	1.162682	0.460043	-2.421436	-46.102063	-76.422516	-147.607619			
44687	7.489308	-2.073421	1.958987	0.850617	0.574664	-1.864568	-45.827299	-76.591051	-147.986739			
44688	7.838965	-2.221719	1.366719	0.262632	0.842103	-1.598361	-45.395283	-76.736553	-148.486334			
44689	8.040469	-2.515475	0.937591	-0.114225	1.231092	-1.426559	-44.767069	-76.826084	-149.134942			
44690	8.275233	-2.403482	0.745274	-0.373782	1.168985	-1.250834	-43.986767	-76.856099	-149.864174			
44691	8.533084	-1.984149	0.683311	-0.590751	0.775638	-1.079611	-43.157027	-76.843186	-150.587553			
44692	8.482466	-1.880440	0.847418	-0.467714	0.662376	-1.120804	-42.326342	-76.781542	-151.281880			
44693	8.330021	-1.630112	1.458951	0.070593	0.306840	-1.205954	-41.628426	-76.726817	-151.795135			
44694	8.002004	-1.203817	2.426560	0.954519	-0.285738	-1.423608	-41.156155	-76.713486	-152.091819			
44695	8.131778	-1.148410	3.026917	1.490397	-0.482205	-1.201470	-41.043356	-76.779761	-152.028054			
44696	8.384434	-0.527363	3.238965	1.528059	-1.149480	-1.014312	-41.307519	-76.908143	-151.564693			
44697	9.008989	-0.170093	3.031048	1.163822	-1.512062	-0.499411	-41.933516	-77.077371	-150.758357			
44698	9.415651	-0.205137	2.728056	0.839946	-1.458490	-0.153184	-42.620759	-77.219697	-149.901408			
44699	9.324032	-0.240315	2.291570	0.479714	-1.325348	-0.312168	-43.277394	-77.309655	-149.070054			
44700	9.313875	-0.370501	1.619693	-0.113955	-1.061903	-0.412248	-43.896553	-77.352119	-148.307183			
44701	9.156657	-0.306072	1.200116	-0.484820	-1.029760	-0.643018	-44.392600	-77.348878	-147.672976			
44702	8.919192	-0.388084	1.385004	-0.241347	-0.978299	-0.834631	-44.713226	-77.290017	-147.238182			
44703	8.544109	-0.405166	1.994486	0.417130	-1.062962	-1.104070	-44.956144	-77.205312	-146.881220			
44704	8.373489	-0.397210	2.511722	0.942001	-1.173907	-1.191991	-45.239843	-77.118097	-146.464613			
44705	8.617055	-0.172021	3.140454	1.459514	-1.570253	-0.893618	-45.634070	-77.025751	-145.938504			
44706	8.632497	0.062178	3.272193	1.541283	-1.845893	-0.899316	-46.218876	-76.934046	-145.265240			
44707	8.665123	0.406161	2.622527	0.857214	-2.073725	-1.032499	-47.249134	-76.912953	-144.189154			
44708	9.291815	0.016590	2.464611	0.683459	-1.779965	-0.390541	-48.450689	-76.889415	-142.953519			
44709	9.656165	0.017833	2.804048	0.969268	-1.938588	0.006008	-49.490646	-76.821535	-141.763319			
44710	9.475746	0.325043	2.640420	0.807506	-2.212232	-0.256483	-50.416129	-76.724040	-140.641457			
44711	9.307494	0.369354	2.550332	0.759953	-2.246181	-0.450685	-51.282399	-76.625652	-139.601245			
44712	9.108012	0.417612	2.446858	0.701795	-2.273408	-0.677241	-52.089699	-76.539472	-138.664935			
44713	9.206684	0.979285	2.140030	0.310785	-2.801752	-0.737709	-53.055506	-76.502234	-137.654534			
44714	10.072120	1.543447	2.701672	0.635999	-3.624404	0.065971	-54.099243	-76.508190	-136.654522			
44715	11.264974	1.810747	3.829979	1.511251	-4.327488	1.315475	-55.043553	-76.525755	-135.808327			
44716	11.911070	1.819105	4.007551	1.596877	-4.504657	1.951714	-55.882820	-76.568098	-135.177396			
44717	13.349377	0.953059	3.391219	0.933298	-3.806139	3.425769	-56.677469	-76.627173	-134.732828			
44718	15.552375	-0.086526	2.340229	-0.241596	-2.969203	5.630302	-57.287194	-76.653790	-134.540887			
44719	17.903045	-1.011874	1.623786	-1.134955	-2.335977	8.004008	-57.859093	-76.608726	-134.467120			
44720	19.233301	-3.655739	1.227071	-1.228972	0.032461	9.764807	-58.143970	-76.412021	-134.750629			
44721	18.874443	-7.761562	-0.107648	-1.665994	4.274299	10.073283	-57.859763	-75.989208	-135.514921			
44722	17.533609	-10.379861	-1.003129	-1.871994	7.156415	9.199243	-56.539192	-75.357172	-137.133750			
44723	14.325471	-10.303311	0.083975	-0.447636	7.319415	6.237435	-54.656680	-74.612909	-139.249007			
44724	10.975377	-9.577850	1.669710	1.407777	6.771811	3.115614	-53.333222	-73.973122	-140.724308			
44725	8.637010	-8.872339	2.196208	2.141129	6.345163	0.831247	-52.787120	-73.560588	-141.143972			
44726	7.670052	-7.639657	2.111447	1.930824	5.354335	-0.365206	-52.664887	-73.357986	-140.883199			
44727	6.839107	-6.060595	2.262278	1.879814	3.968140	-1.485495	-52.804663	-73.332373	-140.212457			
44728	6.039310	-4.286369	2.614513	2.018085	2.355294	-2.597302	-53.169477	-73.459232	-139.265892			
44729	5.829342	-2.757418	3.536158	2.670258	0.744282	-3.000595	-53.977939	-73.711738	-137.931488			
44730	6.044271	-1.973018	3.741253	2.725449	-0.069966	-2.957788	-55.269649	-74.044888	-136.204818			
44731	6.444243	-0.845839	3.413941	2.202528	-1.142686	-2.903184	-57.038224	-74.409528	-134.040586			
44732	7.354308	0.016245	2.366650	0.961145	-1.929861	-2.393918	-59.126425	-74.748600	-131.584268			
44733	8.378906	0.123798	1.224489	-0.245364	-2.025640	-1.593413	-61.315508	-74.993915	-129.072952			
44734	9.054455	-0.456943	0.145954	-1.228174	-1.431306	-0.943886	-63.083329	-75.046658	-127.055403			
44735	9.720298	-1.432530	-0.637329	-1.890709	-0.533207	-0.164729	-64.267611	-74.931869	-125.669232			
44736	10.187312	-2.173707	-0.878239	-2.077644	0.071653	0.432098	-64.472721	-74.642843	-125.382298			
44737	9.622106	-3.302064	-0.868925	-1.849725	1.229438	0.152761	-63.940507	-74.218435	-126.121494			
44738	8.824959	-4.427509	-0.414753	-1.160836	2.363239	-0.287876	-63.198152	-73.785013	-127.269749			
44739	7.989435	-4.670608	-0.244907	-0.854870	2.721187	-1.005312	-62.720535	-73.418072	-128.226429			
44740	7.201178	-4.714186	0.159397	-0.331542	2.831999	-1.690143	-62.607237	-73.140899	-128.846528			
44741	6.852858	-4.760905	0.390556	-0.030422	2.881407	-1.971966	-62.847595	-72.975054	-129.030841			
44742	6.823652	-4.475227	0.572468	0.114814	2.556570	-2.042983	-63.223721	-72.906659	-128.953054			
44743	6.629735	-4.139997	0.718077	0.248710	2.236118	-2.292948	-63.690434	-72.910860	-128.675148			
44744	6.305561	-3.950670	0.778641	0.352147	2.107533	-2.642721	-64.268831	-72.962942	-128.165307			
44745	6.472721	-3.807761	0.852655	0.392084	1.909192	-2.510402	-65.086748	-73.071819	-127.286112			
44746	6.860680	-3.820959	0.739854	0.250090	1.851269	-2.149386	-66.080824	-73.226440	-126.139609			
44747	7.544995	-3.752706	0.627053	0.052051	1.648254	-1.525146	-67.138731	-73.413378	-124.842445			
44748	8.369042	-3.343137	0.179461	-0.549505	1.164105	-0.891231	-68.036035	-73.604154	-123.641332			
44749	9.105630	-2.707446	-0.106177	-1.020209	0.451088	-0.378195	-68.533629	-73.764135	-122.828783			
44750	9.538178	-2.507900	0.160253	-0.841061	0.111794	0.014427	-68.570082	-73.878585	-122.520565			
44751	9.842819	-2.377869	0.200217	-0.866175	-0.078009	0.277857	-68.281270	-73.952891	-122.554291			
44752	9.732223	-2.187098	0.089617	-0.999916	-0.198065	0.110443	-67.828063	-73.978185	-122.812926			
44753	9.322357	-1.894029	-0.047754	-1.133988	-0.346482	-0.373939	-67.506435	-73.975953	-122.983083			
44754	8.826061	-1.651544	-0.016123	-1.076273	-0.467360	-0.910417	-67.400194	-73.959097	-122.970179			
44755	8.571834	-1.430586	0.137248	-0.921937	-0.653577	-1.194996	-67.599782	-73.947481	-122.649609			
44756	8.701864	-1.131167	0.463973	-0.658747	-1.041751	-1.112226	-68.004564	-73.934147	-122.141472			
44757	8.939235	-0.954106	0.898761	-0.279107	-1.362037	-0.885486	-68.533733	-73.910863	-121.552071			
44758	9.192605	-0.712759	1.233963	-0.008465	-1.731268	-0.672815	-69.049035	-73.870063	-121.049059			
44759	9.281467	-0.823655	1.251206	0.025396	-1.667447	-0.560202	-69.453823	-73.810811	-120.761021			
44760	9.304826	-0.920219	1.427661	0.209844	-1.631534	-0.498244	-69.587368	-73.719259	-120.790501			
44761	9.204250	-0.921675	1.361137	0.147425	-1.608907	-0.603451	-69.514881	-73.601475	-121.056551			
44762	8.794015	-0.940055	1.052191	-0.113973	-1.446008	-1.025110	-69.283144	-73.455413	-121.536125			
44763	8.737444	-0.827009	0.975486	-0.225468	-1.537285	-1.119915	-69.061891	-73.310292	-121.995372			
44764	8.842834	-0.837927	0.885502	-0.354647	-1.546605	-1.028377	-68.836240	-73.162575	-122.481003			
44765	8.934760	-0.920090	0.805448	-0.460216	-1.486751	-0.929954	-68.609555	-73.009689	-122.968088			
44766	9.268210	-0.879936	0.532259	-0.815639	-1.559635	-0.655205	-68.357480	-72.850634	-123.467327			
44767	9.492373	-0.896826	0.527302	-0.887068	-1.608600	-0.441835	-68.035050	-72.678503	-124.047853			
44768	9.382605	-0.779008	0.381963	-1.070425	-1.669610	-0.601147	-67.616013	-72.491952	-124.707612			
44769	9.141100	-0.584744	0.382643	-1.105322	-1.801265	-0.891834	-67.222729	-72.306988	-125.343269			
44770	9.075666	-0.597197	0.510813	-1.006311	-1.811858	-0.941968	-66.932371	-72.125562	-125.913118			
44771	8.823835	-0.764866	0.444946	-1.025637	-1.586695	-1.148195	-66.749409	-71.944956	-126.409682			
44772	8.696396	-1.278795	0.234122	-1.130524	-1.034216	-1.154185	-66.697740	-71.762761	-126.817523			
44773	8.720749	-1.831856	0.242907	-1.034039	-0.541198	-0.975042	-66.763461	-71.575511	-127.126701			
44774	8.875768	-2.528534	0.313549	-0.864145	0.030477	-0.619031	-66.917549	-71.380699	-127.319296			
44775	9.035672	-3.174558	0.614991	-0.479064	0.485176	-0.240101	-67.052465	-71.173163	-127.484345			
44776	9.265489	-3.830468	0.681247	-0.330954	0.988601	0.182257	-67.097096	-70.964022	-127.652164			
44777	9.078465	-3.905293	0.355764	-0.606367	1.168628	-0.011517	-67.018382	-70.768879	-127.836192			
44778	9.093425	-3.649961	0.200909	-0.839936	0.953327	-0.094737	-66.744310	-70.601164	-128.140382			
44779	9.167714	-2.911945	0.253255	-1.001003	0.229468	-0.245254	-66.319668	-70.476453	-128.536553			
44780	9.109518	-2.150366	0.156915	-1.281222	-0.430840	-0.549600	-65.811238	-70.402110	-128.986165			
44781	9.149561	-1.789295	0.324055	-1.235342	-0.811248	-0.601998	-65.327620	-70.386494	-129.374528			
44782	8.974909	-1.877594	0.414817	-1.106236	-0.695193	-0.727571	-65.013015	-70.434280	-129.546068			
44783	9.038338	-2.272929	0.794074	-0.671090	-0.432556	-0.493308	-64.886717	-70.549844	-129.391569			
44784	9.911221	-2.489538	1.539351	-0.083322	-0.632335	0.502002	-64.820281	-70.728555	-129.028627			
44785	11.496069	-2.562104	2.522253	0.566630	-1.185802	2.160544	-64.587197	-70.948164	-128.737296			
44786	12.801342	-2.364726	2.258989	0.033183	-1.577728	3.305185	-64.142545	-71.210237	-128.738117			
44787	13.010638	-2.806493	1.622648	-0.515610	-0.987682	3.549353	-63.533436	-71.521721	-129.066177			
44788	12.466352	-3.122655	1.758690	-0.197304	-0.502384	3.147323	-62.978325	-71.892972	-129.427146			
44789	12.783011	-3.121574	1.521069	-0.448461	-0.436581	3.418739	-62.804816	-72.335217	-129.538414			
44790	13.102871	-3.662105	0.979263	-0.863268	0.207645	3.798549	-62.956089	-72.810456	-129.434070			
44791	12.959084	-4.061104	-0.133991	-1.744850	0.950915	3.622283	-63.393572	-73.290488	-129.167730			
44792	12.761616	-4.675629	-0.100457	-1.457462	1.641709	3.600355	-63.892458	-73.757571	-129.017232			
44793	12.078510	-5.634842	0.426894	-0.528586	2.641921	3.247311	-64.361695	-74.201660	-129.092536			
44794	10.423285	-6.065987	0.734645	0.254618	3.378267	1.784813	-64.870622	-74.607691	-129.276587			
44795	9.630538	-6.207200	0.028826	-0.144729	3.895240	0.961467	-65.553898	-74.996218	-129.220223			
44796	9.235525	-6.343028	-0.629067	-0.573140	4.314199	0.530569	-66.105368	-75.336157	-129.204680			
44797	9.733132	-7.271211	-0.392270	-0.108237	5.062903	1.237780	-66.419511	-75.652729	-129.272015			
44798	10.524883	-8.138891	-0.018107	0.405296	5.673678	2.214764	-65.973568	-75.966732	-129.864909			
44799	10.498523	-7.984650	0.362450	0.741191	5.507004	2.155083	-64.502026	-76.271596	-131.191215			
44800	9.977510	-7.025439	1.302469	1.435680	4.537522	1.498907	-62.382829	-76.547383	-132.984156			
44801	9.625644	-5.948713	2.809859	2.601895	3.284339	1.067433	-59.980166	-76.791763	-134.895964			
44802	9.376396	-4.646937	3.570753	2.998671	2.003581	0.639752	-57.873291	-76.999138	-136.516941			
44803	9.827622	-3.542647	3.072973	2.159309	1.105011	0.802935	-56.558600	-77.217001	-137.445407			
44804	10.029514	-2.657952	2.412285	1.287627	0.462331	0.751544	-55.821700	-77.433641	-137.897604			
44805	10.174489	-2.301105	1.771904	0.578678	0.304023	0.747971	-55.337860	-77.618112	-138.170545			
44806	9.613340	-2.205066	1.124816	0.032736	0.481887	0.102477	-54.913622	-77.750536	-138.461618			
44807	8.908758	-2.573621	1.050554	0.157728	0.977167	-0.532958	-54.533268	-77.857088	-138.749429			
44808	8.357353	-2.719844	1.284930	0.501704	1.159758	-1.020807	-54.010387	-77.937028	-139.160862			
44809	8.173087	-2.590059	1.664206	0.859687	0.994835	-1.178540	-53.141148	-77.982816	-139.901273			
44810	7.741872	-2.102626	2.111515	1.233174	0.507929	-1.625060	-51.699322	-77.952458	-141.237451			
44811	7.506528	-1.969078	2.713955	1.785359	0.304467	-1.793319	-49.769980	-77.846503	-143.087942			
44812	6.837490	-1.354156	3.038593	2.031688	-0.244535	-2.489427	-47.608669	-77.654260	-145.208078			
44813	6.882961	-1.152004	3.240526	2.120936	-0.461552	-2.430851	-45.592928	-77.425211	-147.250364			
44814	7.109060	-0.727310	3.622524	2.301520	-0.959793	-2.198764	-43.731913	-77.185238	-149.134257			
44815	7.213571	-0.513454	3.141542	1.721484	-1.041616	-2.189055	-42.141342	-76.950246	-150.749970			
44816	7.019842	-0.378463	2.568348	1.134434	-0.996491	-2.482087	-40.831275	-76.739762	-152.118414			
44817	7.236896	-0.562806	2.066419	0.611515	-0.706729	-2.323630	-39.857862	-76.598292	-153.175741			
44818	7.306495	-1.024657	1.937907	0.544982	-0.221798	-2.207161	-39.087902	-76.516015	-154.054481			
44819	7.697460	-1.438989	1.729188	0.335791	0.205424	-1.802902	-38.386073	-76.504374	-154.835332			
44820	7.996441	-2.016419	1.649512	0.311222	0.773015	-1.443969	-37.721160	-76.527285	-155.549939			
44821	8.347677	-2.414744	1.554168	0.229494	1.168543	-1.065577	-37.181557	-76.595591	-156.081230			
44822	8.503741	-2.457593	1.175659	-0.150037	1.305121	-0.980379	-36.834024	-76.701796	-156.383806			
44823	8.488333	-2.266765	1.244326	-0.108137	1.121593	-1.011059	-36.700929	-76.858935	-156.413347			
44824	8.387844	-1.959401	1.532119	0.143725	0.777641	-1.099645	-36.751753	-77.050699	-156.198270			
44825	8.036619	-1.494317	1.770552	0.375436	0.312781	-1.463064	-37.010181	-77.284369	-155.740760			
44826	7.992542	-1.063361	2.090948	0.638849	-0.168848	-1.509270	-37.514334	-77.542733	-155.040749			
44827	8.075468	-0.937569	2.394191	0.931241	-0.365076	-1.397005	-38.221179	-77.801457	-154.145249			
44828	8.311015	-0.652387	2.743517	1.209472	-0.742771	-1.151812	-39.018467	-78.031236	-153.151140			
44829	8.584846	-0.214722	3.021682	1.384145	-1.257996	-0.903272	-39.858194	-78.221374	-152.111213			
44830	8.963519	0.205189	3.364143	1.602348	-1.782488	-0.541261	-40.621657	-78.335530	-151.171212			
44831	9.058886	0.631207	3.469297	1.633659	-2.237863	-0.494913	-41.288387	-78.380564	-150.374332			
44832	8.926740	0.808286	3.113334	1.298003	-2.336581	-0.708381	-41.988015	-78.393224	-149.625932			
44833	8.807276	0.694877	2.658138	0.914048	-2.137363	-0.884484	-42.721615	-78.391961	-148.915338			
44834	8.903236	0.376153	2.465061	0.780384	-1.817991	-0.780994	-43.438948	-78.373348	-148.275243			
44835	8.834686	-0.016755	2.327241	0.741205	-1.421280	-0.818326	-44.119628	-78.350878	-147.689209			
44836	8.813884	-0.549569	2.205022	0.734123	-0.896095	-0.784579	-44.700957	-78.316368	-147.207756			
44837	8.784459	-0.831130	1.905993	0.508368	-0.574534	-0.818147	-45.223759	-78.271379	-146.775307			
44838	8.928921	-0.892742	1.413384	0.022753	-0.443814	-0.739498	-45.815633	-78.224821	-146.289855			
44839	8.879379	-1.169316	1.495432	0.171329	-0.209568	-0.736694	-46.558986	-78.189504	-145.628074			
44840	9.314310	-0.935147	1.970436	0.522211	-0.615908	-0.280565	-47.479493	-78.179460	-144.731402			
44841	9.477560	-0.945444	2.442581	0.972751	-0.756461	-0.057401	-48.521621	-78.186247	-143.681110			
44842	9.736776	-0.702943	2.533559	0.994751	-1.071367	0.166308	-49.652655	-78.207585	-142.522205			
44843	9.767101	-0.470114	2.305421	0.751572	-1.278041	0.123805	-50.716257	-78.232487	-141.419676			
44844	9.973498	-0.069012	2.277600	0.640267	-1.710946	0.253369	-51.700985	-78.266919	-140.412328			
44845	10.284133	0.436888	2.480094	0.718076	-2.305415	0.496262	-52.627720	-78.327063	-139.465807			
44846	10.905278	1.098137	3.130222	1.151765	-3.183792	1.071526	-53.357488	-78.386831	-138.711060			
44847	10.856986	1.959346	3.520135	1.391205	-4.105497	0.925745	-53.830655	-78.425453	-138.241365			
44848	11.074453	1.985894	4.400751	2.218741	-4.357642	1.234577	-54.085059	-78.477138	-138.079869			
44849	11.995489	0.815900	5.174965	3.067952	-3.520877	2.415510	-54.081552	-78.552553	-138.286348			
44850	14.109713	-0.230777	4.255068	2.069497	-2.582108	4.550207	-53.876760	-78.611543	-138.822563			
44851	16.727943	-1.299656	2.387767	0.076335	-1.463478	7.071238	-53.643466	-78.563837	-139.540218			
44852	17.663314	-3.138125	1.263824	-0.791531	0.434660	8.148994	-53.660113	-78.352830	-140.108232			
44853	17.127566	-6.095642	0.480197	-0.831983	3.475389	8.019017	-54.227372	-78.007952	-140.073828			
44854	16.387570	-9.891710	-0.140592	-0.491161	7.266973	7.889455	-54.141369	-77.400347	-140.484009			
44855	13.864738	-10.706273	-1.532064	-1.345174	8.657727	5.433078	-53.263963	-76.601503	-141.487362			
44856	10.616305	-9.570161	-0.972429	-0.649977	7.811920	2.178505	-52.697892	-75.834197	-142.065845			
44857	8.110038	-8.698678	1.778851	2.132349	6.557950	0.038659	-52.858645	-75.248472	-141.745673			
44858	7.510307	-8.451729	2.628257	2.921377	6.142752	-0.406540	-53.798641	-74.923619	-140.333121			
44859	7.040441	-7.511452	1.542624	1.705556	5.573026	-1.187059	-55.026459	-74.802768	-138.358389			
44860	6.111568	-6.063228	1.660087	1.645243	4.310535	-2.357341	-56.055025	-74.784219	-136.517825			
44861	5.232381	-4.451740	2.623086	2.395994	2.716791	-3.413111	-57.057930	-74.901457	-134.689531			
44862	5.444093	-2.816154	3.131028	2.559361	1.026515	-3.506506	-58.356023	-75.172347	-132.629128			
44863	6.241158	-1.205661	2.801179	1.878074	-0.572908	-3.149628	-60.006117	-75.539989	-130.200604			
44864	6.826366	0.433743	2.078804	0.901801	-2.108925	-3.041632	-61.898146	-75.903240	-127.660207			
44865	7.618383	1.396407	0.963906	-0.344055	-2.993741	-2.612904	-64.151366	-76.219582	-124.806321			
44866	9.628215	1.762731	-0.093503	-1.585938	-3.589845	-0.845265	-66.616386	-76.434699	-121.839331			
44867	10.913778	1.098024	-1.397148	-2.819270	-3.049473	0.435212	-68.641158	-76.473831	-119.367957			
44868	11.250643	0.164526	-2.267182	-3.524756	-2.149315	0.897125	-69.865103	-76.320220	-117.904187			
44869	11.940304	-1.393893	-2.587975	-3.710115	-0.807660	1.883199	-70.203492	-76.012831	-117.550126			
44870	12.389464	-3.272419	-1.886736	-2.874514	0.751836	2.794403	-69.823013	-75.617933	-118.192542			
44871	11.775963	-3.762909	-1.628980	-2.547782	1.273905	2.326993	-69.087847	-75.206525	-119.335495			
44872	9.671081	-3.602454	-0.632655	-1.380559	1.396819	0.338689	-68.496080	-74.804543	-120.561519			
44873	8.351038	-4.004261	-0.206264	-0.751438	1.974907	-0.793183	-68.622099	-74.519980	-120.969495			
44874	8.131702	-3.653044	-0.180728	-0.738307	1.653393	-1.082105	-69.232364	-74.364257	-120.783787			
44875	7.531994	-3.478236	0.244316	-0.245954	1.522044	-1.657226	-69.848419	-74.281553	-120.467746			
44876	6.835173	-3.629101	0.908719	0.545099	1.683478	-2.224246	-70.447323	-74.248934	-120.064230			
44877	6.300732	-3.887855	0.914918	0.688958	2.041614	-2.670642	-71.146620	-74.273727	-119.436343			
44878	5.761629	-4.234518	0.736631	0.669025	2.525890	-3.116244	-71.944817	-74.340627	-118.665981			
44879	5.684920	-4.495679	0.427972	0.446667	2.849643	-3.149911	-72.875810	-74.456672	-117.646017			
44880	6.197066	-4.336194	0.357177	0.315390	2.591248	-2.704968	-73.914844	-74.624241	-116.427709			
44881	7.210895	-3.671364	0.340765	0.103141	1.727939	-1.900954	-74.907789	-74.837306	-115.135461			
44882	8.305967	-3.436171	0.837716	0.462081	1.170000	-0.873134	-75.463222	-75.040107	-114.262552			
44883	8.900936	-3.170171	1.343610	0.874396	0.712037	-0.335858	-75.615127	-75.210212	-113.737277			
44884	8.898774	-2.586973	0.937105	0.397551	0.246527	-0.510004	-75.665658	-75.321292	-113.363465			
44885	8.701789	-2.353302	0.258114	-0.272493	0.190412	-0.800736	-76.027069	-75.387017	-112.740312			
44886	8.749102	-2.106513	-0.065620	-0.608892	-0.008946	-0.833958	-76.736495	-75.417805	-111.801959			
44887	9.148497	-2.205149	-0.150643	-0.684474	-0.005663	-0.425903	-77.641444	-75.436519	-110.656745			
44888	9.205233	-2.230007	-0.002950	-0.507988	-0.031746	-0.354881	-78.403707	-75.429632	-109.635986			
44889	9.246682	-2.431896	0.053258	-0.403717	0.130381	-0.260827	-79.008902	-75.411080	-108.747827			
44890	9.645481	-2.934870	0.527435	0.114959	0.440172	0.272944	-79.492998	-75.390908	-107.971498			
44891	10.010921	-3.040660	0.849464	0.430017	0.402737	0.667705	-79.733689	-75.359725	-107.431670			
44892	10.314654	-2.826256	1.126104	0.655157	0.081190	0.921002	-79.623508	-75.304426	-107.271872			
44893	10.582576	-2.389285	0.907568	0.355557	-0.381874	1.061640	-79.218827	-75.234858	-107.470369			
44894	10.471663	-1.856456	0.700922	0.073844	-0.847336	0.811338	-78.503440	-75.152649	-108.037298			
44895	10.275221	-1.452971	0.755746	0.064468	-1.196247	0.523034	-77.636735	-75.077189	-108.780010			
44896	9.954784	-1.141391	0.532763	-0.204767	-1.391002	0.122470	-76.601395	-74.996620	-109.664592			
44897	9.620462	-0.929354	0.379511	-0.394757	-1.493185	-0.264107	-75.472506	-74.914254	-110.646487			
44898	9.080941	-0.845058	0.253079	-0.527146	-1.426178	-0.816600	-74.275588	-74.811310	-111.704460			
44899	9.002578	-0.913195	0.293904	-0.521902	-1.344014	-0.874692	-73.086997	-74.703559	-112.753428			
44900	8.734839	-0.597001	0.234871	-0.629536	-1.575073	-1.220154	-71.893372	-74.591155	-113.807541			
44901	8.452575	-0.363407	0.101163	-0.797726	-1.715038	-1.565843	-70.773891	-74.471404	-114.835475			
44902	8.069930	-0.010023	-0.038579	-0.964551	-1.946963	-2.040673	-69.745856	-74.348975	-115.782994			
44903	7.909195	0.338921	-0.041948	-1.012964	-2.242897	-2.288379	-68.892088	-74.251806	-116.572560			
44904	7.940838	0.344340	0.312869	-0.693681	-2.292174	-2.227303	-68.176331	-74.182229	-117.174230			
44905	8.187172	0.515774	0.935232	-0.144199	-2.580312	-1.971028	-67.507509	-74.112611	-117.685556			
44906	8.422103	0.649840	1.263355	0.117450	-2.798944	-1.744091	-66.806434	-74.013161	-118.267288			
44907	8.558534	0.406819	1.532828	0.353572	-2.626874	-1.521850	-66.106793	-73.872415	-118.920084			
44908	8.794674	0.107621	1.952245	0.722370	-2.444639	-1.171453	-65.436486	-73.702621	-119.565612			
44909	8.816889	-0.571878	2.010218	0.784522	-1.810905	-0.969015	-64.797754	-73.517056	-120.237322			
44910	9.143778	-1.343514	1.411340	0.159077	-1.098112	-0.529677	-64.219591	-73.326958	-120.893437			
44911	9.676275	-1.990312	0.726974	-0.590397	-0.546981	0.060115	-63.663480	-73.138596	-121.541803			
44912	10.487730	-2.165989	0.203538	-1.261118	-0.533586	0.810405	-63.086912	-72.953285	-122.214612			
44913	11.039846	-2.190908	-0.373809	-1.959768	-0.592641	1.260971	-62.542344	-72.777299	-122.843827			
44914	11.173084	-2.012753	-0.823387	-2.480452	-0.756924	1.270688	-62.092590	-72.598880	-123.356913			
44915	10.822424	-1.925027	-1.244418	-2.877150	-0.721628	0.844720	-61.916110	-72.424997	-123.561204			
44916	10.537487	-2.004635	-0.807959	-2.413909	-0.648330	0.649751	-62.005359	-72.260853	-123.402887			
44917	10.894436	-2.069300	0.118330	-1.564302	-0.813861	1.136068	-62.211099	-72.128377	-122.985065			
44918	11.885261	-1.947945	1.444757	-0.436061	-1.355708	2.233604	-62.167521	-72.040945	-122.692898			
44919	12.455571	-2.112076	2.277085	0.283398	-1.437079	2.940417	-61.736721	-71.988415	-122.876303			
44920	12.031397	-2.468778	2.909576	0.967037	-1.032953	2.729749	-61.129700	-71.982340	-123.428371			
44921	11.653632	-2.623589	2.961499	1.068511	-0.769298	2.423621	-60.797840	-72.064757	-123.935553			
44922	11.963305	-2.827091	2.202071	0.290227	-0.553300	2.660153	-61.043054	-72.240861	-124.111344			
44923	12.379287	-3.648981	0.824891	-1.024680	0.302471	3.075301	-61.886769	-72.468570	-123.886143			
44924	12.632169	-4.329056	-0.239424	-1.966232	1.040073	3.356248	-63.073963	-72.696296	-123.421154			
44925	12.685163	-5.504019	-1.115382	-2.611153	2.290705	3.618055	-64.320930	-72.886553	-122.944514			
44926	12.532374	-6.365055	-1.417690	-2.677464	3.218426	3.680129	-65.238010	-73.002758	-122.754089			
44927	11.094863	-6.882444	-1.684825	-2.565916	4.129025	2.421262	-65.553765	-73.026777	-123.065478			
44928	9.436151	-6.989593	-1.328295	-1.894690	4.598582	0.907520	-65.311783	-73.001826	-123.781245			
44929	7.788342	-7.229913	-0.298120	-0.573332	5.069163	-0.485650	-64.637823	-72.982456	-124.775191			
44930	6.903616	-7.552988	0.937981	0.820083	5.393087	-1.104684	-63.636368	-73.034189	-125.914564			
44931	7.449137	-7.155656	2.268995	1.944039	4.687522	-0.534281	-62.391083	-73.211627	-127.080008			
44932	7.666007	-6.081018	2.724151	2.162533	3.598613	-0.563896	-60.908512	-73.484074	-128.335979			
44933	7.834239	-4.645389	3.050801	2.218426	2.217334	-0.733951	-59.301046	-73.828326	-129.627357			
44934	8.326281	-3.275997	3.276092	2.145587	0.856172	-0.568532	-57.792398	-74.229973	-130.810520			
44935	9.452665	-2.500702	3.233326	1.801971	-0.013635	0.326969	-56.616394	-74.666250	-131.702353			
44936	11.102214	-2.145315	2.650947	0.917649	-0.494324	1.754588	-55.904259	-75.076993	-132.186990			
44937	12.463300	-1.651119	1.845495	-0.128754	-1.031291	2.851643	-55.669383	-75.415711	-132.261432			
44938	13.444443	-1.754180	1.175586	-0.894118	-0.961522	3.733084	-55.775691	-75.664010	-132.118797			
44939	12.977133	-2.369594	1.078220	-0.801709	-0.231888	3.396662	-55.861507	-75.817779	-132.079922			
44940	12.130931	-2.830329	1.121874	-0.545814	0.382356	2.676696	-55.810915	-75.895555	-132.211182			
44941	11.248679	-2.939077	1.325985	-0.187931	0.631303	1.870433	-55.456196	-75.911948	-132.645388			
44942	10.319859	-2.728389	1.584378	0.173958	0.567637	0.962344	-54.804670	-75.871782	-133.393014			
44943	9.532147	-2.335235	2.043096	0.674227	0.268623	0.185438	-53.910347	-75.790961	-134.434410			
44944	8.721971	-1.885040	2.425089	1.088686	-0.074642	-0.630301	-52.837265	-75.670437	-135.750411			
44945	7.809775	-1.393236	2.729475	1.438057	-0.435235	-1.558833	-51.699658	-75.529793	-137.205888			
44946	7.219797	-0.954165	2.834749	1.543173	-0.773963	-2.190935	-50.562713	-75.384130	-138.727382			
44947	6.940021	-0.708044	2.803642	1.486894	-0.956748	-2.505209	-49.488619	-75.251106	-140.208086			
44948	6.729474	-0.308476	2.986369	1.603751	-1.338883	-2.746245	-48.460275	-75.146170	-141.633633			
44949	6.823996	-0.157991	2.787696	1.331685	-1.454291	-2.708135	-47.492612	-75.087261	-142.968202			
44950	7.099050	-0.199338	2.460158	0.932116	-1.378538	-2.483342	-46.480018	-75.058217	-144.334123			
44951	7.077520	-0.350791	2.028508	0.513706	-1.119424	-2.545499	-45.285435	-75.026860	-145.876618			
44952	7.174562	-0.690315	1.594073	0.100493	-0.685939	-2.463460	-43.980485	-74.979439	-147.564832			
44953	6.457279	-1.054580	1.537190	0.234211	-0.192603	-3.098566	-42.623770	-74.863924	-149.359903			
44954	6.493006	-1.156672	1.387383	0.068166	-0.040762	-3.073592	-41.416317	-74.728361	-151.065467			
44955	6.266992	-1.708721	1.110721	-0.063368	0.605257	-3.250813	-40.442853	-74.574509	-152.577812			
44956	6.269399	-1.569153	1.342920	0.106212	0.429471	-3.226697	-39.755955	-74.429502	-153.806667			
44957	6.410687	-1.663578	1.277434	0.014805	0.526285	-3.088178	-39.450137	-74.315062	-154.660720			
44958	6.599175	-1.493132	1.416718	0.053353	0.303249	-2.906832	-39.495705	-74.223300	-155.159906			
44959	6.804430	-1.748843	1.485822	0.124480	0.495135	-2.649887	-39.857065	-74.152933	-155.309011			
44960	6.520340	-1.685424	1.958644	0.626989	0.316851	-2.834278	-40.453704	-74.105923	-155.174503			
44961	6.656163	-1.648009	1.955401	0.589486	0.239700	-2.710645	-41.229240	-74.092608	-154.814528			
44962	6.624973	-1.695466	2.052197	0.713523	0.230047	-2.712389	-42.156078	-74.106598	-154.286784			
44963	6.910321	-2.069414	1.873528	0.595081	0.571327	-2.405634	-43.174322	-74.169421	-153.632872			
44964	7.239395	-1.994628	1.841107	0.493143	0.438808	-2.109366	-44.236897	-74.266855	-152.870852			
44965	7.722667	-1.972175	1.670395	0.245276	0.380223	-1.681612	-45.311856	-74.394196	-152.032994			
44966	8.161668	-1.781862	1.387252	-0.137931	0.205576	-1.348005	-46.360386	-74.534295	-151.145303			
44967	8.507421	-1.511124	1.135477	-0.489207	-0.039792	-1.111657	-47.365751	-74.686051	-150.235935			
44968	8.743413	-1.264404	0.928661	-0.763428	-0.260408	-0.966356	-48.375490	-74.860722	-149.268576			
44969	9.227723	-0.874389	1.041896	-0.828171	-0.747568	-0.552234	-49.383066	-75.070003	-148.252035			
44970	9.809931	-0.599807	1.316484	-0.724483	-1.188187	0.005191	-50.284014	-75.278354	-147.307468			
44971	10.157384	-0.411289	1.579353	-0.556662	-1.508400	0.348546	-51.005969	-75.452615	-146.550088			
44972	10.564154	-0.281232	1.729354	-0.497297	-1.743048	0.741244	-51.572715	-75.593820	-145.984200			
44973	11.033895	-0.391163	1.800873	-0.465489	-1.733956	1.229036	-51.991994	-75.688976	-145.645538			
44974	11.519687	-0.564132	2.100756	-0.218201	-1.739156	1.778789	-52.247931	-75.726515	-145.545561			
44975	11.888719	-0.837330	2.167332	-0.150409	-1.562495	2.198810	-52.412464	-75.706581	-145.600741			
44976	11.869939	-1.098681	2.048098	-0.191810	-1.288763	2.212267	-52.579962	-75.634025	-145.697471			
44977	11.750832	-1.095810	1.871662	-0.348043	-1.235475	2.067480	-52.823930	-75.528375	-145.741436			
44978	11.291102	-0.699423	1.637628	-0.606183	-1.485948	1.504752	-53.155799	-75.416373	-145.712829			
44979	10.948248	-0.041610	1.420959	-0.945875	-1.999643	1.003582	-53.631255	-75.356911	-145.506203			
44980	10.945932	0.437529	2.121961	-0.443326	-2.701255	1.004624	-54.070356	-75.345741	-145.274755			
44981	10.847955	0.289545	3.095702	0.532301	-2.894078	1.081637	-54.348901	-75.406549	-145.137873			
44982	11.703408	-0.346710	3.749709	1.176026	-2.649510	2.135002	-54.432096	-75.552370	-145.192403			
44983	13.819039	-0.925323	3.048747	0.298352	-2.151551	4.201542	-54.326487	-75.729156	-145.478677			
44984	15.903639	-1.417173	1.375814	-1.501921	-1.373115	6.083402	-54.182935	-75.820244	-145.956940			
44985	16.179348	-2.593269	0.258264	-2.204311	0.087059	6.426046	-54.459384	-75.784729	-146.174223			
44986	15.881287	-4.909808	0.106420	-1.507058	2.287725	6.583275	-55.254137	-75.634474	-145.844167			
44987	15.923892	-7.361775	0.532398	-0.312190	4.306954	7.199115	-55.674493	-75.305185	-145.617348			
44988	15.019302	-7.831453	0.630942	0.039422	4.759259	6.455546	-55.369730	-74.802306	-145.964171			
44989	12.484404	-7.879786	1.103100	0.904673	4.944801	4.111995	-54.671457	-74.192918	-146.711899			
44990	9.986745	-7.907764	2.332000	2.479471	4.839984	1.940253	-54.124870	-73.645930	-147.267864			
44991	8.610334	-7.643798	3.317630	3.519769	4.410958	0.757373	-53.862378	-73.264819	-147.327496			
44992	8.261162	-6.563568	3.407085	3.258344	3.438766	0.211945	-53.699289	-73.046067	-147.179331			
44993	7.516288	-5.340141	4.005338	3.544662	2.225687	-0.672884	-53.509530	-72.945944	-147.060024			
44994	6.682344	-4.000305	3.978885	3.276531	1.156648	-1.786843	-53.469296	-72.946101	-146.827027			
44995	6.250048	-2.746220	3.565216	2.611518	0.232547	-2.571040	-53.911295	-73.033361	-146.216826			
44996	6.145495	-2.365262	2.389658	1.463980	0.312099	-2.969350	-54.979306	-73.176935	-145.064855			
44997	6.649134	-1.903263	1.038195	-0.002720	0.261327	-2.823934	-56.497434	-73.334701	-143.415588			
44998	7.584322	-1.660988	-0.049823	-1.249522	0.226016	-2.153016	-58.095127	-73.449845	-141.640944			
44999	8.350251	-1.903208	-0.583630	-1.797064	0.455201	-1.431006	-59.407317	-73.465785	-140.191019			
45000	9.419031	-2.317811	-0.655000	-1.945329	0.621343	-0.307484	-60.243270	-73.375909	-139.290778			
45001	9.875818	-2.960673	-0.315288	-1.533044	0.972274	0.341186	-60.509169	-73.185984	-139.136164			
45002	9.441263	-3.582051	0.661605	-0.364025	1.257391	0.221883	-60.398357	-72.948522	-139.543007			
45003	9.177767	-3.804469	1.092351	0.140649	1.340519	0.090938	-60.310097	-72.795417	-140.003604			
45004	8.009815	-3.374149	1.118671	0.290212	1.148622	-1.129953	-60.419864	-72.770321	-140.337420			
45005	6.972322	-3.452382	0.981429	0.449848	1.460456	-2.121133	-60.889637	-72.926244	-140.284032			
45006	6.681020	-3.346071	0.646642	0.220897	1.544086	-2.476674	-61.629858	-73.247975	-139.843022			
45007	6.626851	-3.270959	0.484585	0.119874	1.555643	-2.572909	-62.468410	-73.675571	-139.188294			
45008	6.640897	-3.549451	0.647597	0.425782	1.756454	-2.474247	-63.300556	-74.121036	-138.452937			
45009	6.535191	-3.839840	0.707677	0.663767	2.030022	-2.505703	-64.151035	-74.529717	-137.614297			
45010	6.331977	-4.457757	0.668092	0.933910	2.650963	-2.566178	-65.072737	-74.839175	-136.665414			
45011	7.026772	-4.592767	0.492460	0.733347	2.716047	-1.888253	-66.300408	-75.093019	-135.250342			
45012	8.709195	-3.619572	0.076559	-0.243183	1.671920	-0.533544	-67.725069	-75.293607	-133.534632			
45013	9.742325	-2.720505	-0.084351	-0.828318	0.701284	0.244300	-68.886804	-75.406392	-132.090054			
45014	10.131838	-1.924077	-0.001786	-1.052594	-0.150992	0.445255	-69.460955	-75.415624	-131.253642			
45015	10.189033	-1.434749	0.441098	-0.806008	-0.785907	0.424605	-69.480540	-75.343908	-131.009793			
45016	9.902632	-1.236446	0.389312	-0.887968	-0.905653	0.093559	-69.099209	-75.199902	-131.239848			
45017	9.225112	-1.204585	0.352180	-0.845915	-0.800893	-0.575769	-68.714748	-75.042803	-131.547110			
45018	8.602577	-1.244123	0.249623	-0.844995	-0.618603	-1.180320	-68.559714	-74.906034	-131.691973			
45019	8.025687	-1.384551	0.084721	-0.863088	-0.331121	-1.720640	-68.730985	-74.827420	-131.544056			
45020	7.804156	-1.576613	0.240868	-0.612943	-0.180629	-1.872900	-69.210332	-74.808598	-131.108499			
45021	8.489704	-1.930034	0.613097	-0.251770	-0.138710	-1.089540	-69.887824	-74.852195	-130.463983			
45022	9.293977	-2.222594	0.910892	0.010219	-0.148792	-0.214492	-70.500753	-74.916764	-129.866171			
45023	10.188055	-2.635255	1.436798	0.511007	-0.145821	0.794997	-70.961643	-74.973313	-129.421357			
45024	10.765041	-2.623373	1.466095	0.454943	-0.286528	1.351029	-71.095960	-74.993615	-129.286261			
45025	11.056312	-1.947660	1.145565	-0.117465	-0.844016	1.439937	-70.739336	-74.962987	-129.641244			
45026	10.622999	-1.450527	0.737936	-0.619130	-1.055937	0.864306	-69.892293	-74.863154	-130.507881			
45027	10.006005	-0.971451	0.536811	-0.908071	-1.285236	0.130919	-68.802317	-74.713234	-131.612129			
45028	9.367640	-0.845318	0.226455	-1.181299	-1.151838	-0.550071	-67.723261	-74.527121	-132.680565			
45029	8.831794	-0.790445	0.203978	-1.173857	-1.082481	-1.088176	-66.827135	-74.331882	-133.527718			
45030	8.605014	-0.647559	0.282282	-1.148690	-1.196843	-1.339599	-66.147958	-74.130223	-134.144223			
45031	8.209812	-0.586148	0.232404	-1.175867	-1.162972	-1.746503	-65.660452	-73.924298	-134.600261			
45032	7.803505	-0.599168	0.173472	-1.178344	-1.060757	-2.146527	-65.385417	-73.702061	-134.869984			
45033	8.114532	-0.627022	0.266201	-1.171024	-1.146922	-1.836295	-65.307634	-73.482753	-134.947532			
45034	8.316881	-0.968053	-0.006022	-1.379006	-0.799995	-1.592838	-65.272527	-73.252422	-134.993900			
45035	8.520900	-0.942114	-0.072606	-1.515957	-0.863208	-1.418926	-65.194432	-73.018047	-135.068532			
45036	8.851496	-1.138907	-0.036747	-1.518496	-0.786251	-1.053505	-65.004795	-72.770629	-135.270128			
45037	9.099308	-1.453415	-0.146915	-1.607946	-0.531422	-0.753805	-64.730336	-72.517308	-135.548678			
45038	9.235102	-1.843444	0.054125	-1.368331	-0.296585	-0.499909	-64.384535	-72.248230	-135.868953			
45039	9.208378	-2.213641	0.269735	-1.091472	-0.050687	-0.401359	-63.969328	-71.975432	-136.151328			
45040	9.320673	-2.469290	0.408306	-0.956643	0.089432	-0.209789	-63.536645	-71.703078	-136.380586			
45041	9.379516	-2.490240	0.735364	-0.710604	-0.036910	-0.106461	-63.040326	-71.446111	-136.566261			
45042	9.363525	-1.990273	1.243981	-0.433632	-0.677850	-0.193093	-62.495338	-71.227883	-136.731182			
45043	9.444109	-1.488867	1.524672	-0.376062	-1.253151	-0.219947	-61.997502	-71.077424	-136.845570			
45044	9.559438	-0.878743	1.545532	-0.579986	-1.842588	-0.283145	-61.658738	-71.003395	-136.845744			
45045	10.001657	-0.377346	1.570556	-0.805278	-2.406404	-0.004378	-61.526632	-71.009515	-136.699992			
45046	10.229759	-0.665097	1.368216	-0.955569	-2.126273	0.263432	-61.629110	-71.058274	-136.411206			
45047	10.375685	-0.970653	1.450658	-0.803858	-1.909996	0.502692	-62.016497	-71.145799	-135.876427			
45048	10.655039	-1.560723	1.843729	-0.301562	-1.569422	0.995219	-62.630201	-71.248287	-135.094638			
45049	11.022761	-1.814403	1.698128	-0.404974	-1.389067	1.393704	-63.307107	-71.343620	-134.183466			
45050	11.581914	-2.160947	1.568768	-0.516810	-1.174993	2.003558	-63.752685	-71.385793	-133.484516			
45051	12.099662	-2.476334	1.963980	-0.157383	-1.136103	2.640255	-63.735352	-71.387990	-133.252769			
45052	12.132288	-2.608422	2.506245	0.374714	-1.180656	2.786643	-63.397998	-71.388506	-133.441824			
45053	12.051960	-2.753180	2.280372	0.207037	-0.938358	2.721522	-63.102619	-71.452621	-133.754591			
45054	12.385865	-2.917806	1.813231	-0.257675	-0.693749	3.019432	-63.040402	-71.600001	-133.995813			
45055	12.393044	-3.844663	0.980248	-0.769094	0.445299	3.169602	-63.249094	-71.799281	-134.094137			
45056	12.445436	-4.272065	-0.362141	-1.871210	1.278034	3.154013	-63.662007	-72.040177	-134.061492			
45057	11.879242	-5.104744	-0.963437	-2.012741	2.396879	2.769293	-64.075647	-72.294375	-134.133597			
45058	11.222571	-6.002976	-1.026817	-1.594914	3.423537	2.384486	-64.483766	-72.554853	-134.286163			
45059	10.294667	-6.839816	-0.763190	-0.815732	4.333334	1.758901	-64.955727	-72.826093	-134.358059			
45060	8.722608	-7.049922	-0.857049	-0.423631	4.912558	0.297037	-65.458136	-73.098166	-134.256095			
45061	8.306098	-6.932996	-1.023784	-0.454070	4.970273	-0.158900	-65.933186	-73.379883	-134.010502			
45062	8.132237	-7.027707	-0.630441	0.035647	4.975306	-0.264694	-66.228366	-73.662802	-133.841803			
45063	8.604855	-7.502204	0.135318	0.847821	5.073177	0.379893	-66.139869	-73.955507	-133.930908			
45064	8.672756	-7.693508	0.721572	1.456987	5.077442	0.532544	-65.580181	-74.245822	-134.288703			
45065	8.723273	-6.979560	1.553347	1.982074	4.194104	0.468500	-64.544419	-74.523340	-134.931869			
45066	8.268996	-6.092757	2.235488	2.398246	3.317499	-0.130895	-63.268334	-74.805391	-135.694154			
45067	8.076561	-4.867059	2.718728	2.489277	2.152299	-0.567100	-62.072027	-75.120998	-136.315494			
45068	8.465651	-3.765522	2.873476	2.233537	1.100243	-0.437006	-61.244958	-75.481288	-136.580624			
45069	9.623700	-2.895420	2.763723	1.695812	0.204376	0.469291	-60.951773	-75.881467	-136.345460			
45070	10.653898	-2.399731	2.542089	1.219479	-0.300499	1.329504	-61.168820	-76.272553	-135.656629			
45071	11.445854	-2.119022	2.089125	0.649588	-0.514188	1.984573	-61.757385	-76.626150	-134.679784			
45072	11.342822	-2.328586	1.467767	0.198577	-0.091523	1.857280	-62.392494	-76.885689	-133.755445			
45073	10.972652	-2.500159	1.017794	-0.078338	0.275249	1.483496	-62.855665	-77.066682	-133.039081			
45074	10.109786	-2.647894	0.873041	-0.024212	0.609082	0.656779	-62.790034	-77.153161	-132.873814			
45075	9.704595	-2.415830	1.186808	0.272177	0.384654	0.247224	-62.164016	-77.167074	-133.297296			
45076	9.040930	-1.879419	1.667130	0.668687	-0.126489	-0.453915	-60.910486	-77.101257	-134.404564			
45077	8.519153	-1.425828	2.151552	1.053601	-0.579772	-0.992732	-59.268798	-76.973841	-136.001049			
45078	7.715690	-0.852409	2.664792	1.474714	-1.113923	-1.816213	-57.418782	-76.783860	-137.891249			
45079	7.143217	-0.224649	2.919626	1.598987	-1.670923	-2.447151	-55.581738	-76.573623	-139.820239			
45080	6.641054	-0.111084	3.060951	1.735414	-1.725961	-2.921067	-53.863052	-76.358737	-141.722826			
45081	6.793728	-0.354733	3.152019	1.799533	-1.528577	-2.696462	-52.333973	-76.169973	-143.474324			
45082	7.080593	-0.665228	2.974777	1.606343	-1.211846	-2.371080	-51.069915	-76.024508	-144.989734			
45083	7.400373	-0.950845	2.670644	1.289445	-0.883954	-2.043659	-50.010488	-75.924667	-146.286784			
45084	7.913707	-1.254308	2.190655	0.781866	-0.510562	-1.558783	-49.193462	-75.864834	-147.304788			
45085	8.212781	-1.499089	1.686490	0.288636	-0.153642	-1.301852	-48.540209	-75.824009	-148.144209			
45086	8.624493	-1.864924	1.328038	-0.052890	0.262196	-0.893499	-47.951012	-75.796954	-148.874936			
45087	8.172917	-2.350188	1.322725	0.151908	0.797555	-1.244705	-47.251839	-75.747379	-149.677588			
45088	8.074172	-2.340843	1.417170	0.241355	0.790014	-1.327539	-46.580653	-75.699098	-150.405340			
45089	7.685478	-2.183835	1.192177	0.055066	0.773598	-1.771825	-45.968903	-75.653951	-151.083342			
45090	7.157757	-1.962077	1.187209	0.092232	0.641498	-2.324519	-45.534905	-75.625779	-151.588591			
45091	6.796682	-1.842376	1.433184	0.363482	0.504713	-2.653330	-45.302675	-75.639370	-151.894493			
45092	6.540610	-1.562091	1.822397	0.708829	0.155613	-2.883461	-45.279300	-75.699308	-151.965982			
45093	6.490571	-1.384319	2.181161	1.016673	-0.113676	-2.902206	-45.448389	-75.813572	-151.803743			
45094	6.732534	-1.153461	2.623781	1.333587	-0.494400	-2.635029	-45.823457	-75.972628	-151.391574			
45095	7.034027	-0.881102	2.853535	1.436043	-0.857437	-2.356211	-46.374192	-76.151447	-150.768074			
45096	7.333867	-0.577999	2.906035	1.371277	-1.198538	-2.115433	-47.090940	-76.334292	-149.962019			
45097	7.750805	-0.281698	2.770971	1.115000	-1.494113	-1.790414	-47.956331	-76.515362	-148.992262			
45098	8.229043	0.041023	2.403012	0.625975	-1.757928	-1.445432	-48.951015	-76.685309	-147.888884			
45099	8.345496	0.410649	1.824146	0.001127	-1.965974	-1.489335	-50.130048	-76.846982	-146.631776			
45100	8.615580	0.676747	1.336942	-0.535396	-2.130067	-1.348083	-51.532729	-77.006922	-145.178282			
45101	9.127539	0.679709	1.362190	-0.555643	-2.234345	-0.850088	-53.026255	-77.151648	-143.615618			
45102	9.624423	0.561719	1.555161	-0.377869	-2.275985	-0.323727	-54.451460	-77.267127	-142.095866			
45103	9.992948	0.335583	1.684724	-0.208639	-2.180243	0.087448	-55.754146	-77.352597	-140.698431			
45104	10.506452	-0.072945	1.653178	-0.173200	-1.885103	0.653451	-56.898042	-77.407245	-139.514075			
45105	11.283877	-0.205603	1.869219	-0.027082	-1.960458	1.457533	-57.817898	-77.426660	-138.593884			
45106	11.984425	-0.588297	1.778257	-0.107243	-1.700997	2.196883	-58.424938	-77.368626	-138.063131			
45107	12.551290	-0.950753	1.455234	-0.409800	-1.376867	2.776702	-58.827597	-77.246846	-137.793712			
45108	12.568560	-1.142387	0.991467	-0.817345	-1.093837	2.772705	-59.077096	-77.074394	-137.709654			
45109	12.074644	-0.840883	1.005779	-0.833547	-1.337592	2.230219	-59.085080	-76.866712	-137.871064			
45110	10.978940	0.075314	1.186020	-0.764797	-2.110239	0.999865	-59.024186	-76.687681	-138.092308			
45111	10.398210	0.943048	2.441173	0.254479	-3.232690	0.407702	-59.018518	-76.596131	-138.239969			
45112	10.544793	0.868622	3.962593	1.673614	-3.657417	0.745325	-59.015332	-76.614838	-138.375184			
45113	12.005994	0.437284	4.800075	2.333560	-3.727847	2.354213	-58.909727	-76.744315	-138.625941			
45114	13.962375	0.053958	3.660724	1.043106	-3.286900	4.203726	-58.772100	-76.935139	-138.992081			
45115	15.440925	-0.504183	1.961760	-0.629817	-2.416483	5.558997	-58.779314	-77.107961	-139.323873			
45116	15.846403	-1.773098	0.885799	-1.313485	-0.922305	6.076336	-59.108293	-77.197831	-139.362413			
45117	16.527984	-4.322198	0.953290	-0.575882	1.328264	7.236312	-59.629952	-77.153812	-139.105266			
45118	17.195067	-7.152323	0.548404	-0.231632	3.961898	8.391044	-59.493974	-76.859028	-139.320023			
45119	16.550463	-8.358356	-0.982155	-1.305308	5.634032	7.830889	-58.518161	-76.308260	-140.333431			
45120	14.515056	-8.445929	-1.262532	-1.347267	6.062600	5.841104	-57.255797	-75.602014	-141.713241			
45121	11.034009	-8.186746	0.105064	0.359292	5.850125	2.614218	-56.078419	-74.874773	-142.972311			
45122	7.781607	-7.939739	1.431252	2.061250	5.647114	-0.352170	-55.243166	-74.255873	-143.663702			
45123	6.755530	-6.442001	2.420207	2.659501	4.072571	-1.485947	-54.737911	-73.849004	-143.890901			
45124	5.752500	-5.116252	3.801802	3.720674	2.548291	-2.506278	-54.336983	-73.643517	-144.039528			
45125	5.203129	-3.899060	4.619359	4.231630	1.254729	-3.169449	-54.191551	-73.655246	-143.961151			
45126	5.242785	-2.643458	4.557934	3.815981	0.118715	-3.435107	-54.516469	-73.855233	-143.446006			
45127	5.722034	-1.754149	3.485960	2.492853	-0.431754	-3.365232	-55.424754	-74.172568	-142.401512			
45128	6.354635	-1.339221	2.200625	1.091075	-0.513927	-3.062667	-56.808927	-74.514647	-140.910542			
45129	7.352148	-1.275625	0.865213	-0.322018	-0.331184	-2.314946	-58.413066	-74.798532	-139.155559			
45130	8.418434	-1.343770	0.034218	-1.233466	-0.216024	-1.380106	-59.961036	-74.963892	-137.449360			
45131	9.905733	-1.933939	-0.811757	-2.103537	0.301148	0.087152	-61.071509	-74.979848	-136.234357			
45132	10.646556	-3.065451	-0.850051	-1.951573	1.201222	1.060080	-61.464948	-74.831027	-135.904882			
45133	11.056482	-3.838944	-0.180151	-1.204863	1.613640	1.718143	-61.263912	-74.594275	-136.248867			
45134	10.033825	-3.997917	-0.018418	-0.849599	1.880783	0.789295	-60.888292	-74.344208	-136.893950			
45135	8.502695	-4.070502	0.307512	-0.245820	2.113127	-0.623912	-60.778218	-74.170149	-137.318348			
45136	7.671262	-4.085854	0.354480	-0.029695	2.251988	-1.410559	-61.110069	-74.130341	-137.237579			
45137	7.541331	-3.930892	0.279781	-0.094877	2.145423	-1.579224	-61.789150	-74.227137	-136.708032			
45138	7.764200	-3.727144	0.559515	0.099606	1.815519	-1.375786	-62.572766	-74.398275	-135.975687			
45139	7.455955	-3.602612	0.565046	0.165721	1.754286	-1.701937	-63.231590	-74.590772	-135.290797			
45140	6.680194	-3.622517	0.308494	0.108506	2.003403	-2.476657	-63.813830	-74.758148	-134.646649			
45141	6.440667	-3.980116	0.131901	0.117308	2.436633	-2.644011	-64.517159	-74.902523	-133.833224			
45142	6.621775	-4.100183	-0.016800	0.002147	2.556674	-2.455850	-65.334074	-75.015925	-132.837061			
45143	6.938437	-3.733571	-0.123711	-0.240326	2.180951	-2.244173	-66.247455	-75.116294	-131.643787			
45144	7.495238	-3.160236	-0.243512	-0.593457	1.565740	-1.848945	-67.061715	-75.190463	-130.487846			
45145	8.257027	-2.721518	0.190974	-0.416146	0.861669	-1.169427	-67.596504	-75.239788	-129.579507			
45146	8.968353	-2.301785	0.241271	-0.592099	0.307675	-0.574585	-67.668870	-75.243775	-129.166226			
45147	9.057796	-1.863412	0.165639	-0.803330	-0.099252	-0.599208	-67.348777	-75.199697	-129.220775			
45148	9.018893	-1.934485	-0.003999	-0.956045	0.023299	-0.638371	-66.989404	-75.126709	-129.419405			
45149	8.724032	-2.023143	-0.121261	-1.011804	0.195300	-0.915798	-66.814047	-75.056887	-129.496837			
45150	8.497651	-2.172982	-0.244949	-1.062420	0.409150	-1.112355	-66.835235	-74.999286	-129.383685			
45151	8.483994	-1.938733	-0.323605	-1.197908	0.206241	-1.189229	-66.981074	-74.969814	-129.119291			
45152	8.738918	-1.823396	0.057657	-0.902022	-0.071904	-0.931361	-67.221665	-74.967429	-128.754978			
45153	9.141963	-1.623705	0.592738	-0.497538	-0.501046	-0.535584	-67.550725	-74.987842	-128.279507			
45154	9.548519	-1.427900	1.244971	0.024446	-0.959139	-0.125454	-67.878228	-75.002099	-127.820265			
45155	9.989009	-1.083742	1.446820	0.072828	-1.433953	0.236520	-68.034256	-75.001651	-127.549911			
45156	10.394972	-0.510433	1.665880	0.075486	-2.119122	0.511787	-67.885944	-74.962728	-127.632386			
45157	10.319335	-0.174896	1.552632	-0.120767	-2.386274	0.347086	-67.421654	-74.885155	-128.104131			
45158	9.780155	0.333374	1.381767	-0.354684	-2.702428	-0.313065	-66.796620	-74.776676	-128.787551			
45159	9.242882	0.536663	0.969758	-0.746619	-2.666060	-0.924837	-66.229390	-74.643980	-129.467821			
45160	8.836552	0.318496	0.541885	-1.066383	-2.260567	-1.313728	-65.903250	-74.492988	-129.975083			
45161	8.709843	0.013982	0.350021	-1.178184	-1.904460	-1.388382	-65.871517	-74.323098	-130.208105			
45162	8.939727	-0.315447	0.241481	-1.258189	-1.632383	-1.104717	-66.124515	-74.124496	-130.170491			
45163	9.064918	-0.521141	-0.108035	-1.574762	-1.394014	-0.979074	-66.545330	-73.890376	-129.949410			
45164	9.020118	-0.622060	-0.235960	-1.676279	-1.290289	-1.018926	-67.021761	-73.615953	-129.643582			
45165	9.067257	-0.668198	-0.094937	-1.554907	-1.342606	-0.955480	-67.444340	-73.316961	-129.340644			
45166	9.255352	-0.964238	0.242080	-1.214562	-1.256239	-0.669583	-67.651365	-72.986731	-129.235871			
45167	9.272542	-1.364125	0.580782	-0.824991	-1.034863	-0.516109	-67.563292	-72.644055	-129.379307			
45168	9.341851	-1.568572	0.877054	-0.548538	-0.989015	-0.367028	-67.249169	-72.294949	-129.735175			
45169	9.417851	-1.771788	1.041179	-0.407377	-0.899741	-0.223976	-66.772851	-71.959264	-130.267808			
45170	9.503700	-1.808540	0.891933	-0.614244	-0.863338	-0.155374	-66.182585	-71.638642	-130.966568			
45171	9.605345	-1.877736	0.863531	-0.705204	-0.830917	-0.048152	-65.547227	-71.341700	-131.780167			
45172	9.432754	-1.678186	0.932572	-0.716041	-1.005648	-0.266037	-64.980161	-71.078444	-132.572396			
45173	9.326696	-1.530451	0.961549	-0.754659	-1.133423	-0.410571	-64.624650	-70.873253	-133.193657			
45174	9.332341	-1.521109	0.712664	-1.023456	-1.071334	-0.446846	-64.585175	-70.743401	-133.520218			
45175	9.410076	-2.092926	0.315110	-1.263183	-0.448110	-0.261106	-64.904881	-70.685874	-133.460362			
45176	9.641670	-2.719113	0.369269	-1.074730	0.032376	0.154035	-65.504155	-70.696610	-133.002524			
45177	10.139453	-3.432835	0.238364	-1.076594	0.585456	0.824404	-66.150790	-70.748089	-132.338954			
45178	10.854672	-4.308757	0.579210	-0.640625	1.079113	1.812708	-66.534398	-70.804517	-131.797830			
45179	11.619500	-4.704420	0.882138	-0.400903	1.151179	2.694773	-66.519880	-70.866505	-131.557348			
45180	11.945832	-4.198969	1.108876	-0.401672	0.555100	2.879605	-66.177875	-70.959569	-131.609401			
45181	11.754983	-3.959794	1.405181	-0.153015	0.325135	2.665487	-65.723683	-71.108843	-131.859145			
45182	11.785098	-4.103005	1.856963	0.304921	0.356038	2.794909	-65.278570	-71.322171	-132.156834			
45183	12.035392	-4.163139	1.636423	0.076175	0.481658	3.017827	-64.941951	-71.607172	-132.443022			
45184	11.423838	-4.642551	0.177706	-0.997245	1.586402	2.376539	-64.895451	-71.971921	-132.586745			
45185	11.031345	-5.034630	-0.346493	-1.235579	2.263177	2.040949	-65.124394	-72.400560	-132.585389			
45186	11.077887	-5.926594	-0.327923	-0.891188	3.126209	2.327458	-65.577837	-72.845032	-132.474654			
45187	11.040120	-6.430433	-0.721602	-1.004587	3.777632	2.372325	-66.185858	-73.282279	-132.188317			
45188	10.753897	-6.563258	-1.322439	-1.372314	4.204055	2.058003	-66.739033	-73.680281	-131.853538			
45189	9.868268	-6.640919	-1.126014	-0.920976	4.439860	1.241334	-66.954907	-74.021169	-131.782014			
45190	9.046687	-6.970028	-0.491077	-0.031550	4.745264	0.586648	-66.704124	-74.304991	-132.065727			
45191	8.404252	-7.240350	0.362162	0.975338	4.892201	0.101949	-65.948620	-74.558610	-132.655842			
45192	8.077614	-6.692371	1.231366	1.664916	4.230305	-0.279384	-64.730192	-74.801769	-133.500329			
45193	7.388420	-5.959245	2.266138	2.507534	3.434172	-1.028927	-63.025634	-75.086749	-134.698090			
45194	6.791994	-5.085946	3.278165	3.281755	2.516541	-1.710819	-61.125321	-75.447401	-136.031790			
45195	6.846177	-3.919087	3.605888	3.240051	1.431052	-1.895316	-59.349519	-75.917978	-137.219576			
45196	7.702279	-2.761776	3.607950	2.790786	0.317949	-1.322753	-58.016215	-76.484215	-137.976875			
45197	9.122538	-2.131221	3.484781	2.310323	-0.351184	-0.094446	-57.347665	-77.108637	-138.124524			
45198	10.840152	-1.973467	3.141599	1.741919	-0.560721	1.497608	-57.532428	-77.746836	-137.471545			
45199	12.371597	-1.897529	2.679004	1.158247	-0.649733	2.917930	-58.509394	-78.333882	-136.081453			
45200	13.402742	-2.121851	2.064259	0.602288	-0.371650	3.894774	-59.983650	-78.801347	-134.269300			
45201	13.446210	-2.508506	1.290247	0.054248	0.211784	3.924466	-61.281051	-79.111046	-132.679605			
45202	12.870224	-2.889847	0.736840	-0.253331	0.806353	3.371482	-61.776496	-79.268237	-131.908914			
45203	11.985794	-2.956069	0.736224	-0.118930	1.009862	2.512311	-61.174172	-79.313170	-132.220926			
45204	11.254790	-2.686522	1.343497	0.466649	0.735424	1.803411	-59.653351	-79.276513	-133.492753			
45205	10.395889	-2.294913	2.034294	1.101499	0.350854	0.964259	-57.553133	-79.170487	-135.410325			
45206	9.520748	-1.942139	2.567338	1.589276	0.040938	0.111009	-55.271939	-79.008174	-137.613480			
45207	8.550332	-1.324971	3.074847	2.016904	-0.512599	-0.869128	-53.019412	-78.822105	-139.836847			
45208	7.913380	-1.076345	3.114623	2.034137	-0.655103	-1.511258	-50.985550	-78.626076	-141.932505			
45209	7.256835	-1.006192	3.020177	1.974634	-0.600353	-2.161826	-49.158941	-78.430736	-143.868411			
45210	6.979274	-0.786600	2.970700	1.877020	-0.751685	-2.459754	-47.579817	-78.251655	-145.572906			
45211	6.658742	-0.894712	2.496440	1.459151	-0.484840	-2.812168	-46.327677	-78.111972	-146.960630			
45212	6.825933	-0.825995	2.172818	1.076599	-0.481331	-2.698900	-45.429820	-78.026499	-147.979768			
45213	6.931013	-0.712522	1.936780	0.788576	-0.533941	-2.643952	-44.728927	-77.992145	-148.750702			
45214	6.846808	-1.063239	1.689667	0.631604	-0.116803	-2.709755	-44.214857	-77.964919	-149.344917			
45215	6.687670	-1.134153	1.667140	0.643608	-0.018579	-2.857402	-43.760128	-77.910590	-149.847085			
45216	6.469440	-1.243436	1.418806	0.456319	0.173661	-3.091497	-43.395221	-77.809229	-150.274302			
45217	6.098342	-1.284247	1.202968	0.313025	0.304027	-3.480566	-43.186050	-77.691469	-150.590072			
45218	5.809421	-1.473235	1.049127	0.250608	0.549192	-3.758265	-43.212260	-77.574118	-150.686136			
45219	5.888966	-1.172503	1.347051	0.445107	0.168095	-3.677311	-43.497451	-77.478891	-150.482469			
45220	6.397873	-0.880175	1.865800	0.772817	-0.311594	-3.142280	-43.954066	-77.373537	-150.098634			
45221	6.457401	-1.026887	2.004815	0.922557	-0.230902	-3.040144	-44.525543	-77.250910	-149.612406			
45222	6.456329	-0.804250	1.857145	0.728061	-0.430550	-3.099678	-45.333623	-77.151226	-148.890712			
45223	6.587416	-0.875929	1.816798	0.686313	-0.392896	-2.968961	-46.417580	-77.105571	-147.901383			
45224	6.778390	-0.625538	1.819978	0.611295	-0.685739	-2.826547	-47.784132	-77.132482	-146.606803			
45225	7.145766	-0.386046	1.626329	0.331209	-0.940033	-2.542033	-49.357622	-77.229392	-145.069337			
45226	7.526242	-0.159893	1.434857	0.066561	-1.184742	-2.241663	-51.063403	-77.376011	-143.374990			
45227	7.977045	0.018775	1.203505	-0.225423	-1.382243	-1.867859	-52.829154	-77.565501	-141.586334			
45228	8.499328	0.061129	1.077303	-0.385647	-1.484633	-1.383591	-54.586860	-77.790125	-139.779611			
45229	9.252884	-0.040878	1.166851	-0.332511	-1.531484	-0.619066	-56.161409	-78.032399	-138.127326			
45230	10.107326	-0.468813	1.217800	-0.249705	-1.264019	0.296734	-57.454259	-78.272461	-136.755985			
45231	10.928612	-0.842840	1.471280	0.021530	-1.084519	1.193342	-58.360330	-78.507310	-135.762168			
45232	11.454400	-1.259593	1.634993	0.250650	-0.788796	1.796699	-58.790354	-78.703140	-135.246801			
45233	11.951589	-1.189091	1.823139	0.383213	-0.952525	2.292021	-58.929739	-78.876702	-135.013852			
45234	12.456401	-1.007281	1.833576	0.316180	-1.176915	2.759237	-59.159951	-79.050704	-134.689224			
45235	13.159805	-0.918587	2.278493	0.668194	-1.448849	3.479040	-59.529159	-79.195392	-134.204190			
45236	12.890091	-0.699053	2.582512	0.979922	-1.690848	3.206269	-59.980699	-79.263229	-133.644755			
45237	12.151450	-0.519049	1.765862	0.273133	-1.576305	2.372795	-60.763693	-79.272087	-132.775774			
45238	11.479281	0.109859	0.766266	-0.722129	-1.873975	1.516025	-61.723618	-79.236095	-131.670424			
45239	10.892415	0.767865	0.564828	-0.963495	-2.408608	0.809153	-62.619072	-79.173578	-130.563785			
45240	10.346247	1.626786	1.377999	-0.270758	-3.376514	0.193104	-63.328564	-79.104459	-129.592233			
45241	10.153271	1.956562	2.843380	1.129055	-4.020008	0.064892	-63.819915	-79.072680	-128.871572			
45242	10.507360	1.371552	4.133036	2.485015	-3.805193	0.613861	-64.227992	-79.093302	-128.333319			
45243	11.957752	1.230635	4.461196	2.685337	-3.956222	2.084446	-64.613785	-79.166452	-127.938491			
45244	14.246393	0.902924	2.789666	0.889565	-3.606523	4.249987	-65.263761	-79.256571	-127.459457			
45245	16.175611	0.344903	1.576405	-0.354635	-3.091148	6.142664	-66.328603	-79.317787	-126.628833			
45246	16.504710	-1.378633	1.321587	-0.228215	-1.456442	6.736604	-67.494147	-79.272114	-125.673044			
45247	16.440261	-4.443269	0.692212	-0.156574	1.586198	7.156784	-67.787840	-79.024775	-125.481744			
45248	16.125715	-6.444260	-0.857627	-1.272018	3.850486	7.094595	-66.399724	-78.536585	-126.863514			
45249	14.869168	-6.517310	-1.393480	-1.795373	4.184904	5.832412	-64.193928	-77.911623	-129.149627			
45250	12.770873	-7.393438	-0.313222	-0.458927	5.051876	4.048111	-62.225813	-77.240094	-131.328434			
45251	10.098633	-7.359185	1.361966	1.401373	4.999570	1.634316	-61.023284	-76.630653	-132.574573			
45252	8.462303	-7.092962	1.392576	1.526698	4.967663	0.028581	-60.454671	-76.141675	-132.961519			
45253	7.956484	-6.561412	1.699027	1.712917	4.442045	-0.507950	-60.154302	-75.804300	-132.989726			
45254	7.222269	-5.431587	2.869664	2.672236	3.202714	-1.298001	-59.819201	-75.600192	-133.073439			
45255	6.290575	-4.307473	3.417566	3.098969	2.173027	-2.364216	-59.644569	-75.541293	-133.054977			
45256	5.896646	-3.243816	3.441375	2.970541	1.232615	-2.972193	-59.857048	-75.619815	-132.682976			
45257	6.208205	-2.330870	3.009545	2.337544	0.412855	-2.928104	-60.506904	-75.806543	-131.866997			
45258	6.855837	-1.301434	2.592329	1.662196	-0.588870	-2.580360	-61.576721	-76.026731	-130.653116			
45259	7.785578	-1.052811	1.882306	0.827288	-0.842272	-1.820650	-62.902864	-76.185339	-129.295552			
45260	8.021235	-1.269038	0.682886	-0.287627	-0.431304	-1.679539	-64.129545	-76.189735	-128.102248			
45261	8.457655	-2.146573	-0.156376	-0.966788	0.481202	-1.152562	-65.218708	-76.071609	-127.101625			
45262	9.526560	-2.633662	-0.921960	-1.757490	0.871820	-0.081678	-65.881500	-75.853581	-126.537151			
45263	9.614337	-2.521482	-1.065204	-1.948231	0.739987	-0.035950	-65.789578	-75.509793	-126.880318			
45264	8.993950	-3.266496	-0.855320	-1.544920	1.494271	-0.449312	-65.131990	-75.073282	-128.029148			
45265	8.362497	-3.773728	-0.554859	-1.095222	2.007442	-0.910400	-64.468794	-74.642002	-129.285422			
45266	7.994058	-4.019348	-0.266971	-0.735962	2.218940	-1.171741	-64.069501	-74.262952	-130.314542			
45267	7.900169	-4.333134	0.004428	-0.403889	2.438068	-1.147736	-63.939310	-73.971187	-131.043794			
45268	7.790192	-4.533685	0.277988	-0.079126	2.549677	-1.163323	-63.950371	-73.746966	-131.528332			
45269	7.201354	-4.651240	0.359127	0.138126	2.738135	-1.682127	-64.017589	-73.584350	-131.830123			
45270	6.580941	-4.895369	0.470225	0.425961	3.047286	-2.195134	-64.119667	-73.470814	-131.965901			
45271	6.330688	-4.989438	0.618081	0.643441	3.131541	-2.387491	-64.310675	-73.410925	-131.899921			
45272	6.257305	-4.881723	0.542400	0.566703	3.057974	-2.491013	-64.684063	-73.406231	-131.553451			
45273	6.385574	-4.639647	0.648163	0.595653	2.766829	-2.415943	-65.266463	-73.490281	-130.902105			
45274	7.365929	-4.090023	0.798118	0.439069	1.997037	-1.600428	-65.938983	-73.630998	-130.074485			
45275	8.298796	-3.710727	0.632895	0.044801	1.491482	-0.823056	-66.461341	-73.786212	-129.358165			
45276	8.959750	-3.228082	0.659942	-0.142787	0.896756	-0.309606	-66.745747	-73.925963	-128.827991			
45277	9.505552	-3.004465	0.288016	-0.628680	0.683053	0.117240	-66.913877	-74.045028	-128.405656			
45278	9.613561	-2.553816	-0.242900	-1.248686	0.388258	0.050961	-67.092935	-74.125146	-127.986675			
45279	9.786865	-2.278092	-0.350734	-1.434250	0.118491	0.138409	-67.300478	-74.162376	-127.550998			
45280	9.460629	-1.909301	-0.473436	-1.575256	-0.134271	-0.279923	-67.498487	-74.153479	-127.135073			
45281	9.257810	-1.606480	-0.299659	-1.438480	-0.433730	-0.532588	-67.703860	-74.129617	-126.726653			
45282	9.355570	-1.320885	0.089459	-1.138557	-0.839190	-0.470372	-67.945054	-74.102265	-126.296850			
45283	9.516584	-1.083650	0.621191	-0.697352	-1.247280	-0.321453	-68.192565	-74.081661	-125.904002			
45284	9.770758	-0.989020	0.915023	-0.466760	-1.478281	-0.072054	-68.431825	-74.066085	-125.580737			
45285	9.912746	-0.897870	1.080665	-0.342276	-1.645858	0.056990	-68.605436	-74.050251	-125.392565			
45286	9.887961	-1.142027	0.942735	-0.414914	-1.382962	0.080745	-68.705091	-74.015167	-125.356750			
45287	9.827352	-0.964377	0.745577	-0.636154	-1.493713	-0.044019	-68.810191	-73.970955	-125.351162			
45288	9.521705	-0.808906	0.833727	-0.543547	-1.601925	-0.370724	-68.831660	-73.903620	-125.461463			
45289	9.186774	-0.746756	0.879958	-0.468506	-1.605256	-0.705964	-68.865521	-73.829967	-125.568226			
45290	9.196649	-0.454261	0.945523	-0.483286	-1.909550	-0.768421	-68.941122	-73.747761	-125.627437			
45291	9.260045	-0.340885	0.930645	-0.544541	-2.037462	-0.741693	-68.977001	-73.657507	-125.739692			
45292	9.261182	-0.173721	0.861815	-0.663064	-2.187620	-0.795091	-69.000951	-73.555311	-125.874522			
45293	9.176124	-0.004405	0.610736	-0.944798	-2.271178	-0.951348	-69.015073	-73.435259	-126.029195			
45294	9.224662	0.083670	0.550621	-1.050927	-2.362529	-0.940341	-69.026534	-73.283591	-126.222524			
45295	9.175956	0.002556	0.407093	-1.184355	-2.252193	-0.987227	-69.001925	-73.103360	-126.475199			
45296	8.925162	-0.133757	0.518096	-1.029359	-2.116915	-1.186923	-69.015637	-72.890614	-126.721787			
45297	8.755630	-0.308364	0.439288	-1.058305	-1.915943	-1.318092	-69.162068	-72.657188	-126.877244			
45298	8.826221	-0.744891	0.328580	-1.089825	-1.525642	-1.149571	-69.484232	-72.404007	-126.912168			
45299	8.846130	-1.008431	0.208117	-1.158596	-1.286185	-1.076699	-69.909124	-72.139180	-126.855507			
45300	8.906869	-1.552291	0.254972	-0.996614	-0.853737	-0.863683	-70.430738	-71.873500	-126.729605			
45301	9.101664	-2.229013	0.151638	-0.956929	-0.292321	-0.494402	-70.979053	-71.617507	-126.540208			
45302	9.080199	-2.674449	-0.076774	-1.051574	0.148995	-0.406284	-71.439414	-71.365655	-126.395145			
45303	9.010488	-3.001724	-0.119563	-0.994912	0.440265	-0.377130	-71.717340	-71.130182	-126.381731			
45304	8.893271	-3.376696	0.207418	-0.573427	0.674144	-0.338934	-71.740241	-70.914612	-126.549899			
45305	8.974586	-3.236763	0.428612	-0.444043	0.432751	-0.282787	-71.475576	-70.736784	-126.957569			
45306	8.783395	-3.232035	0.524024	-0.350146	0.439925	-0.455742	-70.946251	-70.590235	-127.603067			
45307	8.610752	-2.983193	0.534714	-0.412702	0.261350	-0.697225	-70.276441	-70.490912	-128.362316			
45308	8.464324	-2.859751	0.481200	-0.502687	0.219385	-0.882201	-69.588244	-70.439180	-129.096565			
45309	8.341712	-2.780543	0.516230	-0.494299	0.186645	-1.020484	-68.995015	-70.448657	-129.678052			
45310	8.382760	-2.977848	0.847553	-0.154915	0.266441	-0.881757	-68.495011	-70.523746	-130.072347			
45311	8.636070	-3.189314	0.825569	-0.178789	0.429421	-0.581298	-68.058022	-70.659642	-130.270459			
45312	9.279926	-3.428383	1.151928	0.051186	0.412853	0.138421	-67.563037	-70.838371	-130.418385			
45313	10.057549	-3.530693	1.468623	0.205382	0.259495	0.942178	-66.892932	-71.051037	-130.650928			
45314	10.738691	-3.186589	1.720218	0.196735	-0.236688	1.515940	-66.003478	-71.294766	-131.066923			
45315	11.394224	-2.341976	1.952703	0.050889	-1.162349	1.924942	-65.019908	-71.588020	-131.664803			
45316	12.261880	-1.571726	2.284927	-0.008129	-2.087316	2.584375	-64.202481	-71.953684	-132.325602			
45317	12.934840	-1.823803	1.526111	-0.765001	-1.684942	3.208068	-63.962100	-72.433772	-132.755155			
45318	13.376393	-3.189636	0.156099	-1.699555	-0.007519	3.834115	-64.591024	-73.066298	-132.633335			
45319	14.922591	-4.981762	-0.546126	-1.989934	1.636037	5.716554	-66.166724	-73.863149	-131.720008			
45320	16.685708	-6.003417	-1.537623	-2.664718	2.632713	7.587765	-68.422827	-74.733359	-130.096192			
45321	16.771733	-7.455431	-3.684618	-3.931580	4.761482	7.859656	-70.708739	-75.474961	-128.451052			
45322	15.602921	-8.366946	-4.936091	-4.360070	6.335869	6.880534	-72.433917	-75.970412	-127.173784			
45323	13.345060	-9.080392	-5.784926	-4.440970	7.771659	4.812221	-72.989579	-76.198538	-126.782720			
45324	9.504195	-8.819728	-4.457398	-2.722099	7.836247	1.103755	-72.004819	-76.203878	-127.558590			
45325	6.095762	-7.937319	-1.831275	-0.130862	6.794747	-2.241287	-69.929372	-76.098067	-129.172939			
45326	4.045906	-6.845280	1.377993	2.757191	5.132443	-4.228678	-67.448586	-76.012370	-131.172588			
45327	3.334766	-5.281514	4.009687	4.804286	3.011083	-5.022678	-65.113650	-76.102776	-133.020155			
45328	3.130874	-3.621778	5.027707	5.274638	1.251552	-5.475784	-63.147316	-76.399436	-134.505579			
45329	3.534528	-0.851997	5.181327	4.560099	-1.377087	-5.644524	-61.658818	-76.861201	-135.547639			
45330	4.690350	1.649299	4.874078	3.407274	-3.753991	-5.040487	-60.863618	-77.391115	-136.147219			
45331	6.476645	2.292514	4.628485	2.749226	-4.513388	-3.433322	-60.989753	-77.915941	-136.134737			
45332	8.897617	2.176092	4.177560	2.032317	-4.596208	-1.089198	-62.158100	-78.385219	-135.305277			
45333	11.787218	1.785620	3.346186	1.006756	-4.384190	1.723722	-64.295939	-78.752292	-133.705552			
45334	14.031414	1.165439	1.963713	-0.342518	-3.713762	3.905365	-66.896800	-78.938712	-131.793800			
45335	14.810178	-0.548663	-0.126465	-1.820923	-1.590379	4.809657	-68.961158	-78.884506	-130.569224			
45336	14.179557	-2.091800	-1.705603	-2.707998	0.429700	4.358642	-69.680462	-78.613602	-130.740759			
45337	13.346865	-3.695721	-2.325399	-2.671724	2.235256	3.791351	-68.932712	-78.194788	-132.420550			
45338	12.446921	-4.163285	-1.369224	-1.578614	2.447983	3.057742	-66.914707	-77.686534	-135.370422			
45339	11.120180	-3.929276	0.247295	-0.097783	1.825851	1.841234	-64.020699	-77.135631	-139.245670			
45340	9.530720	-3.398586	1.747469	1.198592	0.989647	0.337240	-60.889785	-76.566694	-143.425594			
45341	8.046928	-2.780244	2.551129	1.828884	0.309041	-1.120764	-58.070466	-76.035458	-147.357639			
45342	7.137115	-2.230077	2.839397	1.940730	-0.193235	-2.055800	-55.863563	-75.598457	-150.729410			
45343	6.694720	-2.112879	2.704846	1.791665	-0.192228	-2.508417	-54.314148	-75.295073	-153.463789			
45344	6.671734	-2.304093	2.474576	1.638267	0.071794	-2.515068	-53.495683	-75.163655	-155.418317			
45345	7.129032	-2.704072	2.030414	1.328549	0.570238	-2.055920	-53.359606	-75.199822	-156.588377			
45346	7.886589	-2.806135	1.590258	0.852022	0.785750	-1.371236	-53.764064	-75.354945	-157.089125			
45347	8.668892	-2.942172	0.790062	0.111150	1.224026	-0.706679	-54.462087	-75.551027	-157.186383			
45348	9.269219	-2.990099	0.291256	-0.362097	1.455457	-0.184906	-55.306440	-75.724561	-157.056317			
45349	9.766623	-2.918024	-0.060280	-0.749929	1.522533	0.238417	-56.081295	-75.841714	-156.925427			
45350	9.646380	-2.734258	0.076353	-0.667666	1.291631	0.108022	-56.693188	-75.874240	-156.929477			
45351	9.413040	-2.564846	0.287021	-0.512531	1.042247	-0.121602	-57.139145	-75.835784	-157.085845			
45352	8.979403	-2.205416	0.842443	-0.153777	0.457630	-0.540679	-57.510286	-75.737802	-157.332715			
45353	9.022972	-1.649735	1.303330	-0.107578	-0.281819	-0.552921	-57.838759	-75.603126	-157.615538			
45354	8.859720	-1.219615	1.449807	-0.214908	-0.717146	-0.783653	-58.122105	-75.435540	-157.950104			
45355	8.634326	-0.759712	1.624972	-0.312790	-1.184296	-1.079488	-58.410307	-75.265977	-158.283887			
45356	8.430063	-0.190039	1.634781	-0.617085	-1.636584	-1.403451	-58.705358	-75.099170	-158.629352			
45357	8.334440	0.398528	1.984223	-0.702945	-2.314426	-1.584201	-58.990470	-74.950201	-159.018045			
45358	8.261399	0.763045	2.277024	-0.715574	-2.781838	-1.703003	-59.310594	-74.854228	-159.365192			
45359	8.265694	0.785908	2.050505	-0.938864	-2.661982	-1.739508	-59.657161	-74.819769	-159.693070			
45360	8.292711	0.457393	1.685771	-1.051778	-2.181445	-1.691414	-59.993696	-74.795271	-160.117573			
45361	8.195669	-0.029513	1.357744	-1.003972	-1.589583	-1.720808	-60.198668	-74.707275	-160.799928			
45362	7.857265	-0.425094	0.809036	-1.109930	-0.897796	-2.032342	-60.418259	-74.555896	-161.603717			
45363	7.402550	-0.346714	-0.073331	-1.711022	-0.313825	-2.608715	-60.958549	-74.409302	-162.168374			
45364	7.925812	-0.652824	0.230417	-1.440915	-0.345693	-1.995910	-61.893934	-74.324853	-162.348507			
45365	8.831574	-1.001909	1.103836	-0.838743	-0.804998	-0.931955	-62.876885	-74.272373	-162.443790			
45366	9.373216	-1.380497	1.387073	-0.536809	-0.817987	-0.287480	-63.752265	-74.232456	-162.658887			
45367	9.858288	-2.136047	1.189150	-0.277030	-0.230131	0.337821	-64.521287	-74.203251	-163.019869			
45368	9.805619	-3.021349	1.011301	0.249178	0.459050	0.484326	-65.208434	-74.149688	-163.487963			
45369	9.324193	-3.567546	0.363163	0.366453	1.299768	0.085593	-65.939981	-74.082357	-163.915007			
45370	8.813273	-3.926545	-0.097407	0.504968	1.872256	-0.360686	-66.885791	-74.033543	-164.071764			
45371	8.544104	-4.133579	0.003944	0.835072	1.882266	-0.547301	-68.105137	-74.029778	-163.882326			
45372	8.568328	-4.048512	0.217717	0.942151	1.588584	-0.515260	-69.578312	-74.082093	-163.346074			
45373	9.188660	-3.869312	-0.084165	0.521267	1.596630	0.015246	-71.384490	-74.179485	-162.402528			
45374	10.650188	-3.841161	-0.724735	-0.181380	1.886795	1.372661	-73.543945	-74.272612	-161.045787			
45375	11.962602	-3.769517	-0.928329	-0.617678	1.790574	2.620565	-75.730196	-74.291857	-159.579053			
45376	12.634011	-3.741791	-0.829095	-0.701731	1.516394	3.283631	-77.675844	-74.196605	-158.267254			
45377	12.297573	-3.618172	-0.790972	-0.670691	1.345824	2.942125	-79.217493	-74.008604	-157.265440			
45378	11.504446	-3.471676	-0.755133	-0.565422	1.236260	2.150863	-80.342952	-73.795405	-156.635526			
45379	10.894404	-3.435661	-0.426671	-0.268882	0.947764	1.576039	-81.055219	-73.611758	-156.416592			
45380	11.030962	-3.281757	0.291428	-0.057830	0.205593	1.697798	-81.429970	-73.483897	-156.625149			
45381	11.825707	-3.199426	0.650751	-0.157112	-0.256980	2.451748	-81.706309	-73.396825	-157.015968			
45382	12.635827	-3.113959	0.072054	-0.747339	0.080711	3.179656	-82.192288	-73.301722	-157.256257			
45383	12.809159	-3.102083	-1.170149	-1.431502	1.094621	3.295295	-82.904720	-73.147977	-157.289228			
45384	12.082175	-3.257309	-1.630531	-1.342009	1.613138	2.630958	-83.476088	-72.910016	-157.472375			
45385	10.596507	-3.135712	-1.252533	-0.881709	1.367273	1.189155	-83.550275	-72.612306	-158.144982			
45386	8.748347	-2.713481	-1.063648	-0.667486	1.205449	-0.695167	-83.376383	-72.295519	-159.135210			
45387	7.985494	-2.174671	-0.572940	-0.712856	0.610351	-1.569824	-83.353658	-71.996509	-160.055484			
45388	8.174423	-1.392627	0.290034	-1.086855	-0.522893	-1.603553	-83.535689	-71.720389	-160.848960			
45389	8.323615	-0.731126	0.691728	-1.574121	-1.175197	-1.661835	-83.826441	-71.441843	-161.655006			
45390	8.319778	-0.453737	0.593238	-1.910462	-1.186865	-1.767958	-84.157458	-71.138014	-162.555851			
45391	8.069854	-0.474322	0.082916	-2.072633	-0.670322	-2.027511	-84.594311	-70.793173	-163.487991			
45392	7.652278	-0.752060	-0.458323	-1.945409	-0.016458	-2.359637	-85.219862	-70.406370	-164.334873			
45393	7.729450	-1.195086	-0.728155	-1.710956	0.378728	-2.155539	-86.041687	-69.982833	-165.035318			
45394	7.415473	-1.542525	-1.327035	-1.518029	1.070971	-2.350904	-86.912823	-69.518913	-165.740332			
45395	7.035833	-1.747266	-2.224752	-1.477571	2.003826	-2.649808	-87.935414	-69.038851	-166.343346			
45396	7.170464	-2.048913	-2.550663	-1.328569	2.359198	-2.410765	-89.087291	-68.560632	-166.848107			
45397	7.546804	-2.338788	-2.727378	-1.224799	2.532247	-1.941843	-90.212694	-68.098582	-167.375221			
45398	8.251465	-2.901615	-3.124008	-1.031383	2.933941	-1.060919	-91.255661	-67.675962	-167.974629			
45399	8.810199	-3.514197	-3.583247	-0.731538	3.401151	-0.288744	-92.104949	-67.313236	-168.750364			
45400	9.337625	-4.197466	-3.732059	-0.284313	3.561220	0.481714	-92.729618	-67.011013	-169.729022			
45401	9.919628	-4.721070	-3.197808	0.088135	3.013355	1.224757	-93.050360	-66.773501	-170.984226			
45402	10.908399	-5.115573	-2.392603	0.181743	2.165838	2.277097	-93.041272	-66.592888	-172.547840			
45403	11.203233	-4.908883	-1.978125	-0.072664	1.729166	2.456265	-92.791630	-66.445244	-174.359422			
45404	10.914710	-4.532650	-1.949614	-0.285475	1.718018	2.038205	-92.565383	-66.302176	-176.167212			
45405	10.440096	-3.849909	-1.807292	-0.701245	1.600683	1.324176	-92.506745	-66.150970	-177.781176			
45406	10.011137	-3.086256	-1.737819	-1.213039	1.565164	0.620271	-92.662657	-65.990238	-179.169838			
45407	9.477820	-2.609767	-1.853564	-1.412788	1.718476	-0.059407	-92.953080	-65.827770	179.593471			
45408	9.136455	-2.288497	-1.791398	-1.551393	1.689189	-0.503503	-93.343327	-65.672744	178.487989			
45409	9.047188	-2.096128	-1.792957	-1.671742	1.719726	-0.663489	-93.772068	-65.522260	177.461821			
45410	9.007583	-2.076219	-1.869296	-1.646880	1.810685	-0.704962	-94.195563	-65.373095	176.437977			
