// General information: 
//  MT Manager version: 2022.0.0 
//  XDA version: 2022.0.0 build 7085 rev 119802 built on 2022-11-08
// Device information: 
//  DeviceId: 00B492A5
//  ProductCode: MTW2-3A7G6
//  Firmware Version: 4.6.0
//  Hardware Version: 2.0.0
// Device settings: 
//  Filter Profile: human(46.1)
//  Option Flags: Orientation Smoother Disabled, Position/Velocity Smoother Disabled, Continuous Zero Rotation Update Disabled, AHS Disabled, ICC Disabled
// Coordinate system: ENU
PacketCounter	Acc_X	Acc_Y	Acc_Z	FreeAcc_E	FreeAcc_N	FreeAcc_U	Roll	Pitch	Yaw	Vel_E	Vel_N	Vel_U
42709	9.547367	-1.083239	-2.134566	-0.020682	0.362008	0.023496	-149.647982	-74.020154	115.644034			
42710	9.255309	-1.265456	-2.068071	-0.129820	0.174801	-0.247562	-149.402312	-74.065076	115.430504			
42711	9.121099	-1.402927	-2.020887	-0.217897	0.053892	-0.368311	-149.163319	-74.096641	115.246253			
42712	9.192118	-1.274489	-1.886956	-0.251087	0.246593	-0.349279	-148.926046	-74.121210	115.099095			
42713	9.424110	-0.956668	-1.620299	-0.306473	0.704041	-0.233292	-148.718460	-74.135845	114.976282			
42714	9.657912	-0.654967	-1.280372	-0.433149	1.187199	-0.130408	-148.543640	-74.150950	114.852821			
42715	9.789703	-0.275530	-0.825280	-0.600390	1.766468	-0.163106	-148.459238	-74.185542	114.765273			
42716	9.762424	0.054918	-0.542531	-0.636079	2.171770	-0.300532	-148.428320	-74.240393	114.692196			
42717	9.753802	0.160016	-0.524892	-0.583582	2.257365	-0.325775	-148.414923	-74.294458	114.611198			
42718	10.069850	0.108956	-0.373446	-0.761970	2.365064	-0.046466	-148.325692	-74.372894	114.445585			
42719	10.572420	0.036188	0.255841	-1.354789	2.748602	0.309194	-148.115233	-74.522858	114.140568			
42720	10.960719	0.189711	1.152649	-2.008188	3.418113	0.472514	-147.783640	-74.797707	113.666254			
42721	11.277041	0.514966	2.073702	-2.554065	4.207236	0.556127	-147.365282	-75.216392	113.031451			
42722	11.582489	0.909174	2.968537	-3.011638	5.015916	0.654502	-146.853461	-75.809503	112.246092			
42723	11.861524	1.550322	3.983689	-3.393969	6.058536	0.710682	-146.217479	-76.607672	111.310168			
42724	12.133926	2.417706	5.403890	-3.940708	7.471940	0.718928	-145.431579	-77.662894	110.213926			
42725	12.366095	3.679192	6.600231	-4.034983	9.034013	0.775765	-144.539066	-78.982491	108.934839			
42726	12.804233	5.098429	7.387454	-3.661944	10.496618	1.183358	-143.388610	-80.441846	107.210295			
42727	13.470422	5.363995	7.100530	-3.035483	10.428051	2.131570	-141.504998	-81.893805	104.419263			
42728	13.930973	3.821341	5.902894	-2.705984	8.311022	3.114155	-137.304241	-83.425563	99.213502			
42729	13.737748	3.201530	4.957883	-2.003681	6.966641	3.263606	-130.591632	-84.806689	91.280980			
42730	14.084320	1.505397	1.239290	0.107745	3.076593	4.068230	-119.550153	-85.878940	78.652036			
42731	14.622341	0.304603	1.314088	-0.456883	1.988991	4.728845	-102.102333	-86.606119	59.651785			
42732	15.712465	-0.620161	-0.510607	0.569773	-0.175827	5.908461	-74.139110	-86.747086	30.148710			
42733	15.043544	-1.047960	0.263769	-0.049090	-0.300101	5.266092	-50.361275	-86.156305	5.399503			
42734	15.530311	0.199710	1.692791	0.111582	1.260712	5.759036	-34.031976	-85.188052	-11.606105			
42735	14.811892	-0.209897	-0.241956	1.317979	-0.728845	4.925552	-24.171900	-84.196150	-22.320964			
42736	13.469524	-1.811136	-2.424648	1.638369	-3.654585	3.398680	-17.780868	-83.262849	-29.690376			
42737	11.932913	-3.489339	-4.737141	1.828933	-6.653298	1.562389	-12.605804	-82.246913	-35.640387			
42738	11.168886	-3.598959	-3.216638	0.687821	-5.786492	0.868131	-8.042177	-81.000521	-40.747573			
42739	9.706369	-3.622408	-1.386108	-0.645174	-4.522353	-0.411421	-4.263635	-79.681845	-44.967284			
42740	9.245166	-2.524659	-0.760655	-0.223416	-3.494110	-0.859339	-1.104332	-78.387912	-48.354873			
42741	9.442578	-0.840389	0.186839	0.535062	-1.932735	-0.545673	1.497312	-77.156089	-50.964228			
42742	9.348588	0.098315	0.301273	1.222322	-1.423897	-0.649090	3.428973	-75.980898	-52.858424			
42743	9.106891	0.409381	0.203709	1.541220	-1.425857	-0.939498	5.021295	-74.907456	-54.221008			
42744	8.988819	0.368689	0.322797	1.469834	-1.501394	-1.059283	6.323229	-73.874901	-55.298392			
42745	8.282063	0.291161	0.413224	1.290477	-1.469593	-1.749108	7.481725	-72.898337	-56.155386			
42746	7.787768	0.561655	0.494376	1.401925	-1.237279	-2.215862	8.385113	-72.041384	-56.938363			
42747	7.277205	0.093789	-0.246036	1.465815	-2.042182	-2.978438	9.014909	-71.222176	-57.634453			
42748	6.663879	-0.125709	-0.317957	1.266744	-2.160374	-3.627898	9.712697	-70.451128	-58.274399			
42749	6.442192	0.541063	0.670570	1.128476	-1.051595	-3.498870	10.436699	-69.700037	-58.914685			
42750	6.130335	0.488976	0.791590	0.975724	-0.989688	-3.769951	11.114422	-68.987227	-59.552957			
42751	6.130454	0.880600	0.941727	1.191477	-0.705662	-3.703128	11.738883	-68.336245	-60.197622			
42752	5.885836	0.387442	0.446445	1.096709	-1.359157	-4.160960	12.303366	-67.712839	-60.838932			
42753	6.137358	0.721311	0.936620	1.098275	-0.957245	-3.734714	12.824674	-67.111041	-61.466034			
42754	6.092317	0.862511	1.158228	1.068174	-0.766652	-3.691198	13.265900	-66.554261	-62.092072			
42755	6.057678	1.718653	1.585261	1.457979	0.021707	-3.485305	13.659001	-66.059240	-62.729197			
42756	5.596274	1.622833	0.967861	1.687608	-0.352072	-4.163226	13.983870	-65.628342	-63.344671			
42757	5.706262	2.348688	1.442423	1.987745	0.334173	-3.804757	14.058017	-65.200730	-63.883991			
42758	4.825526	1.441758	0.718797	1.572772	-0.442812	-4.994883	14.215626	-64.906911	-64.432848			
42759	5.464938	2.321768	1.732572	1.773487	0.516939	-3.909692	14.263432	-64.685141	-64.941992			
42760	5.151864	1.010179	1.185635	1.022905	-0.570955	-4.559542	14.134325	-64.514729	-65.383333			
42761	5.214466	0.647594	1.536354	0.546170	-0.587224	-4.397221	14.015726	-64.424701	-65.774168			
42762	5.444033	0.140976	1.495685	0.208379	-1.015645	-4.261157	13.873147	-64.380935	-66.125237			
42763	5.360247	-0.117877	1.839657	-0.212766	-0.892658	-4.219086	13.753971	-64.389212	-66.462856			
42764	5.615017	-0.307826	2.048913	-0.445195	-0.948603	-3.920052	13.687420	-64.468673	-66.785908			
42765	5.556245	-0.684785	2.124017	-0.813406	-1.074932	-3.978728	13.783923	-64.650982	-67.085727			
42766	5.986533	-0.032588	3.088373	-0.769166	-0.157001	-3.122295	13.883004	-64.869801	-67.415700			
42767	5.970441	-0.316104	3.159732	-1.060706	-0.234180	-3.138113	14.071829	-65.152032	-67.769756			
42768	5.998445	-0.774791	3.287435	-1.526384	-0.380488	-3.110893	14.329308	-65.530668	-68.092517			
42769	6.503361	-0.188380	4.395146	-1.623568	0.611033	-2.155222	14.644165	-66.013769	-68.426107			
42770	6.638094	-0.782675	4.567686	-2.225964	0.407068	-2.039692	14.960674	-66.580951	-68.733516			
42771	7.079792	-0.857070	4.819721	-2.417291	0.460999	-1.564598	15.394014	-67.306673	-69.029761			
42772	8.495294	-0.103937	6.080090	-2.387916	1.406846	0.260320	15.734743	-68.033827	-69.296562			
42773	9.082821	0.216156	7.183156	-2.753885	2.313050	1.196680	16.144908	-68.767113	-69.528153			
42774	10.024663	0.935560	8.663643	-2.977823	3.620354	2.615175	16.398395	-69.372381	-69.673630			
42775	11.017379	2.011256	10.281864	-2.971765	5.231554	4.149501	16.410255	-69.831093	-69.766919			
42776	11.265030	2.031168	10.942442	-3.320867	5.757590	4.560367	16.266352	-70.162282	-69.839277			
42777	11.331736	2.349145	11.465845	-3.343357	6.406743	4.787555	16.103397	-70.450476	-69.990353			
42778	10.866276	1.679914	10.830519	-3.553578	5.776599	4.050950	15.984988	-70.706512	-70.269467			
42779	10.533314	0.965693	9.875787	-3.609005	4.832081	3.341773	15.920379	-70.951633	-70.664111			
42780	10.317497	0.190447	8.546987	-3.505104	3.518745	2.631999	15.887041	-71.151770	-71.082300			
42781	10.279470	-0.320575	6.639209	-2.873839	1.836205	1.943947	16.041265	-71.380160	-71.548221			
42782	10.604578	-1.146851	4.762825	-2.518663	-0.121936	1.593362	16.370863	-71.663065	-71.968917			
42783	11.946943	-2.745473	3.450889	-3.032410	-2.372690	2.326099	16.754657	-72.008561	-72.204849			
42784	13.776127	-4.366457	3.222800	-4.111861	-3.928410	3.858224	17.178515	-72.458688	-72.167296			
42785	16.372940	-5.611450	3.562543	-5.105015	-5.075827	6.325096	17.707137	-72.764507	-71.918034			
42786	15.971720	-2.132724	9.866997	-5.938854	1.728101	8.040530	18.509259	-72.242363	-71.393723			
42787	6.919613	6.077040	14.353501	-2.985055	12.332761	1.581232	19.388349	-71.682795	-71.567368			
42788	5.933454	9.272787	10.465705	1.729468	11.558734	-0.110840	19.887234	-71.776017	-72.433545			
42789	10.557226	4.722363	4.977194	1.780991	3.406107	2.177058	20.593668	-72.163715	-73.143539			
42790	13.628437	-1.865481	-2.803582	1.371520	-7.158216	2.185316	21.607006	-72.665199	-73.659002			
42791	10.960067	-6.283100	-4.571217	-1.321292	-10.292659	-1.279732	22.523215	-73.096995	-74.360884			
42792	7.610720	-8.242066	-4.758779	-3.074412	-10.626207	-4.700806	23.025907	-73.503267	-75.188658			
42793	5.092876	-7.587782	-6.062494	-1.948063	-10.505493	-7.341946	24.667710	-73.889562	-76.136480			
42794	6.386073	0.103931	-2.960550	2.328419	-3.823852	-4.380090	28.075099	-74.444307	-77.870783			
42795	9.693767	4.722414	-1.106693	4.761058	-0.260201	-0.078780	33.010871	-75.282286	-80.888550			
42796	11.439325	6.916258	-3.009480	7.465814	-0.319316	1.671514	38.935046	-76.147654	-84.851322			
42797	10.571043	7.004853	-5.820680	9.182526	-1.622926	0.565978	46.063128	-76.816561	-89.936223			
42798	10.840670	11.201907	-4.444788	10.891518	2.444060	1.941289	49.218975	-77.021076	-92.686297			
42799	8.636407	3.431670	-0.178159	2.382928	0.402277	-0.837445	50.448948	-77.754964	-95.023262			
42800	10.892454	-0.777526	-2.043281	0.657513	-4.157892	0.468391	51.788588	-78.791173	-97.423873			
42801	9.930334	-1.517026	-2.455285	0.353124	-4.613783	-0.564585	53.078407	-79.597370	-99.346831			
42802	9.054297	-0.688795	-3.018333	1.301764	-4.177291	-1.302745	55.442984	-80.305100	-101.881167			
42803	9.331180	0.521786	-2.307083	1.623667	-2.779785	-0.740705	58.156414	-80.961246	-104.608746			
42804	9.453803	0.694475	-1.244350	0.964474	-1.801717	-0.473130	60.789084	-81.630843	-107.580726			
42805	9.457100	-0.038491	-1.076445	0.268939	-2.045185	-0.520767	64.520777	-82.405613	-111.693057			
42806	9.492237	-0.239635	-1.162025	0.126145	-2.099614	-0.480820	69.402095	-83.151650	-116.871885			
42807	9.192901	-0.257444	-1.288629	0.159911	-2.025505	-0.751453	75.857920	-83.774978	-123.436359			
42808	9.148001	0.495325	-0.873867	0.377405	-1.068385	-0.679837	84.017712	-84.260322	-131.572699			
42809	8.935556	0.614815	-0.694427	0.294809	-0.696333	-0.861123	93.826696	-84.597020	-141.428165			
42810	8.991240	0.348287	-0.639071	-0.010656	-0.692831	-0.818815	104.860861	-84.735143	-152.557831			
42811	9.052006	-0.330435	-1.005775	-0.342126	-1.275662	-0.795320	116.065157	-84.645074	-163.792660			
42812	9.239164	-0.716528	-1.229035	-0.569685	-1.563531	-0.614056	125.868397	-84.322704	-173.450059			
42813	9.355151	-0.507294	-0.382599	-1.075291	-0.660513	-0.521407	134.840675	-83.830278	178.039218			
42814	9.794422	0.059105	-0.058013	-1.018344	0.108611	-0.071740	142.576316	-83.172128	170.869974			
42815	10.219277	0.584652	-0.002205	-0.825476	0.674188	0.367514	149.049785	-82.457945	164.891623			
42816	9.945509	0.454685	-0.106483	-0.903928	0.659052	0.080596	154.615387	-81.723519	159.758302			
42817	9.696963	0.215940	-0.817491	-0.623832	0.124108	-0.099840	159.035186	-81.048711	155.788105			
42818	9.062136	0.651348	-0.665254	-0.392987	0.632021	-0.733389	162.626382	-80.399753	152.665064			
42819	9.036206	1.453299	-0.782308	0.194330	1.251877	-0.714875	166.126189	-79.699027	149.685866			
42820	9.445126	2.063667	-1.005269	0.644608	1.725459	-0.268882	169.480413	-78.891727	146.822814			
42821	9.840109	2.458007	-1.345616	1.020848	1.992391	0.170565	172.579871	-78.043412	144.093232			
42822	9.694708	2.200295	-1.568322	0.961993	1.809762	0.040480	175.254937	-77.197256	141.575194			
42823	9.615021	1.492944	-1.783235	0.588183	1.296615	-0.023501	177.284097	-76.387818	139.536102			
42824	9.089183	0.806558	-1.439980	-0.084192	1.088463	-0.639709	179.079755	-75.547507	137.768413			
42825	9.014713	0.029448	-1.952910	-0.298678	0.307872	-0.598899	-179.549746	-74.679610	136.443049			
42826	8.641940	-0.458863	-2.396677	-0.308231	-0.277632	-0.842511	-178.332458	-73.856971	135.370063			
42827	8.409869	-0.541772	-2.700230	-0.157496	-0.456757	-0.976639	-177.132348	-73.056701	134.426394			
42828	8.475109	-0.313414	-2.308399	-0.336838	0.101107	-1.030358	-175.910058	-72.282702	133.509064			
42829	8.730128	-0.160243	-2.224869	-0.389124	0.450079	-0.821843	-174.697759	-71.486050	132.610292			
42830	8.937841	0.014350	-2.409802	-0.228037	0.644089	-0.581015	-173.452859	-70.691261	131.762440			
42831	9.152547	0.501549	-2.543971	0.104049	1.115302	-0.366214	-172.212257	-69.907959	131.025882			
42832	9.147532	1.071242	-2.195705	0.191646	1.892969	-0.537768	-171.054188	-69.146826	130.381199			
42833	9.261354	1.220322	-1.900834	0.005295	2.349255	-0.573953	-169.987911	-68.388038	129.807364			
42834	9.473731	1.211690	-1.396944	-0.458967	2.825908	-0.594586	-169.095644	-67.706790	129.289619			
42835	9.921432	0.700386	-0.849489	-1.331878	3.000210	-0.385562	-168.326123	-67.100312	128.724095			
42836	10.003179	0.214872	-0.060281	-2.264429	3.209189	-0.610186	-167.764078	-66.571806	128.196851			
42837	10.168689	0.020899	0.183196	-2.631810	3.338663	-0.573509	-167.340487	-66.078475	127.789072			
42838	10.346781	0.121233	-0.085830	-2.443255	3.393524	-0.347390	-166.861865	-65.644763	127.484223			
42839	9.687627	0.653177	-0.565488	-1.614795	3.373417	-0.834456	-166.381111	-65.275429	127.323493			
42840	9.597482	0.781966	-1.364827	-0.958171	3.054960	-0.629303	-165.814672	-64.897062	127.199182			
42841	9.861908	0.374987	-2.076702	-0.794271	2.512295	-0.077829	-165.150294	-64.500521	127.080474			
42842	10.221544	-0.043158	-2.235407	-1.057820	2.307020	0.338023	-164.466553	-64.091594	126.947956			
42843	10.454913	-0.348243	-2.418964	-1.196840	2.139326	0.640448	-163.779882	-63.655427	126.827667			
42844	10.606690	-0.025055	-2.096521	-1.299629	2.695799	0.576772	-163.073357	-63.239485	126.767025			
42845	10.677572	0.487825	-1.769776	-1.276205	3.366927	0.405685	-162.347003	-62.870089	126.728795			
42846	10.537390	0.571319	-2.002939	-1.034933	3.334203	0.345380	-161.602733	-62.591750	126.679851			
42847	10.515560	0.270425	-2.692797	-0.694320	2.814250	0.651484	-160.856023	-62.395898	126.607312			
42848	10.975760	0.258477	-2.660853	-0.839864	3.034362	1.036341	-160.178477	-62.400507	126.442763			
42849	10.931807	-0.340727	-2.623269	-1.175604	2.582274	1.070866	-159.550707	-62.414378	126.231908			
42850	11.812409	0.866181	-2.201718	-1.022675	4.095550	1.470546	-158.995802	-62.468849	126.040340			
42851	13.553569	1.307395	-1.091132	-2.074035	5.630063	2.459218	-158.494048	-62.512643	125.615212			
42852	14.714429	0.302682	-0.491052	-3.384593	5.546151	3.402145	-158.250004	-62.547174	125.332265			
42853	14.824728	0.057695	0.536856	-4.317722	5.861402	3.112682	-157.695101	-62.696767	125.092337			
42854	14.897303	1.436215	2.048573	-4.709421	7.658238	2.326562	-156.880892	-62.980788	124.892638			
42855	15.160057	3.167776	3.422955	-4.869666	9.730754	1.727541	-156.292122	-63.338798	124.621083			
42856	15.476547	2.181279	4.482623	-6.284765	9.451680	1.829542	-155.573629	-63.803836	124.270223			
42857	15.662119	4.147057	6.255335	-6.632697	11.830680	1.034858	-154.769853	-64.388068	123.898971			
42858	15.646265	3.848181	8.707151	-8.673210	12.552422	0.318053	-154.167078	-65.391525	123.275441			
42859	13.608019	1.869290	8.753341	-9.089030	10.147092	-0.885062	-153.449221	-66.836946	121.947927			
42860	10.484249	-1.133389	1.057104	-3.554051	2.998953	-0.289504	-152.848432	-68.213206	120.361649			
42861	10.811770	-2.420195	-1.411100	-2.118507	0.730798	1.128742	-151.378929	-69.482970	118.858308			
42862	13.513908	1.115404	-2.184366	0.253217	3.882340	3.359030	-149.175898	-70.952278	117.237814			
42863	14.308677	0.721267	-5.739675	3.167556	1.826658	5.181239	-146.832580	-72.511761	115.634456			
42864	15.424225	-0.052412	-6.847202	3.877774	0.695449	6.596386	-144.642946	-74.013779	114.331403			
42865	15.517874	-0.789829	-6.707611	3.688581	-0.122311	6.703465	-142.889002	-75.574381	113.298094			
42866	14.700923	-1.360136	-6.487109	3.579346	-1.017588	5.877660	-141.488864	-77.185433	112.531253			
42867	14.259200	-0.925912	-5.658088	3.343814	-0.677081	5.172101	-140.575755	-78.714427	112.044628			
42868	14.386718	-0.203743	-4.178291	2.583928	0.324446	4.941403	-139.625283	-80.192826	111.083620			
42869	13.722306	0.413982	-3.443114	2.463278	0.758242	4.103938	-138.090609	-81.693015	108.990313			
42870	12.915629	1.188590	-3.463457	3.090189	0.952019	3.216199	-135.429985	-83.235245	105.327231			
42871	12.669521	1.678924	-2.612862	2.817225	1.398430	2.846478	-130.324348	-84.786750	98.912015			
42872	12.249387	0.806710	-2.468106	2.455199	0.319785	2.461059	-119.715630	-86.288282	86.942106			
42873	11.439273	-0.824725	-3.670503	2.744533	-2.091315	1.723931	-100.068330	-87.475766	66.628660			
42874	12.201760	0.742949	-3.647789	3.733311	-1.065499	2.338745	-61.436016	-88.104361	27.534602			
42875	11.759696	0.462550	-4.180453	4.125047	-1.938754	1.814629	-23.156146	-87.581097	-11.692057			
42876	11.521190	-0.861353	-5.111091	4.214270	-3.903585	1.438632	-3.985083	-86.329208	-31.924293			
42877	11.019515	-0.771854	-4.259625	3.627187	-3.648993	0.849774	4.796514	-84.925072	-41.599995			
42878	11.494637	-0.416982	-3.155012	3.074564	-3.054768	1.298548	9.487910	-83.402841	-47.267670			
42879	10.607201	-1.791084	-3.872255	2.794546	-4.809209	0.175699	12.102969	-81.860717	-50.900571			
42880	9.822834	-2.172603	-3.821559	2.478568	-5.262337	-0.758971	13.434327	-80.356828	-53.302427			
42881	8.802564	-2.197364	-3.928483	2.450687	-5.445331	-1.933386	14.105840	-78.937034	-55.044415			
42882	8.090737	-2.451819	-3.835069	2.127170	-5.665253	-2.773180	14.156206	-77.527285	-56.223188			
42883	7.360022	-2.234419	-3.773743	2.121103	-5.504920	-3.600045	13.909522	-76.210278	-57.107119			
42884	7.054504	-1.537951	-3.350492	2.237842	-4.811537	-3.880104	13.500245	-74.995006	-57.832689			
42885	6.562346	-1.366950	-3.065373	2.069352	-4.527102	-4.376661	12.812561	-73.847449	-58.414919			
42886	5.810413	-1.785535	-3.133507	1.672136	-4.797347	-5.234934	12.175935	-72.817878	-58.941859			
42887	5.236069	-2.168971	-3.128609	1.258061	-4.990527	-5.885863	11.727160	-71.915727	-59.472714			
42888	5.096125	-2.318155	-2.945523	0.970929	-4.987100	-6.043618	11.698506	-71.109411	-60.065556			
42889	4.890644	-2.232531	-2.742578	0.852909	-4.783083	-6.232399	11.940445	-70.362681	-60.669593			
42890	4.430804	-2.425226	-3.053394	0.818350	-5.034823	-6.843278	12.422955	-69.682417	-61.300458			
42891	4.415023	-2.484645	-3.036515	0.760982	-5.089752	-6.914181	13.375034	-69.172407	-62.069684			
42892	4.293889	-2.402722	-2.387566	0.402356	-4.576242	-6.845042	14.499011	-68.744830	-62.906710			
42893	4.309416	-2.818354	-2.838221	0.387511	-5.185260	-7.068163	15.796933	-68.466593	-63.807518			
42894	4.500811	-2.858500	-2.969542	0.492226	-5.381389	-6.976368	17.377424	-68.326450	-64.753694			
42895	4.836190	-2.610897	-2.486484	0.440183	-5.017117	-6.492624	19.009829	-68.304422	-65.666136			
42896	4.944477	-2.274191	-2.250241	0.567236	-4.680964	-6.284207	20.524664	-68.340949	-66.501167			
42897	4.804214	-1.268359	-1.025215	0.463718	-3.155579	-5.867114	21.846697	-68.432705	-67.276547			
42898	4.298162	-1.125128	-1.022374	0.480916	-2.886733	-6.316857	22.691840	-68.558765	-67.990585			
42899	4.037876	-0.512636	-0.939814	0.812737	-2.326261	-6.439496	23.482067	-68.755894	-68.700726			
42900	4.388031	1.008154	0.495940	0.955728	-0.469649	-5.410060	23.804540	-69.002417	-69.408626			
42901	6.343859	-0.174581	-0.287723	0.853667	-2.427475	-4.004389	23.910566	-69.236634	-69.914213			
42902	7.476631	1.832242	2.411594	0.607587	0.353888	-1.776620	24.144175	-69.523763	-70.408380			
42903	9.563324	1.625837	4.366789	-0.631313	0.884295	0.769771	24.164460	-69.877948	-70.959161			
42904	11.832306	0.517997	5.727765	-2.120720	0.393854	3.165225	24.345551	-70.088898	-71.432951			
42905	12.492549	2.893764	9.013136	-2.488339	4.004957	5.135314	24.596485	-70.082549	-71.835186			
42906	12.648388	4.123502	10.553454	-2.564716	5.790914	5.943190	24.664141	-69.893061	-72.168834			
42907	12.286522	5.641451	11.948462	-2.354427	7.803355	6.284336	24.852657	-69.651390	-72.579956			
42908	11.517239	6.086789	12.306151	-2.286725	8.548321	5.770439	24.902571	-69.497552	-72.997858			
42909	10.200730	4.795859	11.082799	-2.525031	7.323367	3.966843	24.760775	-69.545536	-73.419420			
42910	8.946919	2.179204	8.282168	-2.783036	4.184239	1.507075	24.824642	-69.787198	-73.926329			
42911	8.835223	1.316778	6.989876	-2.633405	2.832587	0.850083	25.245525	-70.087774	-74.542234			
42912	9.412774	0.862760	6.327238	-2.535959	1.932523	1.105770	25.665973	-70.255801	-75.050028			
42913	10.607691	0.427025	5.608047	-2.327955	0.765756	1.941030	25.870626	-70.185254	-75.207008			
42914	10.591461	0.292228	2.993946	-0.766489	-1.184668	1.106889	25.894180	-70.051108	-75.164303			
42915	9.476514	-0.411470	-0.858468	1.056359	-3.976455	-1.223017	26.108659	-70.232656	-75.262739			
42916	10.237179	-2.132425	-3.814115	1.685622	-7.322867	-1.601310	26.385797	-71.047720	-75.370147			
42917	12.341541	-5.904758	-4.709336	-0.434890	-10.844764	-0.244440	26.300225	-72.340225	-74.902706			
42918	12.169729	-8.483728	-4.641390	-2.430736	-12.226620	-0.527470	26.998443	-73.379701	-75.221725			
42919	16.004121	-5.036091	3.036683	-4.641474	-5.523267	5.636110	28.630481	-73.838920	-75.941268			
42920	18.359761	6.564443	21.645508	-8.541401	14.186026	14.154794	29.806954	-72.520411	-75.923056			
42921	11.163157	23.074924	20.790279	3.370683	26.290653	9.852806	32.328150	-72.089686	-78.830491			
42922	18.245496	16.985739	7.362496	8.812171	10.587819	12.228477	31.258301	-72.049105	-80.645913			
42923	17.480028	-3.091261	1.205736	-2.194088	-6.122885	6.747177	23.749087	-72.886381	-77.752800			
42924	10.288807	-22.311062	-5.011867	-15.073275	-19.015442	-3.509546	16.204788	-73.666649	-74.023502			
42925	1.277203	-26.189567	-12.017380	-15.990460	-23.649469	-13.928828	18.882377	-74.248483	-77.299151			
42926	1.168982	-12.809327	-10.434031	-5.244410	-15.487688	-12.442807	23.639255	-75.381850	-80.290241			
42927	2.926919	-6.749776	-12.276928	1.552551	-14.214926	-10.376134	30.430548	-76.456924	-83.784753			
42928	3.214828	-0.364935	-8.550199	5.117897	-7.416965	-8.287463	40.694185	-77.604182	-89.517006			
42929	8.052932	8.202401	-9.166630	12.115046	-2.588675	-1.906574	57.397586	-78.478398	-100.941604			
42930	17.873974	30.026718	2.321139	17.505936	19.671883	13.269662	62.460567	-77.744626	-103.062109			
42931	5.324065	17.278310	-1.387546	12.107322	10.671305	-1.546196	63.605220	-78.351082	-105.742572			
42932	11.058859	5.659615	-6.397925	7.860809	-2.216665	1.525431	68.118734	-79.569485	-111.172070			
42933	13.161106	1.211874	-3.170052	2.272718	-3.353811	3.160810	70.718641	-80.945353	-114.588684			
42934	10.446495	-3.731913	-2.526736	-1.474683	-5.792812	-0.132558	70.836041	-81.905548	-116.316491			
42935	7.897452	-4.828263	-3.448443	-1.546779	-6.734013	-2.753540	71.451960	-82.600237	-118.099927			
42936	7.637263	-3.664274	-1.706151	-1.957355	-4.542006	-2.727259	77.126540	-83.183308	-123.677159			
42937	9.946029	-0.948132	-0.673059	-0.941629	-2.045414	-0.055540	88.747256	-83.286252	-134.146882			
42938	12.141116	5.984388	-2.753148	5.085367	1.279848	2.966002	95.405127	-83.020727	-139.832690			
42939	8.342774	5.567327	1.639286	1.914755	4.462642	-0.885053	97.627413	-83.093567	-142.095635			
42940	6.458201	3.525430	1.270151	0.922800	2.974759	-3.026815	107.652575	-83.325880	-152.733830			
42941	8.576802	1.647567	-0.754493	0.768144	0.288766	-1.085346	122.897402	-83.429665	-168.877630			
42942	9.961353	-2.123839	-5.003642	0.763295	-5.201093	0.243976	133.080466	-83.405395	179.907485			
42943	8.392721	-2.840604	-2.614747	-1.281484	-3.816493	-1.497923	136.062366	-83.314505	176.386831			
42944	8.874586	-1.731561	-0.227088	-2.176382	-1.232572	-1.120651	140.259619	-82.876412	172.346791			
42945	9.406035	-0.603426	0.480347	-1.968681	0.151268	-0.584034	145.342102	-82.152282	167.950002			
42946	9.956713	0.369094	0.059340	-1.161245	0.644795	0.061981	149.878226	-81.339802	164.166659			
42947	9.964432	0.795026	-0.579735	-0.522366	0.621770	0.167099	154.298095	-80.631988	160.404971			
42948	9.704507	0.393996	-0.841767	-0.655814	0.289713	-0.090291	158.747440	-79.989663	156.416607			
42949	9.570760	-0.772846	-2.035255	-0.664189	-1.236215	-0.098377	162.590513	-79.404780	153.066378			
42950	8.983152	-0.566184	-2.392234	-0.203510	-1.251943	-0.586080	165.493948	-78.802579	150.943085			
42951	9.007861	0.756940	-2.663659	0.849330	-0.334827	-0.433248	168.241784	-78.056429	149.265682			
42952	9.425444	1.794524	-3.716241	2.166529	-0.048946	0.245640	170.746261	-77.254035	147.877900			
42953	9.203588	2.633430	-3.575275	2.590076	0.819313	0.038283	172.552286	-76.631446	146.846439			
42954	9.043381	2.246717	-2.294644	1.367927	1.450739	-0.425533	174.138040	-76.035717	145.638585			
42955	9.087715	1.027258	-1.852947	0.193680	0.911512	-0.527986	175.590606	-75.404054	144.394963			
42956	8.963279	0.033748	-1.516782	-0.717696	0.439480	-0.761002	176.727572	-74.810539	143.445691			
42957	8.850891	-0.515407	-1.455648	-1.138582	0.127169	-0.901490	177.822651	-74.214265	142.557637			
42958	8.786690	-0.911669	-1.781877	-1.178910	-0.299830	-0.883432	178.964631	-73.634897	141.635415			
42959	8.771256	-0.849368	-2.344832	-0.754539	-0.507357	-0.739259	-179.905208	-73.107984	140.750641			
42960	8.938610	-0.202364	-2.494848	-0.298569	0.023329	-0.535102	-178.753046	-72.654389	139.845444			
42961	9.148923	0.161622	-2.366444	-0.232133	0.512262	-0.378071	-177.573171	-72.231278	138.914132			
42962	9.125209	0.099183	-2.023703	-0.537187	0.754759	-0.511310	-176.230998	-71.773877	138.017686			
42963	9.315286	0.269263	-2.234481	-0.338361	0.908943	-0.278634	-174.780316	-71.237550	137.294128			
42964	9.259888	0.952521	-2.517007	0.275623	1.391033	-0.274560	-173.466082	-70.676443	136.748418			
42965	9.156319	1.547349	-3.406106	1.297480	1.463857	-0.117000	-172.397651	-70.122269	136.243529			
42966	9.070803	1.542356	-4.410172	2.046774	1.007867	0.132240	-171.439318	-69.575806	135.680652			
42967	9.206236	1.151117	-3.740172	1.232401	1.195864	0.042207	-170.737768	-69.061572	135.177579			
42968	9.267077	0.558159	-2.413633	-0.184718	1.530443	-0.344906	-170.218857	-68.585189	134.666282			
42969	9.033380	-0.356814	-2.525891	-0.608759	0.752429	-0.476091	-169.608712	-68.111558	134.102222			
42970	8.728032	-0.775948	-2.739009	-0.639172	0.303376	-0.659459	-168.869814	-67.621796	133.607671			
42971	8.821039	-0.587512	-2.548488	-0.722104	0.669782	-0.665017	-168.019012	-67.095590	133.142220			
42972	9.105168	-0.308154	-2.172451	-0.945817	1.264067	-0.580930	-167.116896	-66.579117	132.612136			
42973	9.407830	-0.268368	-1.889195	-1.240793	1.622135	-0.433098	-166.226925	-66.103344	132.021932			
42974	9.470960	-0.269524	-1.616524	-1.481926	1.865355	-0.500944	-165.381791	-65.669265	131.422416			
42975	9.576341	-0.453119	-1.608349	-1.632432	1.837382	-0.407529	-164.570607	-65.247341	130.859678			
42976	9.874205	-0.613280	-1.711490	-1.735439	1.836245	-0.095639	-163.734478	-64.815700	130.353431			
42977	10.222102	-0.496493	-1.752762	-1.744376	2.113396	0.202302	-162.856417	-64.373582	129.908122			
42978	10.442366	-0.084158	-1.705068	-1.622780	2.636460	0.305230	-161.962091	-63.951404	129.482631			
42979	10.447006	0.419106	-2.175610	-0.980531	2.923392	0.411816	-160.945173	-63.612401	128.984132			
42980	10.876396	1.762545	-1.032041	-1.257974	4.769372	0.093769	-160.283284	-63.372668	128.543556			
42981	10.948605	1.666305	-0.390875	-1.824410	5.055526	-0.121751	-159.702498	-63.248220	128.010603			
42982	10.945588	1.267453	0.743061	-2.923001	5.278998	-0.563230	-158.912007	-63.052116	127.537234			
42983	11.781398	2.047979	0.628506	-2.642845	6.218668	0.073355	-158.115102	-62.857682	127.226875			
42984	12.562737	2.663664	0.729441	-2.613925	7.095737	0.592470	-157.380294	-62.760271	126.873166			
42985	13.756175	2.750002	0.600099	-2.780892	7.581105	1.674191	-156.715089	-62.761617	126.485969			
42986	14.962471	3.175904	1.281041	-3.401407	8.680817	2.380618	-156.048824	-62.879511	126.096892			
42987	15.226735	3.895485	2.695294	-4.189905	9.961860	1.913289	-155.534279	-63.121829	125.705437			
42988	15.136118	3.949756	4.048922	-5.175857	10.513643	1.312491	-155.007204	-63.451670	125.314056			
42989	16.447758	4.864641	7.279874	-7.575547	13.054570	1.113228	-154.510668	-64.081445	124.787008			
42990	15.145843	3.995084	8.454232	-8.472240	12.303011	-0.134050	-154.129509	-65.171389	123.828132			
42991	14.246734	2.016751	4.390131	-5.702814	8.526618	1.190643	-154.091304	-66.303909	122.568269			
42992	13.071818	-1.461420	3.056577	-5.957856	4.591103	1.401878	-153.666180	-67.742463	120.782250			
42993	12.450022	-2.939545	-0.602185	-3.441184	1.276999	2.456149	-152.244283	-69.233938	119.015280			
42994	13.267713	-1.065607	-2.823772	-0.450993	1.726638	3.676010	-150.336170	-70.710530	117.442386			
42995	14.506557	-1.494111	-4.654343	0.927266	0.576105	5.455876	-148.297171	-72.172882	115.832846			
42996	15.080729	-1.561256	-5.989854	2.256715	-0.265690	6.329298	-146.052482	-73.693840	114.280558			
42997	15.213634	-0.946136	-7.027435	3.774209	-0.525293	6.533498	-144.057801	-75.216896	113.004138			
42998	15.308503	-1.136850	-6.604376	3.602888	-0.775636	6.486447	-142.585155	-76.786173	112.034048			
42999	15.556391	-1.633832	-5.739687	2.832502	-1.076436	6.570759	-141.648621	-78.302842	111.382655			
43000	16.404616	-1.355558	-4.541794	2.093180	-0.474959	7.127026	-140.853062	-79.780663	110.597196			
43001	16.536261	-0.858333	-3.540207	1.687121	0.060770	7.035128	-139.318038	-81.336575	108.654477			
43002	14.886636	-0.271786	-3.657617	2.390994	-0.151218	5.330160	-136.554918	-82.991920	105.287212			
43003	13.568981	0.796511	-3.717794	3.247317	0.170299	3.898035	-132.382915	-84.605163	100.522122			
43004	13.228322	1.305423	-3.405109	3.444496	0.348786	3.464601	-124.993042	-86.150033	92.463778			
43005	12.736750	0.448516	-2.837123	2.677067	-0.474772	2.957177	-108.380312	-87.554203	75.028055			
43006	12.658925	-0.796921	-3.364542	2.572182	-2.171937	2.870287	-67.591243	-88.452310	33.651087			
43007	13.033812	0.099277	-3.187227	3.067779	-1.709671	3.137116	-12.830470	-87.790275	-21.831250			
43008	12.544757	-0.378005	-3.548014	3.213260	-2.723914	2.529901	5.901269	-86.163087	-41.761644			
43009	12.292284	-1.556335	-3.169848	2.315441	-3.843544	2.163240	12.171607	-84.495156	-49.046405			
43010	12.958335	-1.269387	-4.036194	3.324898	-4.555275	2.596966	14.830024	-82.770812	-52.650605			
43011	12.017347	-1.158811	-3.651118	3.124755	-4.521623	1.539207	15.811035	-80.907503	-54.805654			
43012	11.046278	-1.473477	-3.747451	2.997539	-5.054511	0.370105	15.798615	-79.109147	-56.079396			
43013	10.358244	-1.332279	-3.415291	2.822636	-4.936674	-0.411346	15.302137	-77.455491	-56.972077			
43014	9.856689	-1.682672	-3.382509	2.535516	-5.354406	-1.076495	14.499328	-75.864144	-57.675532			
43015	9.384548	-1.808103	-3.329128	2.359109	-5.553474	-1.688082	13.556277	-74.315644	-58.228815			
43016	8.375734	-1.766301	-3.074515	2.067774	-5.332546	-2.740998	12.505813	-72.786989	-58.682566			
43017	7.198895	-2.251334	-2.949199	1.439171	-5.450306	-3.998041	11.632016	-71.314591	-59.077109			
43018	6.069150	-2.461044	-2.788423	0.975831	-5.293751	-5.155596	11.119343	-69.930936	-59.542185			
43019	5.347232	-2.228531	-2.138882	0.605560	-4.571479	-5.705676	10.967575	-68.614341	-60.017794			
43020	4.889985	-1.878902	-2.033920	0.729707	-4.209160	-6.161873	11.206520	-67.389805	-60.545922			
43021	4.624119	-1.595775	-1.596702	0.643410	-3.706826	-6.302269	11.924454	-66.292855	-61.160182			
43022	4.715212	-0.967237	-1.160217	0.894408	-3.105514	-6.061685	12.896085	-65.306171	-61.848801			
43023	4.892734	-1.030964	-1.028871	0.814600	-3.186971	-5.908921	13.981726	-64.465382	-62.619875			
43024	5.122352	-1.367895	-1.390251	0.836055	-3.789411	-5.941859	15.339883	-63.788134	-63.492652			
43025	5.822247	-0.752864	-0.915878	1.143499	-3.413390	-5.085636	16.683329	-63.273848	-64.420959			
43026	6.539493	-0.844843	-1.154050	1.350616	-3.972332	-4.596693	17.873719	-62.821570	-65.319345			
43027	6.425956	-0.906280	-1.567368	1.526863	-4.280988	-4.922657	18.796809	-62.398149	-66.149487			
43028	6.040168	-0.979125	-1.763332	1.504590	-4.332480	-5.394855	19.668621	-62.044999	-66.951201			
43029	5.767933	-0.200397	-1.344059	1.751717	-3.488638	-5.354395	20.275523	-61.679114	-67.674913			
43030	4.509916	-1.108469	-2.019741	1.251972	-3.975535	-6.936063	20.880800	-61.358576	-68.340235			
43031	4.720126	0.607828	0.233347	1.135456	-1.582605	-5.464181	21.643038	-61.117154	-68.984661			
43032	4.471757	0.205502	0.105070	0.855620	-1.832689	-5.817819	22.111999	-60.847392	-69.554001			
43033	4.439376	0.569021	0.599646	0.795770	-1.303424	-5.563078	22.697124	-60.606707	-70.100727			
43034	4.796304	0.820370	1.185479	0.654979	-0.967314	-4.942561	23.278313	-60.440292	-70.665895			
43035	5.084504	1.391490	2.201181	0.461934	-0.128397	-4.120265	23.879984	-60.384364	-71.262808			
43036	5.438540	1.760024	2.521145	0.564463	0.125338	-3.591982	24.396891	-60.422433	-71.861468			
43037	5.570024	2.104483	2.480051	0.847575	0.251789	-3.423411	24.699064	-60.539890	-72.398831			
43038	5.985325	3.309135	3.048480	1.449098	1.171064	-2.560348	24.702265	-60.754336	-72.883022			
43039	6.291159	2.585955	2.302295	1.417167	0.128377	-2.774114	24.482454	-61.061684	-73.323631			
43040	6.725881	2.411008	2.771707	1.052954	0.157310	-2.223276	24.198617	-61.468405	-73.719912			
43041	6.882202	1.755721	2.854474	0.518273	-0.199887	-2.178136	23.818397	-61.962291	-74.059183			
43042	6.998553	1.273508	2.815088	0.179974	-0.495100	-2.180631	23.442630	-62.523100	-74.330977			
43043	7.417856	0.377336	2.712526	-0.424713	-1.195383	-2.007897	23.299124	-63.151047	-74.573459			
43044	8.708614	1.495072	4.297097	-0.362711	0.075923	0.005761	23.382829	-63.775993	-74.781410			
43045	9.483441	1.146117	4.795161	-0.873766	-0.010060	0.839931	23.263545	-64.336111	-74.899881			
43046	10.231838	0.830315	5.770416	-1.645694	0.274133	1.844641	23.288861	-64.835855	-74.914419			
43047	10.535409	1.690341	7.953411	-2.249359	2.276550	3.104965	23.076860	-65.233347	-74.824609			
43048	10.027252	0.504338	7.779501	-3.133214	1.762383	2.369141	22.685716	-65.590006	-74.717734			
43049	9.341768	0.250721	7.739112	-3.372844	1.951896	1.678122	22.440857	-65.968331	-74.671996			
43050	8.454686	0.769918	7.750547	-3.061811	2.700393	0.933376	22.385792	-66.414582	-74.815946			
43051	8.079744	0.323767	6.512625	-2.747135	1.795641	0.037657	22.535813	-66.984258	-75.185082			
43052	7.966966	0.169070	5.981150	-2.605132	1.473980	-0.309289	22.856936	-67.671902	-75.730261			
43053	8.391553	0.049950	5.635602	-2.504848	1.118505	-0.083672	23.271859	-68.408037	-76.385255			
43054	9.344350	-0.148856	5.220555	-2.392994	0.481051	0.610071	23.743785	-69.072691	-77.051103			
43055	10.390061	-0.514252	4.243670	-2.097666	-0.709211	1.201947	24.456184	-69.644430	-77.717394			
43056	10.400756	0.110399	3.670009	-1.321842	-0.694925	1.115527	25.098960	-70.125119	-78.254089			
43057	9.176675	-0.373375	0.564419	-0.023459	-2.802781	-1.048426	25.626314	-70.752792	-78.865019			
43058	10.010274	-2.107211	-4.049170	1.292191	-7.409105	-1.783230	26.347579	-72.010602	-79.529942			
43059	15.033359	-5.755131	-5.132412	-0.745710	-11.550310	2.494465	26.753355	-74.251766	-79.306513			
43060	16.829875	-12.991313	-5.882209	-5.895528	-16.438193	3.663340	26.465331	-76.421156	-78.245471			
43061	12.118013	-10.921596	-3.642359	-5.686074	-12.149309	0.159749	29.660544	-78.013712	-79.528903			
43062	17.278172	-2.268155	8.359982	-6.680870	1.194030	8.283908	35.445221	-78.853562	-82.110223			
43063	30.819861	32.894709	34.614022	-0.362359	40.721569	29.822047	42.057414	-78.270087	-85.653696			
43064	23.511156	38.904141	5.756218	23.839313	25.802907	19.595264	40.759354	-76.957102	-87.361358			
43065	13.196263	3.745029	2.192696	1.588437	1.039672	3.947824	33.988400	-77.091073	-86.234317			
43066	16.416077	-12.888671	8.992440	-15.361097	-3.628820	6.530016	24.922673	-77.893101	-82.431664			
43067	2.095334	-26.555313	-12.242572	-15.993999	-24.438020	-12.345620	24.892287	-78.369988	-83.175425			
43068	-2.133736	-8.140943	-8.699860	-2.065813	-11.119626	-14.119987	33.939161	-79.514461	-88.993472			
43069	1.166932	-1.406393	-4.782883	1.703132	-4.812919	-9.434901	45.355865	-81.045370	-97.410846			
43070	7.507726	1.473260	-5.526453	4.418109	-4.407070	-2.732936	57.483596	-81.782637	-106.747559			
43071	11.023268	10.292564	-14.660233	16.932687	-5.413160	1.423709	67.244505	-82.033431	-113.525854			
43072	4.557945	16.831311	-12.318562	20.374037	1.869163	-3.713085	69.487171	-81.529365	-116.693831			
43073	12.369371	5.002207	-0.193817	2.893552	1.595877	3.115571	75.024396	-81.474540	-123.277297			
43074	12.251505	0.677958	2.383682	-2.097269	0.816913	2.482450	80.171727	-82.297328	-128.368008			
43075	10.836574	-1.131261	1.459493	-2.694536	-0.667752	0.823519	85.880127	-83.437695	-134.379702			
43076	9.031775	-2.351760	-3.059728	-0.475053	-4.482777	-1.086817	91.355312	-84.497754	-141.381542			
43077	6.638494	-3.854552	-7.113147	1.052319	-8.292013	-3.515362	94.657999	-85.169549	-146.043583			
43078	5.746810	-2.966419	-5.039326	0.400364	-6.011714	-4.252332	106.018200	-85.314441	-157.696552			
43079	9.900968	-1.036587	-3.454457	0.523933	-3.561150	0.090637	121.067501	-84.724618	-172.005516			
43080	12.171848	2.089359	-0.712434	0.871161	0.675623	2.508336	127.635310	-84.052285	-177.711905			
43081	10.907020	2.894159	2.255365	-0.393905	3.560497	1.123177	129.581279	-83.755373	-179.550280			
43082	8.816349	1.981198	3.423554	-1.634877	3.933542	-1.139310	134.246207	-83.618648	175.398998			
43083	8.471332	0.622235	2.389193	-1.980176	2.387826	-1.552302	141.585512	-83.233783	167.408480			
43084	9.171283	-0.603702	-0.777076	-1.071293	-0.661918	-0.675287	148.560404	-82.566516	159.951226			
43085	9.424011	-1.476710	-3.391291	-0.229043	-3.103194	-0.178877	151.482569	-82.060541	157.222162			
43086	9.730944	0.396952	0.366418	-1.199068	1.073943	-0.200650	152.408435	-81.550170	157.000410			
43087	10.435172	1.839884	2.215676	-1.446347	3.497164	0.329484	153.588071	-81.027810	156.641713			
43088	10.029063	2.512824	1.827276	-0.736944	3.675082	-0.005307	155.497843	-80.503985	155.224541			
43089	10.146163	1.530959	-0.315024	-0.188003	1.524764	0.337491	158.303478	-79.989175	152.466797			
43090	9.788922	-0.776348	-2.537626	-0.474128	-1.580794	0.194350	160.772057	-79.679415	149.962292			
43091	8.790546	-1.647772	-2.170145	-1.220382	-1.896094	-0.890037	162.061500	-79.439056	148.902011			
43092	9.003793	-1.165494	-1.198667	-1.528820	-0.779839	-0.817261	163.783751	-79.022017	147.860068			
43093	9.372014	-0.511961	-1.244893	-1.098894	-0.274195	-0.412516	165.566575	-78.535996	147.045450			
43094	9.406558	0.465384	-1.561977	-0.215798	0.237966	-0.271415	166.938458	-78.097514	146.659574			
43095	9.228182	0.957085	-2.214231	0.568739	0.169415	-0.292951	168.043541	-77.692567	146.409628			
43096	9.195439	0.448741	-2.766823	0.557726	-0.502630	-0.228923	169.105602	-77.293552	146.069467			
43097	9.245689	-0.444931	-3.031407	0.079679	-1.243930	-0.152666	170.048187	-76.897904	145.802282			
43098	9.117478	-0.877933	-2.086358	-0.873239	-0.868068	-0.499485	171.004061	-76.536379	145.646903			
43099	9.117102	-0.489328	-1.599259	-0.976148	-0.206258	-0.597325	171.904358	-76.117558	145.596061			
43100	9.044472	0.039862	-2.629182	0.104054	-0.439083	-0.404578	173.123718	-75.741388	145.330900			
43101	8.632415	1.110484	-2.946578	1.104421	0.178244	-0.692269	174.116711	-75.415407	145.123105			
43102	8.537070	1.691828	-3.350441	1.773490	0.433825	-0.667466	175.247713	-75.058031	144.714679			
43103	8.628070	2.028184	-3.325124	1.922000	0.818294	-0.579653	176.464402	-74.655178	144.233566			
43104	9.025309	2.162866	-3.371330	1.919453	1.062650	-0.185363	177.675479	-74.213649	143.752869			
43105	9.344661	2.095393	-3.488999	1.859558	1.096256	0.148527	178.803819	-73.834656	143.236824			
43106	8.972797	1.074297	-3.893006	1.596763	0.085245	-0.103770	179.918126	-73.480413	142.569038			
43107	8.552719	0.069166	-3.526552	0.785216	-0.489405	-0.607591	-179.123505	-73.131506	141.926384			
43108	8.317721	-0.350162	-3.087747	0.234909	-0.540562	-0.953034	-178.204993	-72.763998	141.297931			
43109	8.026440	-0.712183	-3.346226	0.266292	-0.958481	-1.144467	-177.184797	-72.342091	140.633595			
43110	7.508013	-0.688409	-3.233015	0.299887	-0.897593	-1.664042	-176.157404	-71.890564	139.992925			
43111	7.504339	-0.244082	-2.577137	0.040811	-0.098511	-1.875153	-175.186497	-71.421105	139.360413			
43112	7.696052	-0.236585	-2.294508	-0.240151	0.178316	-1.783990	-174.194425	-70.957554	138.651536			
43113	7.769949	-0.486598	-2.525640	-0.242865	-0.059984	-1.631936	-173.207672	-70.540254	137.939337			
43114	7.598292	-0.779740	-2.629932	-0.300439	-0.319916	-1.746366	-172.185824	-70.147326	137.227413			
43115	7.844247	-0.866320	-2.745338	-0.329896	-0.320640	-1.469579	-171.165268	-69.725208	136.558694			
43116	8.618362	-0.897018	-3.027995	-0.332412	-0.223086	-0.642708	-170.070914	-69.242100	135.877984			
43117	9.165066	-0.459904	-3.130594	-0.158374	0.316487	-0.123292	-169.051839	-68.731515	135.274026			
43118	9.402995	0.207368	-3.231586	0.212315	0.980912	0.081459	-168.099402	-68.196931	134.719059			
43119	9.572502	0.685038	-3.868115	0.904238	1.215638	0.422919	-167.196701	-67.627823	134.222207			
43120	9.691684	1.007680	-4.241897	1.311570	1.452497	0.632720	-166.331927	-67.078116	133.763509			
43121	10.039827	0.803615	-4.535001	1.305253	1.359483	1.071110	-165.515648	-66.575512	133.302734			
43122	10.391394	0.504557	-3.254776	0.007058	1.926718	0.916531	-164.802054	-66.156796	132.896677			
43123	10.329348	-0.039356	-1.903533	-1.366429	2.173171	0.372108	-164.139624	-65.763910	132.606542			
43124	10.588123	-0.176860	-1.182207	-2.113025	2.542055	0.316962	-163.424688	-65.364478	132.428621			
43125	10.600203	-0.055621	-1.028161	-2.202195	2.784152	0.228373	-162.710190	-65.007063	132.215840			
43126	11.299811	-0.082984	-1.927628	-1.707572	2.648579	1.208983	-162.017573	-64.756944	131.850465			
43127	11.594061	1.010088	-1.370587	-1.644378	3.951790	1.096031	-161.377627	-64.818241	131.216823			
43128	11.386964	1.063489	0.388772	-2.926751	4.724497	0.190217	-160.866510	-64.840609	130.570590			
43129	11.775230	1.202415	-0.067771	-2.571326	4.812374	0.691379	-159.970788	-64.629341	130.118682			
43130	12.295328	3.270930	1.056346	-2.569486	7.259252	0.370166	-158.877780	-64.464489	129.774980			
43131	12.852503	4.103277	1.332664	-2.560846	8.309394	0.589010	-158.090474	-64.291353	129.499050			
43132	13.733685	3.946769	0.919572	-2.561515	8.349325	1.534727	-157.282890	-64.180390	129.044934			
43133	14.322212	3.172695	0.995480	-3.162765	7.967254	2.133117	-156.454374	-64.109941	128.543047			
43134	14.518755	2.912100	1.517479	-3.763140	8.048805	2.130210	-155.433465	-64.169538	128.126425			
43135	14.239754	4.042508	2.652541	-4.073490	9.359545	1.230589	-154.510948	-64.385244	127.737428			
43136	14.237416	3.912937	3.536940	-4.840075	9.562717	0.941506	-153.892045	-64.695504	127.283062			
43137	15.212006	3.276554	4.841711	-6.407988	9.806813	1.516263	-153.520522	-65.208153	126.798695			
43138	15.773068	3.625776	6.748424	-7.830581	10.985428	1.388782	-153.268652	-65.992992	126.026090			
43139	14.787217	3.102470	9.673115	-10.025897	11.383016	-0.234305	-152.962325	-67.140798	124.550187			
43140	11.831538	-0.374498	3.736170	-5.797742	5.016461	-0.050642	-152.515472	-68.421632	122.765278			
43141	10.961186	-3.428561	-0.882668	-3.107740	0.052902	1.278576	-151.292404	-69.643698	121.031377			
43142	12.995849	-2.331479	-0.834522	-2.701724	1.443250	3.057117	-149.264277	-71.002408	119.170274			
43143	13.890555	-1.344123	-2.855233	-0.316409	1.379736	4.360789	-146.691194	-72.555218	117.006999			
43144	13.837016	-1.827765	-5.534143	2.083080	-0.530015	5.046448	-143.948063	-74.095914	114.827898			
43145	14.149996	-2.270646	-6.446810	2.962015	-1.507183	5.545647	-141.422267	-75.582839	112.925088			
43146	14.331123	-1.810116	-6.588194	3.609825	-1.401387	5.583840	-139.127916	-77.052942	111.360443			
43147	14.548892	-0.732158	-6.173951	4.007439	-0.501327	5.484430	-137.177936	-78.460092	110.073375			
43148	15.400494	-0.066358	-5.655093	4.017620	0.194373	6.092359	-135.544441	-79.765648	108.873196			
43149	16.032216	0.270753	-4.367556	3.189207	0.858963	6.474109	-133.591351	-81.118626	107.185233			
43150	15.201872	1.831002	-3.230348	3.112074	2.277078	5.353086	-131.101859	-82.592078	104.595345			
43151	13.918168	2.343820	-4.231132	4.470801	1.771412	4.114676	-127.771063	-84.063576	100.810335			
43152	13.172151	2.728738	-4.146462	4.774788	1.695514	3.319542	-121.723124	-85.540366	93.901282			
43153	12.206273	1.120795	-3.235605	3.403062	0.247374	2.396441	-109.313131	-86.884412	80.285601			
43154	11.952106	-0.812610	-2.910421	2.321282	-1.643679	2.182451	-82.933716	-87.860408	52.844819			
43155	12.032068	-0.511306	-2.948443	2.624409	-1.750206	2.177362	-35.940379	-87.935278	4.545400			
43156	11.969886	-0.662078	-2.744306	2.484244	-2.162475	2.035718	-6.672782	-86.722579	-26.594355			
43157	11.918358	-2.423956	-2.131718	1.085090	-3.660236	1.929655	2.861180	-85.217852	-38.242148			
43158	11.807869	-4.611478	-4.199650	1.520838	-6.956249	1.483944	7.663817	-83.531790	-44.492346			
43159	11.715444	-3.596870	-2.728851	0.986102	-5.573086	1.394212	10.340206	-81.909561	-48.280209			
43160	11.559524	-3.816195	-3.417424	1.426303	-6.436879	0.975627	11.758583	-80.313725	-50.766777			
43161	10.728696	-3.517441	-3.282115	1.464872	-6.281586	0.017749	12.451188	-78.709844	-52.456288			
43162	9.819198	-2.965269	-3.124980	1.639217	-5.861920	-0.985498	12.624862	-77.112283	-53.574844			
43163	9.004183	-2.547943	-3.044372	1.786996	-5.565564	-1.896800	12.575932	-75.558442	-54.479865			
43164	8.307487	-2.225789	-2.978082	1.882903	-5.334176	-2.682862	12.395772	-74.080168	-55.256623			
43165	7.456660	-2.005315	-2.677911	1.703920	-4.951031	-3.537727	12.219455	-72.692285	-56.001315			
43166	6.732108	-2.255667	-2.586515	1.351052	-5.027292	-4.335638	12.055897	-71.368848	-56.684919			
43167	6.065101	-2.444633	-1.866567	0.612854	-4.616606	-4.857324	12.011801	-70.113699	-57.273354			
43168	5.527830	-2.769383	-1.426192	-0.001841	-4.484872	-5.324337	12.208702	-68.964462	-57.803440			
43169	5.146399	-2.569912	-0.688651	-0.402449	-3.819778	-5.475557	12.606060	-67.951979	-58.324121			
43170	4.808721	-2.586119	-1.214610	-0.113942	-4.130921	-6.043207	13.254430	-67.094465	-58.894909			
43171	4.396663	-2.177902	-1.307325	0.174587	-3.825842	-6.478765	14.083615	-66.369730	-59.559222			
43172	4.170969	-1.998123	-1.552534	0.429346	-3.823887	-6.813839	15.024942	-65.758993	-60.314820			
43173	4.329664	-2.106825	-1.747090	0.514902	-4.113401	-6.804102	16.105686	-65.274074	-61.178117			
43174	5.216320	-1.551048	-2.125628	1.347563	-4.330696	-6.129898	17.440108	-64.839686	-62.088765			
43175	6.004739	-0.509663	-1.693590	1.958871	-3.680274	-5.143308	18.704839	-64.453942	-62.980399			
43176	6.880427	0.238093	-1.567535	2.565643	-3.465862	-4.221695	19.818021	-64.113018	-63.806173			
43177	7.172052	0.428891	-1.294053	2.553886	-3.322506	-3.834786	20.764004	-63.844883	-64.528552			
43178	7.210798	0.167322	-1.384969	2.418903	-3.609408	-3.891312	21.414425	-63.629415	-65.138246			
43179	6.517838	-0.951213	-1.722494	1.710660	-4.330741	-4.845569	21.888843	-63.492967	-65.632131			
43180	6.161038	-0.429344	-1.063953	1.549300	-3.446595	-4.813153	22.386192	-63.436271	-66.055975			
43181	5.587285	-0.518204	-0.858605	1.227273	-3.159448	-5.259100	22.700146	-63.420728	-66.432702			
43182	5.164712	-0.528205	-0.810448	1.096984	-2.969130	-5.618530	23.124686	-63.465196	-66.818481			
43183	5.315308	0.014311	0.310625	0.722205	-1.985803	-4.925544	23.671275	-63.563486	-67.231036			
43184	5.468791	-0.179254	0.386346	0.538756	-2.134184	-4.788345	24.313219	-63.704535	-67.670883			
43185	5.677569	-0.106640	1.230928	0.013694	-1.661597	-4.244908	25.211686	-63.876300	-68.134211			
43186	5.845932	0.715218	2.188996	-0.096159	-0.589752	-3.558018	26.285703	-64.092319	-68.629536			
43187	6.259928	1.248146	2.331322	0.179942	-0.294726	-3.025932	27.369086	-64.383517	-69.170474			
43188	7.092908	2.052841	2.825156	0.433169	0.243661	-1.922351	28.473368	-64.742517	-69.724677			
43189	7.858886	3.358511	3.791794	0.645026	1.460597	-0.600242	29.377344	-65.169853	-70.268083			
43190	8.864370	2.933692	3.750593	0.456676	0.793920	0.207839	29.897467	-65.662061	-70.756755			
43191	9.336034	2.716338	4.452778	-0.190152	0.942974	0.838184	30.071450	-66.199226	-71.196796			
43192	9.473951	1.108110	4.000503	-0.962503	-0.427907	0.476980	30.164135	-66.755030	-71.571586			
43193	9.650106	2.200603	5.797243	-1.554309	1.448110	1.459463	30.382234	-67.276022	-71.882730			
43194	9.747782	3.200193	6.571227	-1.453532	2.685833	1.981979	30.195123	-67.728207	-72.056742			
43195	10.006906	2.695310	5.887309	-1.262185	1.923339	1.882182	29.812396	-68.173547	-72.140399			
43196	10.151356	2.143492	5.450035	-1.307625	1.322974	1.758235	29.620071	-68.701712	-72.216807			
43197	10.166521	1.895406	5.237936	-1.340993	1.132012	1.646175	29.439139	-69.328180	-72.313097			
43198	10.392136	0.912144	4.977544	-1.837409	0.324503	1.594409	29.447464	-69.929539	-72.368921			
43199	10.675636	1.075087	5.997295	-2.463710	1.089598	2.180424	29.545821	-70.396580	-72.317959			
43200	11.112642	0.716811	5.511729	-2.351931	0.472320	2.378642	29.580022	-70.826824	-72.170610			
43201	11.365704	0.424993	4.446552	-1.781145	-0.396848	2.262115	29.331785	-71.305287	-71.880045			
43202	11.379526	-0.867456	1.879132	-0.834633	-2.815750	1.374351	28.959962	-72.115372	-71.690569			
43203	13.233275	-3.079725	0.155371	-0.991756	-5.808871	2.430387	28.425261	-73.460272	-71.465227			
43204	15.253547	-6.559735	-2.370452	-1.491654	-10.105663	3.489363	27.165887	-75.313563	-70.547144			
43205	12.098415	-8.719037	-1.699994	-3.816279	-10.101281	0.611971	27.089444	-76.878600	-70.232922			
43206	12.653215	-2.491606	4.853040	-4.337730	-1.247129	3.206116	30.090604	-77.822619	-71.988428			
43207	19.749536	10.957196	18.619490	-5.577666	16.061425	14.012319	35.056196	-78.034749	-75.031817			
43208	20.890050	20.681471	15.831038	2.350150	21.255418	15.827508	37.590873	-77.912691	-77.751014			
43209	18.166299	8.888597	6.713949	1.733847	7.100888	10.203379	34.639254	-77.560437	-77.354870			
43210	14.429664	-2.931197	6.715913	-6.092847	-0.531633	5.170192	29.376949	-77.537903	-75.109552			
43211	8.212779	-11.933512	3.533320	-10.665770	-7.236466	-2.316166	26.478754	-77.815778	-74.264546			
43212	3.980586	-12.433699	-5.717091	-5.210601	-13.156920	-8.118238	28.209079	-78.614813	-75.938052			
43213	3.016725	-8.726900	-3.796386	-3.731987	-9.136542	-8.307310	32.818018	-79.538511	-79.498703			
43214	5.779117	-6.090605	-2.324737	-2.609741	-6.817706	-5.058204	37.988125	-80.510367	-83.011765			
43215	6.677412	-1.862432	-3.859925	1.573825	-5.021758	-3.874821	44.775554	-81.214098	-87.562654			
43216	5.618095	0.918288	-8.270962	6.777534	-5.562366	-4.921621	56.797032	-81.843471	-96.934343			
43217	6.857722	7.621382	-15.436251	16.565106	-4.704481	-2.973655	73.101804	-81.979440	-110.834428			
43218	12.670629	9.680222	-5.254674	9.281190	2.798615	3.894214	77.955423	-81.330359	-114.155733			
43219	10.315582	5.145890	1.321250	1.247099	3.479951	1.185961	80.617250	-81.270899	-115.885090			
43220	9.513073	3.802904	-0.778242	2.148215	1.394936	0.137354	84.949843	-81.790449	-119.637145			
43221	10.022586	2.955240	-1.499851	2.182171	0.383459	0.508376	89.248593	-82.487647	-124.174212			
43222	9.360607	1.740356	-4.097654	3.633960	-1.905231	-0.294064	93.807911	-82.962352	-129.394474			
43223	8.556791	1.884452	-5.339769	4.732876	-2.364459	-1.021141	99.181837	-83.236400	-135.096650			
43224	8.675520	2.657440	-3.587647	3.690517	-0.634677	-0.803046	106.359943	-83.397631	-142.330457			
43225	8.847262	2.454076	-2.153490	2.332386	0.147646	-0.676458	114.193410	-83.518996	-150.333088			
43226	8.414525	1.662365	-1.612289	1.417826	-0.026961	-1.201367	122.465878	-83.561781	-159.067549			
43227	8.283919	1.026610	-1.946613	1.266281	-0.614681	-1.357878	130.911844	-83.476225	-168.149111			
43228	8.525252	0.495067	-1.627712	0.606585	-0.727115	-1.171155	139.066256	-83.237726	-176.968023			
43229	9.120593	-0.071639	-1.259034	-0.165829	-0.814561	-0.643048	146.393158	-82.827109	175.093282			
43230	9.655385	-0.601209	-1.125015	-0.741589	-0.994920	-0.152903	152.164088	-82.280708	168.838004			
43231	9.523892	-0.926840	-0.705345	-1.332072	-0.857235	-0.349596	156.082876	-81.681653	164.642520			
43232	9.602592	-1.068991	-0.418115	-1.732677	-0.665574	-0.321613	159.526819	-81.018245	161.147018			
43233	9.598914	-1.101721	0.085164	-2.211895	-0.260706	-0.410650	162.488340	-80.386893	158.210372			
43234	9.594341	-1.143362	-0.038929	-2.211812	-0.260321	-0.410620	165.154564	-79.741159	155.578485			
43235	9.603319	-1.314954	-1.133308	-1.556007	-0.964334	-0.227041	167.783991	-79.053299	153.182702			
43236	9.722091	-0.737876	-1.605857	-0.918925	-0.679118	0.002359	170.238519	-78.351180	151.271054			
43237	10.017614	0.313962	-1.568562	-0.413141	0.321316	0.318249	172.508328	-77.669213	149.703219			
43238	9.976604	1.080312	-1.532373	-0.031639	1.069797	0.281907	174.488841	-77.054174	148.329159			
43239	9.629745	1.352971	-1.782650	0.332108	1.212915	-0.006687	176.109055	-76.481272	147.134774			
43240	9.310127	0.987196	-2.364313	0.574083	0.644231	-0.195134	177.463741	-75.916550	146.133226			
43241	9.129481	0.766466	-2.053103	0.184811	0.713763	-0.452896	178.509568	-75.387568	145.445268			
43242	9.224876	0.722094	-1.608594	-0.262409	1.027663	-0.480936	179.442618	-74.850838	144.897019			
43243	9.594266	0.495185	-1.524249	-0.596595	1.028001	-0.158419	-179.631717	-74.301843	144.365421			
43244	9.778148	0.180804	-1.717505	-0.721354	0.778367	0.059882	-178.651151	-73.772048	143.778181			
43245	9.572814	-0.154235	-1.857219	-0.802213	0.476855	-0.104948	-177.655929	-73.296399	143.196660			
43246	9.183683	-0.345513	-2.072990	-0.686560	0.216573	-0.419189	-176.625258	-72.831709	142.630219			
43247	9.025846	-0.299934	-2.469940	-0.341460	0.096959	-0.456952	-175.604418	-72.351310	142.120575			
43248	9.065042	-0.041950	-2.963025	0.154153	0.149103	-0.278040	-174.565790	-71.883047	141.594414			
43249	8.766349	0.118749	-2.679806	0.060371	0.456482	-0.656721	-173.619745	-71.458424	141.057532			
43250	8.521225	0.111454	-2.037429	-0.424991	0.800671	-1.097605	-172.810594	-71.047099	140.520775			
43251	8.336402	-0.276745	-1.871297	-0.747783	0.586319	-1.317362	-172.026300	-70.627318	139.991766			
43252	8.195848	-0.795331	-2.106659	-0.826202	0.071920	-1.353713	-171.188638	-70.169448	139.495856			
43253	8.246790	-1.403730	-2.470523	-0.893043	-0.534371	-1.152441	-170.289781	-69.686196	139.034774			
43254	8.436172	-1.845055	-2.688744	-1.016491	-0.890683	-0.869789	-169.320581	-69.205197	138.593413			
43255	8.864098	-1.828503	-2.311386	-1.441981	-0.519545	-0.598113	-168.334390	-68.738076	138.218572			
43256	9.419819	-1.352884	-1.950678	-1.657629	0.267036	-0.244573	-167.269345	-68.279650	137.857602			
43257	9.349462	-0.527255	-1.813685	-1.353463	1.100213	-0.435214	-166.203881	-67.866763	137.556687			
43258	9.026648	0.555547	-2.118240	-0.503621	1.902213	-0.735062	-165.259559	-67.474286	137.343385			
43259	8.899533	1.364362	-2.822313	0.473932	2.359986	-0.689435	-164.443871	-67.075020	137.144026			
43260	8.757287	1.664850	-3.493544	1.179890	2.394550	-0.618125	-163.821996	-66.678835	136.983678			
43261	9.172875	1.951563	-2.916840	0.669911	3.060768	-0.504599	-163.431440	-66.285671	136.965496			
43262	10.235940	1.819113	-1.987133	-0.531321	3.664831	0.102877	-163.052462	-65.876631	136.918581			
43263	10.192470	0.970907	-2.139639	-0.825269	2.909492	0.200329	-162.651531	-65.526184	136.798341			
43264	10.117611	-0.013410	-2.104375	-1.310349	2.095163	0.221630	-162.043510	-65.207680	136.573956			
43265	10.580588	-1.059389	-1.847554	-2.153444	1.466734	0.660876	-161.179681	-64.887998	136.249473			
43266	10.363339	-1.619590	-2.043148	-2.171460	0.905699	0.611343	-160.241689	-64.613889	135.928938			
43267	10.533075	-0.982146	-1.732932	-2.200890	1.695632	0.540762	-159.243557	-64.393614	135.565384			
43268	11.129311	-0.486880	-1.161276	-2.646300	2.568028	0.763193	-158.413525	-64.258286	135.085255			
43269	10.989040	-0.534527	-1.009874	-2.728474	2.578472	0.578235	-157.678049	-64.223264	134.543800			
43270	11.371747	0.181006	-0.511491	-2.945712	3.534289	0.600885	-157.069691	-64.181997	134.151886			
43271	13.251613	0.884572	-0.793276	-2.976648	4.693684	2.275561	-156.574346	-64.044173	133.977033			
43272	14.785723	1.614936	-0.953783	-3.008880	5.817260	3.575416	-155.917108	-63.978919	133.765600			
43273	14.574265	2.420085	-0.202038	-3.256739	6.733148	2.929571	-155.232215	-64.038379	133.468277			
43274	14.206325	2.782200	0.864649	-3.899223	7.276782	2.110079	-154.663514	-64.161894	133.154814			
43275	14.531775	3.010191	1.480095	-4.408233	7.765050	2.132845	-153.968900	-64.378979	132.837419			
43276	15.145717	4.186676	2.883443	-5.315650	9.411066	1.952113	-153.221129	-64.704385	132.474092			
43277	15.237381	4.995838	3.015205	-5.094264	10.164393	1.890309	-152.343145	-65.212600	132.025145			
43278	14.634539	5.856521	3.799938	-5.209636	10.914571	0.987182	-151.565574	-65.937349	131.481716			
43279	14.761728	4.753886	5.457521	-6.966843	10.343414	0.899955	-150.828193	-67.021619	130.587923			
43280	13.179141	2.518438	7.157846	-8.648446	8.295212	-0.450767	-150.035244	-68.398347	128.931037			
43281	11.021373	-0.081145	1.996827	-4.252700	3.684880	-0.127903	-149.787665	-69.608356	127.280136			
43282	12.388860	-1.221470	-1.033107	-2.075931	1.912929	2.355650	-149.354481	-70.820302	125.705193			
43283	13.155254	-0.698723	-3.036644	0.031540	1.666351	3.602985	-148.049145	-72.346177	123.983564			
43284	13.467660	0.326359	-5.086019	2.529940	1.642319	4.267146	-146.659980	-73.844367	122.524565			
43285	15.207926	-0.788057	-6.607073	3.448727	0.195965	6.423347	-145.500746	-75.255785	121.314331			
43286	15.383824	-2.360146	-6.800953	3.253274	-1.563743	6.783611	-143.834748	-76.843730	119.863732			
43287	13.670432	-2.206595	-6.655136	3.687478	-2.003881	4.966156	-142.225352	-78.334799	118.669445			
43288	13.530441	-1.712838	-5.339565	2.961358	-1.341291	4.468009	-140.821905	-79.747532	117.572250			
43289	13.420507	-1.181981	-4.085803	2.256664	-0.663439	4.067447	-139.276041	-81.143624	116.024175			
43290	12.960066	-0.594748	-3.695610	2.371372	-0.317149	3.462878	-136.911900	-82.548017	113.350438			
43291	11.968471	0.225638	-3.618486	2.877957	0.068584	2.356618	-133.581076	-83.976158	109.625835			
43292	11.261492	1.412287	-3.535782	3.490370	0.845593	1.519205	-128.811374	-85.363481	104.503079			
43293	11.225967	2.602665	-3.263622	3.909929	1.766182	1.369041	-119.773278	-86.731654	94.897483			
43294	11.230970	2.147096	-3.046891	3.719088	1.133518	1.363108	-95.279172	-87.942284	69.181246			
43295	10.006885	0.140773	-3.601303	3.484927	-1.271765	0.155040	-47.293484	-88.293829	20.046749			
43296	10.333352	0.396930	-4.023692	4.097085	-1.522566	0.386031	-12.245720	-87.620110	-15.836951			
43297	10.689141	0.175311	-4.274689	4.327908	-2.131900	0.640829	4.097812	-86.394864	-33.156872			
43298	10.756428	-0.324064	-4.014813	3.954240	-2.751319	0.613695	11.185152	-85.036213	-41.355274			
43299	10.663663	-0.534907	-4.345298	4.210161	-3.400339	0.364911	14.512236	-83.543186	-45.822995			
43300	9.708513	-0.786764	-4.090083	3.860139	-3.699936	-0.702001	16.182827	-82.043612	-48.634845			
43301	9.319505	-0.752463	-4.101810	3.905168	-3.901161	-1.223869	16.955253	-80.634550	-50.595980			
43302	8.058698	-0.785859	-3.933475	3.653755	-3.912516	-2.576014	17.056456	-79.231205	-51.851681			
43303	7.645548	-0.732520	-3.976938	3.696565	-4.034531	-3.114881	16.977898	-77.910128	-52.861407			
43304	6.949282	-0.509076	-3.385903	3.286137	-3.578502	-3.778736	16.860582	-76.680105	-53.780834			
43305	6.740858	-0.717112	-3.123463	2.934432	-3.703455	-4.035090	16.794405	-75.574814	-54.712538			
43306	6.548482	-0.737657	-2.486248	2.402735	-3.434793	-4.152685	16.862480	-74.588110	-55.704663			
43307	6.589392	-0.872835	-2.409250	2.258321	-3.616381	-4.172933	17.012518	-73.707199	-56.742509			
43308	6.623851	-0.893537	-2.670731	2.428843	-3.905072	-4.275855	17.313519	-72.929507	-57.852269			
43309	6.667163	-1.096996	-3.013755	2.531193	-4.375459	-4.410414	17.798287	-72.233617	-58.940056			
43310	6.808070	-0.550016	-2.872660	2.792916	-4.008409	-4.241700	18.368896	-71.595134	-59.977124			
43311	6.438391	-0.843125	-2.816949	2.479600	-4.166072	-4.655777	19.024563	-71.016348	-60.963021			
43312	6.033768	-0.798283	-2.872354	2.467822	-4.117703	-5.095914	19.775419	-70.506265	-61.963277			
43313	5.595904	-0.863370	-2.640170	2.168341	-3.944860	-5.480702	20.511562	-70.076253	-62.951962			
43314	5.226942	-1.277410	-2.877941	1.973276	-4.321483	-5.983067	21.333388	-69.760806	-63.967775			
43315	5.338569	-0.762847	-1.916518	1.633456	-3.419222	-5.523645	22.185618	-69.567561	-65.019365			
43316	5.223554	-1.391341	-2.326524	1.438925	-4.113739	-5.857878	22.849158	-69.464640	-66.038458			
43317	5.105616	-1.843054	-2.269925	1.030597	-4.378144	-6.019758	23.660584	-69.425578	-67.052746			
43318	4.841863	-1.113050	-1.386192	0.845902	-3.231909	-5.882910	24.546577	-69.462343	-68.132275			
43319	5.213937	-1.336617	-1.548482	0.814108	-3.620324	-5.617475	25.336517	-69.553299	-69.193451			
43320	5.439644	-0.278179	-0.214219	0.613536	-2.107902	-4.823375	26.043174	-69.651747	-70.103300			
43321	5.901692	-0.344465	-0.004915	0.445544	-2.173353	-4.333033	26.525210	-69.693200	-70.834914			
43322	6.713937	1.143939	1.550253	0.482177	-0.410370	-2.856547	26.949253	-69.772536	-71.546283			
43323	8.119754	1.011496	2.125251	0.119656	-0.578813	-1.379373	27.186512	-69.940029	-72.206258			
43324	8.842784	-0.244379	2.584211	-1.046537	-1.335913	-0.754402	27.271449	-70.192413	-72.804214			
43325	9.323237	-1.008606	4.157064	-2.663693	-0.907357	0.051496	27.667991	-70.531154	-73.547761			
43326	10.968705	-0.808124	7.055774	-4.389847	0.707941	2.474578	28.299182	-70.808533	-74.427129			
43327	12.644156	-0.046355	9.530914	-5.416444	2.389734	4.872895	28.861763	-70.802729	-75.167171			
43328	13.651817	1.870850	11.116424	-5.022457	4.379706	6.589740	29.117570	-70.502954	-75.529381			
43329	12.511321	3.267886	11.108525	-4.079393	5.585372	5.768486	29.215145	-70.176978	-75.634275			
43330	10.619320	4.174263	10.914047	-3.428517	6.618320	4.106862	29.232451	-70.043955	-75.733172			
43331	9.742097	3.253127	10.261147	-3.718363	5.862827	2.938129	29.200798	-70.127095	-75.914328			
43332	10.522706	1.883420	8.998045	-3.794706	3.890779	3.059812	29.112713	-70.289436	-76.044501			
43333	11.088897	0.846760	6.671186	-2.949958	1.486093	2.728226	29.121384	-70.442111	-76.146289			
43334	9.942520	0.586159	5.302332	-2.317449	0.785307	1.202060	28.965483	-70.545693	-76.115653			
43335	9.099291	0.186672	2.720405	-0.952875	-0.944586	-0.408843	28.838770	-70.679427	-76.165120			
43336	9.337815	-0.512971	0.174659	0.232235	-3.197329	-1.025683	29.075849	-70.920764	-76.372512			
43337	10.946267	-1.052831	-1.786452	1.235067	-5.347212	-0.117253	29.629468	-71.505466	-76.742692			
43338	12.780370	-3.002682	-3.207220	0.842340	-8.028163	1.025867	29.787166	-72.558050	-76.780999			
43339	11.999825	-6.361340	-4.661956	-0.724121	-10.835896	-0.418606	29.046146	-73.658170	-76.015055			
43340	8.948800	-6.581260	-1.914119	-2.932982	-8.108502	-2.552753	28.399707	-74.216911	-75.273578			
43341	9.949319	-1.956890	5.101170	-4.189362	-0.378651	0.729897	28.294447	-74.218910	-74.679737			
43342	13.776229	6.645829	11.161776	-1.855769	8.505528	7.002312	29.329587	-73.858440	-74.857698			
43343	17.401031	14.485801	11.491772	3.637496	13.011419	11.685307	30.607892	-73.820774	-75.856707			
43344	17.691597	9.659552	5.776558	4.272727	5.720011	9.902339	28.303907	-73.838663	-75.106145			
43345	12.538733	0.142471	3.553750	-1.286888	-0.694110	3.138098	23.575690	-74.214156	-73.300547			
43346	9.709892	-7.907502	-1.911113	-4.249083	-8.745956	-1.695191	19.590222	-75.006576	-72.216117			
43347	4.891926	-14.732856	-10.842119	-5.032138	-18.233859	-8.954764	21.132306	-75.627839	-74.525878			
43348	3.649861	-7.311563	-7.504230	-1.102335	-10.976481	-8.633927	27.690498	-76.552706	-79.338877			
43349	5.087959	-2.569136	-6.531835	2.323813	-7.611478	-6.376371	35.834329	-77.882979	-84.873505			
43350	6.189253	-0.018653	-5.938674	4.031505	-5.537987	-4.651299	46.029839	-78.971838	-92.018957			
43351	9.451431	4.949385	-3.869917	6.038593	-0.964675	-0.253304	57.298206	-79.357928	-100.221104			
43352	13.375313	13.572192	1.516290	7.513332	8.365588	5.645680	60.072089	-79.041330	-102.030893			
43353	8.249753	8.565114	1.846793	4.067112	5.934334	-0.165395	60.897705	-79.755314	-104.219163			
43354	11.867213	1.898338	-2.585756	2.630002	-2.324575	1.968421	63.488033	-81.236983	-108.428080			
43355	12.295749	-3.042905	-4.955882	0.750162	-7.271049	1.657657	61.675973	-82.548738	-108.199261			
43356	8.399277	-5.293313	-4.115373	-1.392232	-7.569878	-2.312025	56.628890	-83.060534	-104.838356			
43357	6.617786	-5.301514	-3.271813	-2.014283	-6.661129	-3.966636	56.244824	-83.537543	-105.440946			
43358	6.934942	-3.780591	-2.901058	-1.176371	-5.346125	-3.422345	64.589345	-84.154580	-113.201749			
43359	8.929133	-0.550653	-2.026238	0.509489	-2.619863	-1.037126	82.426671	-84.375454	-128.954591			
43360	12.398707	5.624987	-3.062524	5.220904	0.890562	3.097351	98.329967	-83.845178	-142.226531			
43361	11.137721	11.160688	0.325052	6.455059	7.526791	2.450824	99.057583	-83.698267	-142.378659			
43362	6.423540	5.492677	3.029375	1.007350	5.673327	-2.927519	107.965069	-83.904567	-152.163038			
43363	8.956133	2.084391	-0.897115	1.211484	0.536751	-0.669327	123.907576	-84.004573	-169.032579			
43364	10.661908	-0.529108	-3.545501	0.972678	-2.969652	0.992629	138.130295	-83.883862	175.571145			
43365	9.082880	-3.461097	-3.670950	-0.972567	-4.909776	-0.707745	144.267083	-83.920935	168.319210			
43366	8.420449	-3.255717	-0.255335	-3.105151	-2.158235	-1.610991	148.771653	-83.726387	163.216194			
43367	9.083283	-3.122863	1.516901	-4.295542	-0.624187	-1.111152	154.184361	-83.137905	157.930457			
43368	9.693846	-2.335540	0.488296	-3.168538	-0.712380	-0.372622	159.178910	-82.193695	153.696541			
43369	10.352351	-0.972915	-0.501970	-1.682358	-0.335210	0.454957	163.240866	-81.218996	150.788600			
43370	10.144909	0.495598	-0.398948	-0.773838	0.882034	0.284088	166.138416	-80.391181	148.950575			
43371	9.649027	1.439850	-0.685130	0.070188	1.432815	-0.138665	168.428855	-79.721584	147.431316			
43372	9.183193	1.677042	-1.164518	0.574183	1.350802	-0.520559	170.995655	-79.099296	145.559489			
43373	9.237890	1.594912	-1.682092	0.820149	1.077846	-0.385305	173.452191	-78.430222	143.852419			
43374	9.491739	1.928865	-1.550631	0.847473	1.577401	-0.168529	175.457491	-77.769163	142.645390			
43375	9.642790	2.441553	-1.481740	1.040683	2.151639	-0.044075	176.933473	-77.122778	141.841771			
43376	9.920946	2.643397	-1.782445	1.269969	2.265499	0.279043	178.044053	-76.496924	141.111502			
43377	10.064926	1.878009	-1.966614	0.816147	1.692522	0.442336	178.979354	-75.945692	140.288963			
43378	9.648735	0.539763	-1.802474	-0.147469	0.806677	-0.016508	179.860883	-75.444536	139.500036			
43379	9.318016	-0.247325	-1.567723	-0.809166	0.381132	-0.402917	-179.349432	-74.978928	138.914854			
43380	9.066023	-0.572798	-1.245560	-1.242379	0.365715	-0.735546	-178.363154	-74.504139	138.273443			
43381	8.890929	-0.795190	-1.545722	-1.156042	0.054580	-0.827687	-177.198226	-74.030847	137.539287			
43382	8.755338	-0.635216	-2.014819	-0.696499	-0.053686	-0.833247	-175.945455	-73.582008	136.735281			
43383	8.625575	-0.372524	-2.351334	-0.264189	0.003645	-0.868544	-174.726265	-73.163470	135.902355			
43384	8.388522	-0.772680	-2.617302	-0.278969	-0.425060	-1.006135	-173.458258	-72.654024	135.103370			
43385	8.493810	-0.483150	-3.076281	0.209550	-0.346704	-0.775174	-172.224759	-72.084277	134.536154			
43386	8.534114	-0.009769	-2.942287	0.372820	0.218690	-0.796010	-171.012973	-71.551231	134.010252			
43387	8.351708	-0.158172	-2.989552	0.341630	0.132350	-0.948237	-169.958349	-71.056287	133.421209			
43388	7.846542	-0.660553	-2.871789	0.047579	-0.235987	-1.434545	-169.065684	-70.615187	132.740346			
43389	7.458097	-1.124582	-3.032247	-0.035965	-0.712809	-1.715003	-168.297207	-70.112289	132.104173			
43390	7.635201	-1.016235	-3.383679	0.233873	-0.689141	-1.431284	-167.555315	-69.503838	131.610261			
43391	8.422306	-0.017295	-3.049762	0.354109	0.591819	-0.881844	-166.915509	-68.863311	131.264405			
43392	9.149673	0.703806	-2.595551	0.216277	1.708810	-0.432872	-166.316056	-68.256183	130.888975			
43393	9.629521	0.586821	-2.699889	0.070597	1.791639	0.043557	-165.739191	-67.707878	130.483188			
43394	9.753561	0.427314	-2.490007	-0.251552	1.903208	0.078136	-165.164357	-67.189948	130.135246			
43395	10.357887	0.686291	-1.692279	-0.903311	2.795232	0.286341	-164.551030	-66.658096	129.860440			
43396	11.123419	1.082135	-0.618497	-1.740278	3.985083	0.501068	-163.943904	-66.145795	129.625134			
43397	11.042583	1.368819	-0.358612	-1.799772	4.404347	0.252235	-163.424388	-65.690528	129.419840			
43398	10.942713	1.030861	-0.758361	-1.697255	3.977742	0.320278	-162.873560	-65.270611	129.197774			
43399	10.743102	0.664303	-1.278321	-1.482366	3.435029	0.360428	-162.279384	-64.895408	129.023418			
43400	10.584724	0.572200	-1.687336	-1.200874	3.181253	0.368076	-161.656674	-64.554391	128.898459			
43401	10.937100	0.451860	-2.030462	-1.116635	3.107155	0.819593	-160.981998	-64.257266	128.765077			
43402	11.096757	0.690233	-1.907100	-1.140260	3.476310	0.858124	-160.328900	-64.028959	128.617396			
43403	11.192037	0.949929	-2.264891	-0.745608	3.615720	1.034624	-159.664849	-63.883587	128.385219			
43404	11.633095	1.318886	-2.666600	-0.333632	3.943316	1.523882	-158.927585	-63.830324	128.019362			
43405	13.065018	1.970615	-2.019767	-0.854281	5.304237	2.426285	-158.220316	-63.866837	127.488446			
43406	13.951918	2.339881	-0.755492	-1.847404	6.496430	2.640619	-157.795837	-63.958742	126.844035			
43407	13.451264	1.089918	0.118397	-3.018597	5.687840	2.047947	-157.454586	-64.052557	126.263793			
43408	13.728113	1.183804	1.406287	-4.017521	6.436207	1.775009	-156.877900	-64.226439	125.923807			
43409	14.561254	2.727583	3.345564	-4.921556	8.833075	1.519448	-156.291929	-64.519432	125.654314			
43410	15.173645	2.796324	4.514546	-5.926543	9.565892	1.668096	-155.943381	-64.986391	125.334976			
43411	14.899968	2.283147	5.300873	-6.676631	9.324942	1.313244	-155.677555	-65.621941	124.975051			
43412	14.604521	2.242199	6.735290	-7.671956	9.750887	0.663014	-155.425531	-66.423138	124.515627			
43413	14.868779	1.720472	9.490922	-10.061017	10.577217	0.237307	-154.931482	-67.669446	123.506114			
43414	12.297557	-0.771890	5.475294	-7.332609	5.780483	-0.085734	-154.429771	-69.045968	121.986382			
43415	10.204389	-3.345569	-1.835123	-2.217919	-0.599885	0.836638	-153.667460	-70.112535	120.729900			
43416	12.152010	-1.251616	-0.739796	-2.097043	2.075283	2.064759	-151.815250	-71.356367	119.392421			
43417	12.696414	0.607053	-2.817878	0.786871	2.532629	2.933487	-149.751878	-72.809316	117.776900			
43418	13.608245	-0.852480	-6.006648	2.807236	-0.245472	4.817316	-147.672712	-74.294349	116.332665			
43419	14.313196	-1.459734	-6.330716	2.985040	-0.986833	5.587902	-145.571320	-75.754876	115.093558			
43420	14.309078	-1.919801	-5.585738	2.413583	-1.273173	5.424663	-143.704467	-77.183566	114.076950			
43421	13.954574	-1.875504	-4.929997	2.160715	-1.266218	4.893403	-142.219172	-78.614996	113.254130			
43422	13.855935	-1.725987	-4.282752	1.894606	-1.137078	4.623903	-141.052831	-80.015814	112.500068			
43423	14.015862	-0.910149	-3.405957	1.697180	-0.288106	4.536515	-139.768556	-81.406320	111.301949			
43424	13.653729	0.165461	-3.271833	2.295425	0.351226	4.034804	-137.844881	-82.836041	108.950791			
43425	12.591862	0.180903	-3.714871	2.906067	-0.284023	2.987779	-134.720154	-84.248003	105.330497			
43426	12.049457	1.187546	-3.735877	3.590039	0.228268	2.336675	-130.369737	-85.638314	100.627132			
43427	12.042561	1.473064	-3.460559	3.634118	0.319392	2.264194	-122.865272	-86.970696	92.728176			
43428	12.116658	0.898058	-3.157972	3.218807	-0.315039	2.316780	-104.305737	-88.133648	73.608733			
43429	12.077139	0.270074	-3.834439	3.609385	-1.509437	2.242044	-53.045151	-88.659448	21.517797			
43430	11.147031	-0.169409	-4.439579	3.988139	-2.531003	1.217876	-10.596639	-87.833216	-21.993718			
43431	10.559184	-1.134974	-4.007274	3.170337	-3.407353	0.539759	4.262191	-86.531530	-37.879268			
43432	10.353475	-1.239165	-4.163582	3.297462	-3.852323	0.204508	11.577688	-85.208395	-45.997146			
43433	10.383978	-0.591202	-3.770500	3.401903	-3.369368	0.160278	15.974700	-83.814889	-51.079189			
43434	9.868754	-0.697373	-3.568429	3.199004	-3.558069	-0.447194	18.693769	-82.443363	-54.456725			
43435	9.401330	-0.351893	-3.338096	3.227990	-3.338778	-0.976484	20.293983	-81.068875	-56.819474			
43436	8.791243	-0.357999	-3.478996	3.325833	-3.575244	-1.709050	21.166544	-79.716289	-58.451485			
43437	8.238260	-0.320805	-3.886334	3.650448	-3.916522	-2.436680	21.347995	-78.337595	-59.494149			
43438	7.270493	-0.005782	-3.703475	3.629865	-3.582200	-3.443673	21.426298	-77.076438	-60.325255			
43439	6.931385	0.426383	-3.459174	3.695310	-3.202180	-3.789441	21.172410	-75.914693	-61.026221			
43440	6.510391	-0.187047	-3.437929	3.234320	-3.716859	-4.338988	20.773743	-74.877851	-61.660116			
43441	6.077310	-0.852427	-2.827075	2.272432	-3.855341	-4.750712	20.332298	-73.945290	-62.282598			
43442	5.938913	-1.173320	-2.335423	1.655298	-3.842784	-4.853499	19.845369	-73.117631	-62.888402			
43443	5.792814	-1.580287	-2.032343	1.108115	-3.981775	-5.006315	19.250671	-72.349847	-63.426137			
43444	5.330323	-2.019094	-2.213679	0.821509	-4.348561	-5.593216	18.715044	-71.646584	-63.999777			
43445	4.855655	-3.077363	-2.534278	0.164349	-5.202151	-6.294135	18.513053	-71.053432	-64.608552			
43446	5.034941	-3.372227	-2.420000	-0.144889	-5.410269	-6.167611	18.784975	-70.520834	-65.304730			
43447	4.844878	-3.773751	-2.393681	-0.506335	-5.635211	-6.431642	19.531690	-70.065754	-66.121579			
43448	4.862798	-3.820377	-1.987452	-0.811829	-5.429051	-6.340212	20.700606	-69.702397	-67.011023			
43449	5.091083	-3.415394	-1.541373	-0.770477	-4.967252	-5.979631	22.155952	-69.399194	-67.893135			
43450	4.837499	-2.322053	-0.986933	-0.368670	-3.815625	-5.930389	23.736126	-69.142260	-68.696986			
43451	4.852901	-1.152411	-0.143635	-0.102658	-2.503692	-5.497571	24.985393	-68.945123	-69.425117			
43452	4.406952	-1.618458	-1.111308	0.175636	-3.316328	-6.313154	25.996120	-68.848706	-70.088126			
43453	4.530048	0.170713	-0.006719	0.671963	-1.425519	-5.562176	27.164580	-68.865469	-70.772935			
43454	4.577461	0.891667	0.346650	0.912329	-0.719041	-5.282899	27.875306	-68.959336	-71.470994			
43455	4.841999	1.387182	0.394856	1.232718	-0.431813	-4.932212	28.385972	-69.171454	-72.276451			
43456	6.090705	0.960904	0.394575	1.040588	-1.136488	-3.829281	28.768111	-69.503529	-73.091857			
43457	8.183808	1.161331	2.436247	-0.060908	-0.347220	-1.202567	28.897924	-69.854005	-73.755377			
43458	9.992449	-0.373475	4.219403	-2.241743	-0.758127	0.779344	28.830475	-70.191316	-74.211973			
43459	12.400803	-1.078621	6.690429	-4.250256	-0.310523	3.661127	28.943284	-70.437913	-74.478652			
43460	13.572729	-0.329450	8.997301	-5.211393	1.366963	5.557791	29.102431	-70.415744	-74.379533			
43461	13.377676	3.009365	11.711243	-4.739284	5.422047	6.719443	29.350386	-70.237825	-74.160087			
43462	12.909142	5.665971	12.605057	-3.556070	7.895817	6.999411	29.557938	-70.100307	-74.141607			
43463	11.891673	6.901061	11.883746	-2.301402	8.559460	6.052337	29.808893	-70.020855	-74.330064			
43464	10.377154	6.276448	11.306933	-2.491546	8.232157	4.362983	29.966498	-69.954216	-74.556328			
43465	9.776543	5.276033	10.121571	-2.418669	6.958724	3.286536	29.961154	-69.859065	-74.651157			
43466	9.369238	3.958441	7.629301	-1.624674	4.565491	1.942084	29.640712	-69.823764	-74.612294			
43467	9.134647	2.745890	4.130474	-0.048278	1.542963	0.466383	29.179555	-69.910500	-74.548868			
43468	8.721126	0.814717	1.270306	0.514179	-1.484335	-1.102477	28.617995	-70.090322	-74.492291			
43469	9.059696	-1.606200	-1.903394	0.942490	-5.291085	-2.105770	28.331718	-70.501159	-74.535689			
43470	12.132980	-3.620269	-2.905660	0.390827	-8.201817	0.253747	28.011749	-71.282914	-74.399871			
43471	15.641707	-7.073584	-2.388457	-2.202649	-11.053591	3.354034	27.122811	-72.220813	-73.577726			
43472	14.104702	-6.760292	3.083438	-5.775945	-6.503986	3.547225	25.913363	-72.422331	-72.402691			
43473	8.528693	0.018653	10.253170	-6.124819	4.563732	1.120069	25.562395	-72.226491	-71.980376			
43474	11.057434	9.020810	12.469438	-0.829879	11.334225	5.352231	26.856125	-72.179984	-73.333590			
43475	17.128355	13.442967	7.337001	6.318001	8.962882	10.378249	28.349406	-72.363545	-75.163772			
43476	17.259446	5.079395	3.342876	2.888956	0.675413	8.244401	26.570782	-72.803335	-74.621620			
43477	12.695320	-4.924098	1.911731	-3.956387	-5.297590	2.243170	22.370494	-73.291313	-73.063222			
43478	8.038106	-12.767240	-3.155839	-7.525914	-12.236697	-4.230280	19.810667	-73.912829	-72.922118			
43479	4.450487	-13.139084	-11.030526	-3.642392	-17.343772	-9.612521	22.113583	-74.491969	-74.775503			
43480	2.433186	-6.282164	-8.856746	0.645261	-11.100258	-10.238914	27.633988	-75.338240	-78.120146			
43481	4.292269	-1.655418	-7.257385	3.652540	-7.381390	-7.364588	35.645633	-76.460944	-83.095065			
43482	7.369380	3.119060	-6.689193	6.997828	-4.167608	-3.300611	47.049211	-77.535716	-90.750519			
43483	14.743317	13.016035	-4.998820	12.194620	3.009325	6.121460	56.493016	-77.486109	-96.549303			
43484	8.809038	18.996164	3.552501	9.186334	14.531381	2.658186	57.715679	-77.503277	-97.544103			
43485	8.020513	6.406360	-2.843209	6.041946	1.299847	-1.137484	60.123505	-78.689446	-101.449820			
43486	12.474715	1.847357	-4.668413	4.195551	-3.949864	2.336953	62.255080	-80.333868	-104.887953			
43487	11.205777	-2.673192	-4.141677	0.737220	-6.446682	0.568158	59.969611	-81.511886	-104.219892			
43488	8.552918	-3.699965	-2.699747	-0.990788	-5.656749	-1.992945	56.739842	-82.192017	-102.758040			
43489	7.669308	-3.594918	-2.239232	-1.286024	-5.029627	-2.755557	56.635466	-82.942603	-103.656111			
43490	7.938633	-2.564494	-1.827825	-0.883499	-3.947491	-2.291095	62.521286	-83.731593	-109.516842			
43491	9.230876	-0.624298	-1.936042	0.479447	-2.702413	-0.767751	73.844619	-84.279413	-120.113186			
43492	10.058635	2.630999	-2.384130	2.977804	-0.698847	0.406070	84.431136	-84.445992	-130.083652			
43493	9.725570	3.895951	-0.948151	2.808489	1.359783	0.233534	90.923435	-84.686345	-136.712219			
43494	8.147472	2.052683	0.016910	0.889616	0.991076	-1.516923	102.203790	-85.106076	-148.634442			
43495	9.330615	-0.321561	-2.929773	1.051370	-2.655631	-0.454024	119.219949	-85.259417	-166.501602			
43496	8.665601	-2.866574	-4.411197	0.153556	-5.287540	-1.164884	129.858370	-85.198162	-177.616173			
43497	8.495574	-1.827230	-1.139272	-1.325879	-2.045663	-1.394408	138.168081	-84.783633	173.986111			
43498	9.613933	-1.116332	-0.442113	-1.439663	-0.914884	-0.275521	146.254020	-84.117555	166.205559			
43499	9.795501	-0.221390	-1.109691	-0.433110	-0.657125	0.016386	152.371313	-83.403079	160.551779			
43500	9.635381	0.596716	-0.834065	-0.077800	0.234844	-0.126139	157.412621	-82.751154	155.807406			
43501	9.537102	0.087304	-0.982585	-0.391900	-0.091143	-0.233243	162.061514	-82.127444	151.252692			
43502	9.362360	-0.888194	-2.097859	-0.365682	-1.442600	-0.292857	166.130424	-81.491501	147.296232			
43503	9.021229	-1.290435	-2.747586	-0.208107	-2.082674	-0.527503	169.506263	-80.821501	144.321135			
43504	8.981960	-0.774704	-2.721123	0.120983	-1.575666	-0.529302	172.529966	-80.085789	141.994591			
43505	9.045949	-0.091568	-2.629294	0.502736	-0.884267	-0.447098	175.093454	-79.330742	140.317322			
43506	9.288688	1.013331	-2.337206	0.991281	0.282655	-0.236449	177.283016	-78.553407	139.060309			
43507	9.872508	1.949988	-1.759349	1.073378	1.579851	0.222934	179.123717	-77.798868	138.005830			
43508	10.153611	2.415909	-1.151407	0.837339	2.511159	0.348465	-179.202035	-77.095560	136.882831			
43509	10.131579	2.365839	-0.899278	0.563828	2.766101	0.241368	-177.779232	-76.452994	135.716586			
43510	9.965479	1.662275	-1.122843	0.237623	2.187186	0.111694	-176.499927	-75.868964	134.481871			
43511	9.443916	0.336187	-1.226085	-0.518424	1.151193	-0.367641	-175.200973	-75.314392	133.301671			
43512	9.004045	-0.527275	-1.790015	-0.641327	0.171165	-0.641354	-173.852802	-74.675675	132.445410			
43513	9.321631	-0.259764	-2.923699	0.269944	-0.171492	-0.045158	-172.699385	-73.998956	131.995146			
43514	9.318687	0.286356	-3.139531	0.753344	0.228268	-0.006788	-171.549154	-73.392188	131.404916			
43515	9.277813	0.050343	-3.027478	0.501765	0.214921	-0.068598	-170.601571	-72.924323	130.600546			
43516	8.970467	-0.640358	-2.761151	-0.098056	-0.130635	-0.406515	-169.738248	-72.507843	129.673224			
43517	9.024426	-0.648449	-2.833213	-0.070794	-0.091585	-0.332498	-168.934153	-72.129623	128.799669			
43518	8.851216	-0.322508	-2.573536	-0.024349	0.343671	-0.595745	-168.203676	-71.759897	127.943981			
43519	8.450603	-0.741259	-2.691815	-0.144657	-0.066758	-0.914258	-167.393794	-71.273175	127.166390			
43520	8.460566	-0.604517	-2.659461	-0.098974	0.151099	-0.925289	-166.522864	-70.673476	126.621418			
43521	8.812412	0.166842	-2.347244	0.077432	1.117539	-0.760611	-165.703383	-70.047801	126.185032			
43522	8.945339	0.410194	-2.344681	0.177994	1.441386	-0.670763	-165.017624	-69.483872	125.658208			
43523	8.838114	-0.198725	-2.355079	-0.206247	1.034063	-0.725025	-164.373867	-68.957090	125.051636			
43524	8.931857	-0.483798	-1.960440	-0.718793	1.162548	-0.758041	-163.775245	-68.441061	124.523776			
43525	9.078932	-0.339831	-1.454808	-1.048682	1.694284	-0.830041	-163.164223	-67.912242	124.067587			
43526	9.527921	-0.152199	-1.279726	-1.171306	2.164041	-0.518258	-162.521213	-67.403449	123.618249			
43527	9.902606	0.095597	-1.062992	-1.269768	2.680803	-0.304744	-161.884422	-66.928667	123.197906			
43528	10.129413	0.439642	-0.927471	-1.215792	3.176066	-0.216214	-161.240263	-66.480687	122.818318			
43529	10.102722	0.613649	-1.119217	-0.973752	3.272960	-0.219297	-160.558937	-66.062562	122.492957			
43530	10.107706	0.618853	-1.407329	-0.773155	3.199809	-0.133218	-159.865734	-65.655101	122.203080			
43531	10.076204	0.093355	-1.849890	-0.775910	2.623396	0.060304	-159.165163	-65.301499	121.916048			
43532	9.946405	-0.271933	-1.875757	-0.959483	2.354227	-0.011668	-158.479933	-64.966604	121.641860			
43533	10.200922	-0.624402	-2.026197	-1.120010	2.163362	0.317427	-157.781115	-64.653326	121.356434			
43534	10.475157	-0.570683	-2.152832	-1.045882	2.307303	0.592665	-157.028605	-64.375319	121.032815			
43535	10.833937	-0.019999	-2.288396	-0.674747	2.865267	0.861857	-156.212328	-64.143823	120.658221			
43536	11.446760	0.869075	-2.334383	-0.220836	3.829206	1.256231	-155.360258	-63.979440	120.238929			
43537	12.119021	1.816758	-2.501463	0.354998	4.798820	1.731728	-154.468705	-63.918230	119.734755			
43538	13.223662	2.739576	-1.319597	-0.214492	6.561281	2.062294	-153.765244	-63.953536	119.196817			
43539	13.456703	2.994419	-0.565106	-0.640961	7.233015	1.919361	-153.205819	-64.073804	118.554864			
43540	13.081223	2.646874	0.492405	-1.517984	7.333520	1.245410	-152.870060	-64.233268	117.975002			
43541	13.827108	1.559339	1.659303	-3.158859	7.342149	1.697653	-152.635993	-64.372965	117.575578			
43542	15.190382	1.642013	2.324968	-3.848090	8.238680	2.683923	-152.135024	-64.633909	117.250382			
43543	16.033132	2.265716	3.586658	-4.568683	9.618405	2.902303	-151.626776	-65.067402	116.875905			
43544	15.689921	2.551153	4.411728	-4.898885	10.041546	2.324494	-151.148788	-65.650829	116.434143			
43545	15.106587	2.990509	5.098181	-4.962872	10.404593	1.600146	-150.590571	-66.506996	115.859333			
43546	14.518142	3.057912	6.623282	-5.851926	10.878633	0.741616	-149.771250	-67.766970	114.739487			
43547	12.089929	0.781612	5.063956	-5.344700	7.331983	-0.321217	-149.145120	-69.067319	113.248928			
43548	10.122276	-1.650125	-2.103646	-0.702006	0.839397	0.599248	-148.543982	-70.081172	112.049332			
43549	11.183975	-1.135880	-2.468826	-0.096052	1.205738	1.632755	-147.148336	-71.273837	110.781803			
43550	11.368436	0.631477	-3.415533	1.872412	1.911195	1.769229	-145.603937	-72.620057	109.444422			
43551	12.514513	-0.321424	-5.029294	2.646257	0.356551	3.411245	-144.423248	-73.926280	108.397907			
43552	13.770137	-1.363724	-5.050626	2.111393	-0.421112	4.759200	-143.212082	-75.274387	107.445291			
43553	13.878787	-1.761370	-4.519157	1.622235	-0.717653	4.781425	-142.021835	-76.688193	106.460767			
43554	13.760257	-2.300844	-3.747608	0.862493	-1.066417	4.567527	-140.792564	-78.140969	105.328714			
43555	13.720156	-2.127479	-3.341209	0.791222	-1.034947	4.407884	-139.596064	-79.562508	104.074764			
43556	13.449356	-1.481956	-2.887773	0.952260	-0.633933	3.975043	-138.059833	-80.996987	102.245295			
43557	12.578875	-0.867696	-3.774256	2.178522	-1.101706	3.120114	-136.384796	-82.353030	100.104379			
43558	12.172036	-1.206335	-4.620114	2.755921	-2.220084	2.774116	-134.895651	-83.639924	98.292062			
43559	12.028603	-0.470849	-3.987281	2.764173	-1.563062	2.463949	-132.654230	-84.992547	95.877933			
43560	11.752488	0.119607	-3.421697	2.750867	-1.076728	2.066207	-127.589294	-86.410309	90.492142			
43561	11.878085	0.084049	-2.745526	2.282815	-1.019801	2.119251	-112.959463	-87.890103	75.045349			
43562	11.276137	-0.654042	-2.516823	1.729472	-1.835714	1.480740	-60.242951	-88.739262	20.984627			
43563	11.056355	-1.873266	-4.024441	2.169527	-4.070950	1.171795	-8.663023	-88.018887	-31.649673			
43564	11.407831	-1.115358	-3.216695	2.086674	-3.303928	1.432286	9.352068	-86.641488	-50.544624			
43565	12.080307	-0.989227	-3.502259	2.451489	-3.764667	1.976483	16.131602	-85.145528	-58.149298			
43566	11.851552	-0.930095	-3.098749	2.231030	-3.778723	1.661594	18.769778	-83.530946	-61.704349			
43567	11.454872	-1.997863	-3.957379	2.148009	-5.428528	0.993465	19.711226	-81.925991	-63.630336			
43568	10.529328	-1.895684	-3.650270	1.965580	-5.321369	-0.035347	20.003994	-80.394642	-64.813990			
43569	9.903975	-2.058088	-3.830046	1.941980	-5.718333	-0.839583	19.594724	-78.965229	-65.514681			
43570	8.940781	-2.563393	-4.300333	1.807006	-6.447083	-2.056024	18.922798	-77.575096	-65.962888			
43571	8.005938	-2.897133	-4.080317	1.301425	-6.510848	-3.100867	18.170658	-76.223219	-66.223689			
43572	7.296988	-2.519017	-3.621682	1.187098	-5.923919	-3.795783	17.483921	-74.946671	-66.470143			
43573	6.721529	-2.885066	-3.091130	0.482062	-5.757784	-4.365551	16.857687	-73.779367	-66.738184			
43574	6.649659	-2.601335	-2.358676	0.210328	-5.122571	-4.311601	16.433223	-72.711303	-67.051135			
43575	6.238428	-2.502053	-1.965599	-0.015066	-4.744600	-4.662012	16.138955	-71.745167	-67.401535			
43576	6.112126	-2.682577	-2.196253	-0.042509	-5.059514	-4.936562	16.178379	-70.912371	-67.842774			
43577	6.077959	-2.481775	-2.271025	0.152542	-5.045277	-5.039887	16.604512	-70.197233	-68.359858			
43578	5.723007	-2.685432	-2.610124	0.156233	-5.359980	-5.567367	17.419135	-69.570460	-68.971448			
43579	5.454764	-2.034825	-2.121690	0.356410	-4.572550	-5.646048	18.494506	-69.008022	-69.657387			
43580	5.346840	-2.446216	-2.389148	0.200930	-5.023141	-5.938684	19.786983	-68.476402	-70.376125			
43581	5.822427	-1.591048	-1.221892	0.232921	-3.883417	-5.038856	21.212871	-67.915419	-71.057501			
43582	6.052362	-1.057073	-1.328773	0.756796	-3.763737	-4.835213	22.659268	-67.339912	-71.706627			
43583	5.802473	0.327818	-0.626930	1.343770	-2.372331	-4.642070	23.809592	-66.828225	-72.440963			
43584	5.732750	-0.287046	-1.912374	1.678830	-3.650416	-5.289436	24.887610	-66.393177	-73.229493			
43585	5.229627	-0.137018	-1.393251	1.388276	-3.046405	-5.558172	25.908922	-66.046979	-74.039904			
43586	5.351341	0.319880	-0.835393	1.370220	-2.461598	-5.175880	26.660916	-65.744409	-74.712184			
43587	5.030285	-0.160816	-1.008103	1.072555	-2.778216	-5.632138	27.370988	-65.482527	-75.196093			
43588	5.138660	2.321328	2.810054	0.455251	1.256682	-3.656046	27.759466	-65.289101	-75.596839			
43589	5.541219	1.074974	2.654257	-0.340487	0.184940	-3.587287	27.728280	-65.125961	-75.788532			
43590	6.031721	1.539631	5.190716	-1.585165	1.950178	-2.106865	27.931519	-65.096220	-75.983134			
43591	7.339049	2.935542	8.333947	-2.440263	4.383673	0.519893	27.954220	-65.179238	-76.125724			
43592	8.070093	2.300907	8.386907	-2.864032	3.757159	1.070401	27.710301	-65.330191	-76.164452			
43593	8.335506	1.480976	7.860964	-3.126995	2.819012	0.945732	27.951617	-65.540939	-76.104125			
43594	8.491029	3.904314	9.796797	-2.570048	5.595888	2.245470	27.978152	-65.756819	-76.002584			
43595	8.292793	2.834032	8.210079	-2.388306	3.971238	1.265794	27.987005	-65.911188	-75.812356			
43596	7.968410	3.797858	8.716692	-2.057825	5.069874	1.321114	28.101696	-66.108553	-75.681235			
43597	7.965051	3.810970	8.235219	-1.768189	4.796470	1.125841	28.204341	-66.400775	-75.646607			
43598	8.198274	3.901134	7.647116	-1.316570	4.432973	1.120005	28.284853	-66.795071	-75.786545			
43599	8.806593	3.574765	6.953087	-1.056081	3.608252	1.347284	28.282604	-67.228115	-76.054053			
43600	9.413713	3.556235	6.627383	-0.788630	3.238500	1.766448	28.081026	-67.640902	-76.407762			
43601	9.401191	1.928955	4.970434	-0.919268	1.174719	0.891648	27.742595	-68.014435	-76.800606			
43602	9.161735	0.643337	4.038061	-1.311908	-0.104701	0.133401	27.492133	-68.346096	-77.181259			
43603	8.827418	-0.466137	3.511917	-1.861995	-0.971248	-0.535643	27.289991	-68.577033	-77.507752			
43604	7.487826	-1.610245	2.162448	-2.020554	-2.102544	-2.407746	27.312631	-68.741577	-77.849055			
43605	6.604426	-2.169138	-0.402419	-0.947614	-3.926039	-4.140505	27.858785	-69.074393	-78.372096			
43606	8.162428	-2.661330	-2.039178	-0.219163	-5.898577	-3.253382	28.261059	-69.571400	-78.658645			
43607	10.943816	-5.110907	-4.708980	-0.238860	-10.171722	-1.779065	28.218034	-70.379723	-78.194169			
43608	13.330945	-7.107158	-6.868243	-0.140877	-13.532551	-0.209279	28.225721	-72.169913	-77.251654			
43609	14.218643	-10.356435	-7.237430	-2.094154	-15.834640	0.514562	29.298593	-74.149555	-76.799050			
43610	19.341640	-5.338052	4.838613	-5.997527	-5.286257	9.215983	31.316911	-74.653485	-76.708336			
43611	22.135359	13.733659	23.636607	-5.899683	19.345608	18.962112	34.517524	-73.502499	-76.845063			
43612	21.294336	34.043655	21.153891	8.375757	31.983118	21.278768	40.102027	-73.325617	-81.426662			
43613	16.641180	16.025456	11.269873	3.538090	13.937185	11.491613	36.538538	-73.537909	-81.361716			
43614	12.953454	-5.137915	4.311968	-6.129232	-3.852748	2.848839	30.345674	-74.491843	-80.340624			
43615	9.400885	-18.707270	-9.943510	-8.073020	-21.242132	-5.263706	26.715371	-75.765500	-79.379616			
43616	3.038925	-20.119088	-12.215634	-8.373241	-22.127261	-11.680991	30.419578	-76.795309	-82.080947			
43617	4.313904	-8.540124	-7.155230	-1.965773	-11.632934	-7.932184	36.312836	-77.952797	-85.668073			
43618	4.397354	-3.791594	-7.267930	2.099882	-8.655586	-7.130852	42.041092	-78.684164	-88.443398			
43619	2.410593	1.016618	-6.125055	5.068415	-3.978264	-8.129766	49.404506	-79.131190	-92.312588			
43620	3.665297	6.135347	-7.261523	9.416213	-0.819268	-6.015251	63.044872	-79.281303	-102.009862			
43621	16.013294	27.595217	-1.304454	17.030178	17.702172	10.584207	71.037520	-79.074101	-107.489144			
43622	9.650908	13.386188	-1.070530	8.329510	8.084828	1.965348	73.245835	-79.616434	-111.815368			
43623	12.334021	-0.702389	-5.504392	2.963391	-5.908492	1.986456	77.411862	-80.777684	-117.331685			
43624	10.994119	-4.315850	-3.400417	-0.941722	-6.861485	0.340335	79.866890	-82.305491	-120.382235			
43625	8.772640	-5.377531	-0.923519	-3.398588	-5.580187	-1.810313	79.332028	-82.991412	-121.209813			
43626	8.159991	-3.890283	-1.552726	-1.972800	-4.712930	-2.195212	81.836432	-83.388781	-124.413178			
43627	8.046198	-2.112102	-0.997687	-1.238812	-2.930234	-2.061851	91.377690	-83.642954	-133.245585			
43628	10.878363	1.445830	-2.020907	1.548758	-1.062324	1.186420	102.844870	-83.372521	-143.345838			
43629	12.239663	6.415141	-1.198986	3.867624	3.248960	3.105747	104.751377	-83.176668	-144.902008			
43630	8.668256	4.269920	2.616925	-0.098187	4.380020	-0.811330	108.295932	-83.337844	-148.915038			
43631	8.395182	2.260534	0.596640	0.156829	1.672842	-1.261671	118.032161	-83.467871	-159.365859			
43632	9.401381	0.695957	-2.204757	1.065376	-1.219043	-0.267709	129.191645	-83.416125	-171.150735			
43633	8.700441	-0.873411	-3.821413	1.232043	-3.291143	-0.940707	137.563345	-83.306772	-179.964086			
43634	8.096303	-1.919320	-3.280032	0.142051	-3.581752	-1.618659	143.044389	-82.948996	174.236301			
43635	7.902989	-2.412081	-3.683652	0.065263	-4.118176	-1.757906	148.460793	-82.349562	169.040103			
43636	8.373932	-1.769875	-2.902427	-0.196048	-2.986905	-1.285238	153.506572	-81.550363	164.564591			
43637	9.252291	-0.599632	-2.183724	-0.142989	-1.465654	-0.401938	157.973286	-80.747299	160.712782			
43638	9.481675	0.014756	-1.757425	-0.163349	-0.561931	-0.187400	162.146974	-80.020286	156.959771			
43639	8.980140	-0.625946	-2.671942	0.123417	-1.525323	-0.548233	166.051946	-79.358222	153.347059			
43640	8.473140	-0.985406	-3.504050	0.555225	-2.229092	-0.881596	169.559841	-78.668779	150.204075			
43641	8.745200	-0.848342	-3.544296	0.596914	-1.972637	-0.565502	172.778724	-77.942324	147.609859			
43642	9.346148	0.082812	-2.660830	0.379692	-0.467612	-0.113626	175.793879	-77.111338	145.453583			
43643	10.201522	1.337510	-1.553128	0.100482	1.465468	0.488369	178.128744	-76.332486	143.988244			
43644	10.613760	2.478656	-0.632775	-0.067982	3.121219	0.649013	179.838002	-75.661730	142.980027			
43645	10.817213	3.088122	-0.320751	-0.062569	3.943464	0.727470	-178.735624	-75.095784	142.071240			
43646	10.922283	3.170466	-0.241687	-0.158024	4.182565	0.764951	-177.383736	-74.613950	141.040099			
43647	10.772619	2.569457	-0.504693	-0.315360	3.620795	0.660887	-176.205682	-74.232063	139.991515			
43648	10.219861	1.758477	-0.873884	-0.408518	2.741513	0.218178	-175.205784	-73.940342	139.013129			
43649	9.438585	1.019061	-1.608424	-0.119446	1.655847	-0.328176	-174.265098	-73.657860	138.133566			
43650	9.192740	0.537237	-2.178087	0.079528	0.969781	-0.400361	-173.263567	-73.311649	137.311558			
43651	9.268178	0.314359	-2.592514	0.241913	0.646679	-0.208423	-172.309301	-72.962838	136.547166			
43652	9.038248	0.279321	-3.329081	0.834087	0.235316	-0.215852	-171.434308	-72.647622	135.747706			
43653	8.709634	-0.058018	-4.004409	1.224545	-0.413142	-0.313958	-170.626735	-72.343975	134.902279			
43654	8.612902	-0.446301	-3.955267	0.969157	-0.656781	-0.397039	-169.843618	-72.024657	134.057670			
43655	8.512151	-0.650866	-3.147207	0.231471	-0.335587	-0.723205	-169.082376	-71.686731	133.253955			
43656	8.511071	-0.814730	-2.376668	-0.475497	0.023028	-0.951332	-168.313654	-71.299705	132.484299			
43657	8.600985	-0.969816	-1.913682	-0.959848	0.244793	-1.003717	-167.532537	-70.878049	131.757804			
43658	8.523324	-1.139213	-1.659243	-1.256087	0.302413	-1.150802	-166.781708	-70.437357	131.110807			
43659	8.361714	-1.139893	-1.676845	-1.224802	0.323767	-1.302458	-166.101844	-69.981293	130.571912			
43660	8.293242	-0.895410	-1.714479	-1.057018	0.553805	-1.380926	-165.490446	-69.503221	130.119279			
43661	8.371041	-0.509001	-1.723206	-0.863831	0.950864	-1.347934	-164.942539	-69.033376	129.720512			
43662	8.455561	-0.116928	-1.970082	-0.485930	1.229130	-1.231076	-164.431590	-68.572605	129.359348			
43663	8.733219	0.078682	-2.578794	0.012691	1.218619	-0.788289	-163.886760	-68.121852	129.002377			
43664	8.965333	0.049389	-3.217778	0.416580	1.008900	-0.350037	-163.284214	-67.693186	128.614862			
43665	8.951047	-0.041482	-3.350502	0.453738	0.942672	-0.312488	-162.672816	-67.278849	128.212584			
43666	9.139107	-0.261335	-2.905018	-0.081039	1.127321	-0.286264	-162.090477	-66.861670	127.816920			
43667	9.426319	-0.453577	-2.088773	-0.913167	1.546156	-0.315359	-161.557393	-66.464489	127.436953			
43668	9.748487	-0.931656	-1.395134	-1.822585	1.677349	-0.236066	-161.070923	-66.097535	127.068713			
43669	10.134242	-1.547178	-0.843128	-2.711926	1.640511	-0.026914	-160.585149	-65.790665	126.703426			
43670	10.018259	-2.165602	-0.813993	-3.062353	1.169257	-0.067298	-160.058455	-65.579034	126.351953			
43671	9.635808	-2.615375	-1.200226	-2.911871	0.527928	-0.201667	-159.415954	-65.436212	126.055514			
43672	9.760518	-2.479437	-1.480131	-2.621538	0.574139	0.005861	-158.635497	-65.317073	125.842497			
43673	9.724469	-1.842629	-1.862953	-1.921879	0.925360	0.030132	-157.748836	-65.239409	125.683397			
43674	9.372220	-1.054731	-2.513036	-0.849512	1.182800	-0.161500	-156.781862	-65.173909	125.576302			
43675	10.144702	0.442143	-3.405392	0.524735	2.328421	0.628092	-155.636916	-65.187161	125.345508			
43676	10.989777	1.506546	-3.104272	0.675050	3.679923	1.081513	-154.738895	-65.269102	124.940730			
43677	11.352395	0.423421	-3.764395	0.604542	2.664108	1.839070	-153.801980	-65.193176	124.583200			
43678	12.483027	1.280105	-2.773769	-0.023085	4.258402	2.312633	-152.612154	-65.112114	124.421582			
43679	12.620390	2.761790	-1.968755	0.012049	5.947414	1.823702	-151.474536	-65.136939	124.199308			
43680	13.135018	2.393335	-1.434214	-0.726257	6.060524	2.147922	-150.417134	-65.234090	123.837544			
43681	14.765238	2.056864	-0.830673	-1.738213	6.588343	3.472833	-149.268844	-65.415970	123.317004			
43682	15.580210	2.183673	0.337840	-2.789537	7.404779	3.789233	-148.160550	-65.798292	122.637845			
43683	14.792530	2.045410	0.781452	-2.952459	7.132392	2.994481	-147.197432	-66.305898	121.880944			
43684	14.626770	1.998317	1.534211	-3.472138	7.248451	2.664959	-146.181426	-66.877335	121.121066			
43685	14.577138	2.899241	2.824537	-4.051689	8.403811	2.096665	-145.161025	-67.630165	120.204720			
43686	15.004088	2.708563	4.946350	-5.882593	9.066588	2.024076	-144.157029	-68.619234	118.820963			
43687	14.140440	0.205529	6.164446	-7.626315	6.998006	1.626077	-142.294843	-69.988437	116.232872			
43688	10.277052	-0.238849	2.154190	-3.440240	3.754272	-0.626866	-140.449970	-71.256103	113.717209			
43689	10.136126	0.151645	-1.039836	-0.244146	2.619458	0.032121	-138.985199	-72.281363	111.724012			
43690	11.002734	1.156239	-1.869450	1.038361	3.225003	0.883450	-137.153615	-73.420346	109.512498			
43691	11.123029	1.704926	-3.558483	2.957143	2.802941	1.263574	-135.302082	-74.610302	107.283987			
43692	11.793363	0.999995	-3.582327	2.774727	2.134406	2.047092	-133.377928	-75.823567	104.993215			
43693	12.487257	-0.424413	-3.760854	2.382359	0.756580	2.993565	-131.191913	-77.004739	102.534923			
43694	13.042390	-1.529793	-3.369925	1.655312	-0.131593	3.642272	-128.714223	-78.127399	99.918011			
43695	13.539658	-1.948419	-3.131440	1.404666	-0.531228	4.139394	-125.638574	-79.288599	96.622676			
43696	12.992495	-1.865733	-3.388323	1.864678	-0.952270	3.580359	-121.403653	-80.427874	91.853792			
43697	11.685246	-1.914799	-4.032314	2.570306	-1.789012	2.297488	-116.209437	-81.453053	85.880328			
43698	10.922199	-1.997111	-4.925786	3.412210	-2.669652	1.534989	-110.436012	-82.321224	79.302428			
43699	10.704675	-2.089684	-5.162237	3.649668	-3.127960	1.255114	-104.076519	-83.037787	72.282754			
43700	10.756689	-2.166956	-4.052331	2.751212	-2.815206	1.202045	-96.263328	-83.673265	63.983922			
43701	10.664022	-1.106938	-3.103064	2.598308	-1.638421	0.917415	-86.434598	-84.242854	53.600798			
43702	11.242925	-0.354672	-1.680790	1.945740	-0.424430	1.384723	-74.249090	-84.619443	40.391125			
43703	11.328367	-1.602061	-2.237232	1.825817	-2.017826	1.522725	-59.954902	-84.630671	24.884010			
43704	11.212711	-2.302859	-2.415230	1.640115	-2.956774	1.386543	-46.509973	-84.435367	10.539190			
43705	12.044276	-1.236606	-3.148784	2.996112	-2.780578	2.010706	-34.442610	-84.023629	-2.278560			
43706	12.359781	-0.104311	-3.675872	4.186451	-2.499970	2.124669	-24.058960	-83.319151	-13.684811			
43707	12.721620	-0.167186	-3.899972	4.433258	-3.060696	2.354527	-15.883391	-82.229327	-23.259139			
43708	10.981260	-1.119748	-4.034921	3.770073	-4.149604	0.515896	-9.586285	-81.061726	-30.684094			
43709	11.044272	0.440848	-3.952383	4.749396	-3.217987	0.427971	-4.443006	-80.005249	-36.559614			
