// General information: 
//  MT Manager version: 2022.0.0 
//  XDA version: 2022.0.0 build 7085 rev 119802 built on 2022-11-08
// Device information: 
//  DeviceId: 00B492A2
//  ProductCode: MTW2-3A7G6
//  Firmware Version: 4.6.0
//  Hardware Version: 2.0.0
// Device settings: 
//  Filter Profile: human(46.1)
//  Option Flags: Orientation Smoother Disabled, Position/Velocity Smoother Disabled, Continuous Zero Rotation Update Disabled, AHS Disabled, ICC Disabled
// Coordinate system: ENU
PacketCounter	Acc_X	Acc_Y	Acc_Z	FreeAcc_E	FreeAcc_N	FreeAcc_U	Roll	Pitch	Yaw	Vel_E	Vel_N	Vel_U
42709	9.209318	1.226458	-3.017803	0.211364	0.207553	-0.048717	162.407160	-69.676406	103.677245			
42710	9.154418	1.245815	-2.978452	0.242857	0.228867	-0.111386	162.509348	-69.666152	103.655477			
42711	9.081344	1.233794	-2.986911	0.241891	0.200149	-0.178575	162.625630	-69.657471	103.627937			
42712	9.044469	1.244409	-2.962593	0.262831	0.214516	-0.220356	162.736294	-69.635540	103.603553			
42713	9.035680	1.301293	-3.054582	0.318046	0.128414	-0.192412	162.846825	-69.607739	103.588863			
42714	9.010375	1.320443	-3.104605	0.339695	0.079253	-0.197734	162.943659	-69.570572	103.578069			
42715	8.913662	1.448612	-3.224571	0.470505	-0.062431	-0.235400	163.063533	-69.517559	103.547470			
42716	8.885456	1.590977	-3.309257	0.612616	-0.144758	-0.219073	163.188449	-69.444388	103.496927			
42717	8.840389	1.697103	-3.227628	0.731598	-0.073629	-0.278037	163.293601	-69.370063	103.438093			
42718	8.788223	1.742507	-3.203055	0.785027	-0.055780	-0.330633	163.377903	-69.287855	103.387993			
42719	8.811514	1.823797	-3.395800	0.852307	-0.215696	-0.235240	163.476320	-69.191876	103.325562			
42720	8.991283	1.888035	-3.465867	0.898575	-0.203852	-0.036642	163.576166	-69.095078	103.274496			
42721	9.062666	1.961372	-3.511077	0.965352	-0.207536	0.052989	163.678765	-69.016941	103.215948			
42722	8.943973	1.858463	-3.651156	0.865996	-0.362604	-0.019933	163.765851	-68.952622	103.159146			
42723	8.782095	1.633213	-3.691394	0.656267	-0.437407	-0.179570	163.873464	-68.896874	103.076925			
42724	8.512929	1.331812	-3.738605	0.379262	-0.554324	-0.444138	163.979830	-68.835393	102.983294			
42725	8.200206	1.023735	-3.753423	0.101762	-0.654238	-0.760550	164.122234	-68.747396	102.846150			
42726	8.082126	0.549454	-3.804406	-0.359143	-0.709692	-0.898458	164.284554	-68.633425	102.680778			
42727	8.026812	0.191400	-3.720600	-0.699617	-0.619074	-1.012888	164.466923	-68.517096	102.495840			
42728	7.979522	-0.315458	-3.706914	-1.192833	-0.585237	-1.109349	164.664350	-68.392871	102.319354			
42729	8.030464	-0.611389	-3.775623	-1.487052	-0.599089	-1.063562	164.925612	-68.248569	102.143826			
42730	8.184460	-0.790296	-3.869104	-1.670653	-0.600393	-0.900432	165.257785	-68.085687	101.963282			
42731	8.386746	-0.954532	-4.037542	-1.841888	-0.652412	-0.662163	165.689408	-67.903074	101.781337			
42732	8.605304	-1.167157	-4.448083	-2.065955	-0.917988	-0.321224	166.296980	-67.667130	101.584144			
42733	9.501373	-1.310358	-4.583600	-2.239414	-0.667218	0.557554	167.165470	-67.349994	101.304335			
42734	10.593234	-1.341139	-4.323635	-2.282239	0.032232	1.478854	168.187523	-67.070306	100.985372			
42735	11.461111	-1.146655	-3.746217	-2.067735	0.937718	2.084819	169.310323	-66.863521	100.611994			
42736	11.779471	-0.501792	-3.256014	-1.367860	1.552946	2.242443	170.478612	-66.742272	100.173984			
42737	12.161076	0.209238	-2.784708	-0.612419	2.174006	2.458757	171.565075	-66.718742	99.708233			
42738	12.083057	0.597506	-2.523021	-0.156427	2.402940	2.308534	172.490512	-66.797900	99.264460			
42739	11.514357	0.774781	-2.317441	0.108037	2.366324	1.717266	173.223150	-66.941982	98.914926			
42740	10.763656	1.039543	-2.214373	0.458154	2.164935	1.001349	173.829635	-67.085446	98.638169			
42741	10.178451	1.412575	-2.241981	0.898796	1.921656	0.488868	174.326364	-67.166891	98.409098			
42742	9.952295	1.672870	-2.392043	1.202535	1.711292	0.345752	174.721282	-67.169437	98.182226			
42743	9.762079	1.743727	-2.532598	1.310185	1.520306	0.223490	175.014616	-67.136543	97.920261			
42744	9.583007	1.511748	-2.690855	1.112051	1.302299	0.108373	175.243312	-67.069307	97.603045			
42745	9.191960	1.240771	-2.691854	0.877570	1.143054	-0.262766	175.428819	-67.034350	97.233198			
42746	9.031066	0.914081	-2.493583	0.568093	1.248258	-0.499645	175.612434	-67.027231	96.815521			
42747	8.855086	0.676206	-2.121989	0.344838	1.507118	-0.813672	175.811631	-67.072206	96.374023			
42748	8.623307	0.440840	-1.858400	0.132446	1.639728	-1.134951	176.031649	-67.163749	95.933562			
42749	8.361248	0.146958	-1.628722	-0.134534	1.725948	-1.470760	176.311563	-67.263187	95.486415			
42750	8.111231	-0.104296	-1.415821	-0.357644	1.805283	-1.786450	176.668490	-67.360381	95.018697			
42751	7.908523	-0.344929	-1.280949	-0.568577	1.834210	-2.027004	177.100011	-67.444135	94.521740			
42752	7.578141	-0.648135	-1.298259	-0.834854	1.677436	-2.327840	177.583834	-67.470939	94.013782			
42753	7.505518	-0.742907	-1.332835	-0.901083	1.618450	-2.381014	178.082785	-67.425413	93.523643			
42754	7.574641	-0.764173	-1.340949	-0.900262	1.648028	-2.313970	178.523777	-67.325265	93.099448			
42755	7.913905	-0.881710	-1.295859	-1.005517	1.835193	-2.021186	178.897684	-67.169291	92.747377			
42756	8.327146	-1.017933	-1.321789	-1.131321	1.991471	-1.634744	179.209835	-66.990857	92.463275			
42757	8.665750	-1.111680	-1.385991	-1.214103	2.088684	-1.302969	179.473881	-66.808255	92.233530			
42758	8.912140	-1.108633	-1.506567	-1.199476	2.103228	-1.034154	179.681708	-66.616022	92.067721			
42759	9.233646	-0.883977	-1.708155	-0.964988	2.084097	-0.664755	179.839360	-66.406811	91.963838			
42760	9.579666	-0.700246	-1.935189	-0.773757	2.054400	-0.263554	179.946522	-66.192438	91.911365			
42761	9.859296	-0.493519	-2.170573	-0.561462	1.992309	0.080545	179.993847	-66.007354	91.915243			
42762	9.855630	-0.300154	-2.338918	-0.364045	1.869115	0.140599	179.991046	-65.890605	91.971305			
42763	9.826979	0.017754	-2.412390	-0.047393	1.816616	0.141564	179.953033	-65.830209	92.064012			
42764	9.405652	0.210553	-2.375305	0.143569	1.690575	-0.258943	179.850896	-65.820301	92.209551			
42765	9.055916	0.234923	-2.288175	0.160429	1.627576	-0.613459	179.694901	-65.832996	92.408546			
42766	8.845235	0.338103	-1.933396	0.242919	1.866345	-0.949943	179.519153	-65.844946	92.637350			
42767	8.702963	0.301497	-1.603588	0.184486	2.108181	-1.214694	179.339600	-65.823074	92.867818			
42768	8.675711	0.188666	-1.378825	0.051695	2.301824	-1.333086	179.167982	-65.778052	93.061442			
42769	8.700267	-0.060271	-1.328133	-0.210437	2.355365	-1.335060	179.020555	-65.720189	93.210742			
42770	8.849353	-0.155288	-1.335299	-0.317784	2.413993	-1.199336	178.893793	-65.663364	93.328501			
42771	8.912107	-0.147762	-1.435718	-0.316456	2.357171	-1.103361	178.779918	-65.604886	93.433968			
42772	8.788014	-0.170314	-1.562364	-0.339158	2.198134	-1.166744	178.679872	-65.544239	93.535701			
42773	8.888759	0.087978	-1.684431	-0.086071	2.150929	-1.025130	178.626257	-65.449906	93.621722			
42774	8.902343	0.195879	-1.921493	0.024625	1.960536	-0.916740	178.603259	-65.343380	93.676891			
42775	8.952160	0.206199	-2.089957	0.037058	1.847110	-0.805003	178.616130	-65.217501	93.677237			
42776	9.142574	0.016364	-2.080428	-0.157293	1.948618	-0.642452	178.655931	-65.073271	93.608790			
42777	9.679057	-0.272449	-2.026321	-0.456807	2.237801	-0.187312	178.738140	-64.906092	93.437335			
42778	10.207815	-0.679909	-2.067559	-0.865066	2.439696	0.298493	178.858925	-64.724209	93.167558			
42779	10.946548	-0.757502	-1.968696	-0.943939	2.880480	0.915225	179.044148	-64.517831	92.775719			
42780	11.627693	-0.469793	-2.011275	-0.640466	3.187386	1.540695	179.297747	-64.315043	92.297675			
42781	11.772384	-0.554815	-2.568021	-0.679244	2.786382	1.903373	179.574647	-64.159564	91.767910			
42782	11.824486	-0.373644	-3.206119	-0.445609	2.268357	2.224466	179.949698	-64.062258	91.193053			
42783	12.083543	-0.301491	-3.857603	-0.318587	1.816268	2.740538	-179.621852	-64.008445	90.584195			
42784	12.534717	-0.261487	-4.243662	-0.223409	1.678228	3.314748	-179.148864	-63.975443	89.932726			
42785	13.072711	-0.070779	-4.651214	0.025717	1.563871	3.974552	-178.726542	-63.902623	89.323718			
42786	13.520830	-0.516730	-4.966819	-0.370899	1.489326	4.518864	-178.469529	-63.847549	88.825560			
42787	13.297956	-1.820699	-5.027667	-1.650803	1.342467	4.361255	-178.381013	-63.857187	88.491953			
42788	12.574846	-2.816723	-4.911866	-2.643032	1.135351	3.674805	-178.312725	-63.839849	88.308632			
42789	11.911428	-3.096807	-5.206420	-2.922699	0.595123	3.213546	-178.249446	-63.744043	88.271847			
42790	11.165474	-2.858535	-5.835173	-2.688244	-0.279430	2.819949	-178.253014	-63.629373	88.379119			
42791	10.917044	-2.612177	-6.268486	-2.448914	-0.756989	2.786081	-178.406691	-63.515246	88.624660			
42792	10.801212	-2.713838	-6.582632	-2.568670	-1.076563	2.820801	-178.681770	-63.466203	88.968114			
42793	10.722302	-2.471342	-6.435849	-2.352387	-0.978475	2.677478	-178.952214	-63.465297	89.356912			
42794	10.201053	-1.843591	-6.385603	-1.747732	-1.177993	2.178723	-179.172682	-63.547516	89.756643			
42795	9.360014	-0.802406	-6.295085	-0.721799	-1.484042	1.374734	-179.351436	-63.636801	90.191979			
42796	8.027877	0.121852	-6.519438	0.201705	-2.283715	0.272384	-179.538200	-63.741230	90.631183			
42797	6.966314	0.930537	-6.270292	1.005648	-2.527934	-0.795470	-179.768700	-63.819266	91.044731			
42798	6.797915	1.574252	-5.952522	1.635172	-2.307208	-1.087699	179.974239	-63.836098	91.421682			
42799	6.749168	2.146777	-5.729230	2.190128	-2.110247	-1.225827	179.702805	-63.814868	91.759322			
42800	7.046114	2.667062	-5.570474	2.684529	-1.820281	-1.022297	179.374095	-63.810936	92.066092			
42801	7.141442	2.929698	-5.503624	2.914642	-1.714387	-0.956118	178.867854	-63.821225	92.438786			
42802	7.596236	3.078086	-5.234661	3.006525	-1.275291	-0.652267	178.213133	-63.797282	92.898828			
42803	7.999201	2.873345	-5.352940	2.739267	-1.208238	-0.224490	177.441388	-63.705106	93.431694			
42804	8.453707	2.584602	-5.708178	2.375671	-1.318938	0.353174	176.616811	-63.519550	93.992516			
42805	9.147786	2.440630	-5.946484	2.134582	-1.201120	1.096004	175.750557	-63.297602	94.532969			
42806	9.642522	2.201744	-5.975492	1.791561	-0.991908	1.560004	174.809330	-63.178649	95.037772			
42807	9.681157	1.714373	-5.812204	1.212174	-0.844103	1.512633	173.804086	-63.247331	95.513469			
42808	9.118482	0.998977	-5.484488	0.438388	-0.847870	0.832137	172.771670	-63.498890	95.984743			
42809	8.050541	0.230703	-4.988230	-0.342846	-0.929816	-0.391222	171.781931	-63.837492	96.452444			
42810	6.648803	-0.575141	-4.629188	-1.127834	-1.262799	-1.869163	170.846397	-64.188986	96.948952			
42811	6.286047	-0.945859	-4.154362	-1.506644	-1.021506	-2.440168	170.029135	-64.421913	97.441247			
42812	7.093787	-1.041849	-3.639844	-1.662770	-0.230963	-1.949012	169.273265	-64.540469	97.907970			
42813	7.023836	-0.982526	-3.647474	-1.641981	-0.286528	-2.013628	168.536209	-64.668435	98.409346			
42814	7.001006	-0.517621	-3.330684	-1.195610	-0.043725	-2.135192	167.835302	-64.774239	98.931099			
42815	7.262257	-0.237817	-3.214015	-0.963285	0.144107	-1.927385	167.164109	-64.866653	99.489504			
42816	7.217008	0.254777	-3.078576	-0.494371	0.210189	-1.980763	166.563464	-64.971253	100.059465			
42817	6.812646	0.665942	-3.211396	-0.094632	-0.113644	-2.253142	166.037639	-65.075113	100.647061			
42818	6.689283	1.163481	-3.510772	0.364197	-0.470443	-2.192208	165.610688	-65.141782	101.231762			
42819	6.997597	1.542717	-3.817362	0.675545	-0.643464	-1.747444	165.273200	-65.174637	101.771270			
42820	7.319867	1.932603	-3.845871	1.018841	-0.553738	-1.400704	164.999236	-65.212183	102.235662			
42821	7.537086	2.387097	-3.714591	1.447557	-0.362969	-1.205893	164.762493	-65.274774	102.601588			
42822	7.565357	2.544373	-3.401185	1.610715	-0.080339	-1.287687	164.542799	-65.359066	102.851626			
42823	7.579530	2.448332	-2.968124	1.532645	0.310135	-1.457560	164.362697	-65.420186	102.965730			
42824	7.760277	2.233108	-2.522222	1.325561	0.785870	-1.494300	164.269132	-65.446322	102.962004			
42825	8.138013	2.073123	-2.163440	1.154223	1.266960	-1.311620	164.240369	-65.432918	102.872736			
42826	8.740089	1.796894	-2.042219	0.833639	1.629584	-0.843956	164.229565	-65.405014	102.760356			
42827	8.961753	1.943972	-1.949302	0.967442	1.801110	-0.663268	164.198819	-65.397430	102.683099			
42828	8.907962	1.766635	-1.989953	0.791883	1.741985	-0.714825	164.058731	-65.434055	102.679673			
42829	8.672961	1.763971	-1.930257	0.810444	1.690896	-0.950308	163.882806	-65.484300	102.720602			
42830	8.526194	1.629591	-2.011772	0.677527	1.549060	-1.063966	163.677044	-65.542095	102.778071			
42831	8.247602	1.504643	-1.974252	0.575293	1.462014	-1.344152	163.477541	-65.615304	102.835892			
42832	8.018238	1.147741	-1.879035	0.243823	1.454805	-1.629516	163.249858	-65.712767	102.895099			
42833	7.763429	0.790381	-1.698013	-0.077278	1.518255	-1.972554	163.032857	-65.796452	102.928674			
42834	7.829196	0.801084	-1.579615	-0.065879	1.640925	-1.955446	162.877772	-65.849855	102.917171			
42835	7.604314	0.787931	-1.663952	-0.068598	1.466454	-2.127639	162.731808	-65.898454	102.902068			
42836	7.579913	1.414458	-1.532801	0.564914	1.537743	-2.123639	162.624931	-65.926154	102.886958			
42837	7.511699	1.695496	-1.628541	0.837698	1.404382	-2.113438	162.527187	-65.922802	102.906081			
42838	7.788997	1.321599	-1.747413	0.426146	1.426732	-1.859613	162.458526	-65.887797	102.954218			
42839	8.061342	1.071308	-1.897925	0.134960	1.415942	-1.583961	162.474282	-65.849522	103.019929			
42840	8.339919	0.934528	-2.216994	-0.057313	1.247580	-1.222989	162.593224	-65.819554	103.081390			
42841	8.822081	1.023653	-2.422216	-0.028438	1.254090	-0.692899	162.783760	-65.794855	103.112185			
42842	9.300911	1.014954	-2.816539	-0.108253	1.087225	-0.103095	162.988753	-65.817058	103.109912			
42843	9.800774	1.579250	-3.130612	0.391297	0.975199	0.543267	163.246455	-65.842106	103.071178			
42844	10.582491	2.073810	-3.214149	0.817763	1.197004	1.346120	163.469056	-65.806164	102.970161			
42845	11.181424	2.319243	-3.149126	1.022545	1.505218	1.892388	163.656351	-65.709099	102.881207			
42846	11.552736	2.519710	-2.891912	1.213331	1.907522	2.148372	163.769790	-65.593844	102.849738			
42847	11.995541	2.274268	-2.632089	0.945567	2.362368	2.415077	163.810724	-65.452321	102.946712			
42848	12.604637	1.866741	-2.287068	0.494931	2.965870	2.779009	163.721312	-65.331142	103.207350			
42849	12.574678	1.519194	-2.399859	0.112048	2.875236	2.753542	163.441007	-65.293532	103.737067			
42850	11.549146	1.415278	-3.043709	0.022738	1.866793	2.068572	163.009714	-65.320986	104.453899			
42851	10.989934	1.087595	-4.218183	-0.366533	0.560675	1.990097	162.535549	-65.308934	105.262355			
42852	11.685326	0.716136	-5.001563	-0.903002	0.118387	2.885570	162.087173	-65.271373	106.036533			
42853	12.896618	0.763052	-5.007220	-1.039201	0.580484	3.991664	161.655366	-65.321987	106.788566			
42854	12.751937	1.653352	-4.883659	-0.166459	0.592818	3.928351	161.283505	-65.511857	107.472920			
42855	11.366159	3.155790	-5.247984	1.465246	-0.329500	3.010504	161.095211	-65.730855	108.010421			
42856	10.297400	4.553438	-6.152581	2.958715	-1.588644	2.570635	161.146204	-65.841883	108.266684			
42857	9.841600	5.345850	-7.041918	3.794035	-2.556891	2.600664	161.374313	-65.787607	108.306386			
42858	10.191484	5.893117	-7.243986	4.312206	-2.538503	3.072604	161.787753	-65.540175	108.153389			
42859	10.322813	5.927365	-7.153447	4.358272	-2.313142	3.168837	162.196207	-65.227582	107.992595			
42860	9.377179	5.299535	-7.042687	3.874132	-2.529839	2.195922	162.357713	-64.988352	107.971411			
42861	8.218442	3.787887	-6.700279	2.522991	-2.684142	0.827535	162.193426	-64.762746	108.089225			
42862	7.567803	1.815237	-6.403767	0.620823	-2.712104	-0.125906	161.700584	-64.527671	108.375904			
42863	7.222491	0.270573	-6.186089	-0.915714	-2.677582	-0.729907	161.002931	-64.301446	108.813128			
42864	6.860400	-1.113839	-6.650102	-2.323031	-3.270044	-1.069724	160.114425	-64.162380	109.343389			
42865	6.522887	-2.842981	-7.218777	-4.090559	-3.955980	-1.424715	159.060126	-64.118670	109.934315			
42866	6.641348	-3.886549	-7.084648	-5.216599	-3.790826	-1.577334	158.148968	-64.126152	110.376147			
42867	7.382975	-3.987558	-6.458334	-5.457281	-2.903874	-1.215925	157.544890	-64.157159	110.603854			
42868	7.980506	-3.409871	-6.310659	-5.000235	-2.525180	-0.660573	157.350575	-64.271322	110.705199			
42869	8.371087	-1.629975	-6.293880	-3.287747	-2.368239	-0.018465	157.696744	-64.389698	110.663201			
42870	9.011233	0.223769	-5.933124	-1.472709	-1.784643	0.727708	158.493828	-64.483691	110.485341			
42871	9.638240	1.249760	-5.156976	-0.423211	-0.804386	1.152026	159.612540	-64.577641	110.209806			
42872	9.973272	1.918723	-4.502035	0.315452	-0.036423	1.292003	160.874345	-64.689647	109.909516			
42873	9.978674	2.384426	-4.026937	0.884902	0.435866	1.164645	162.047470	-64.882747	109.666253			
42874	9.447480	2.499061	-3.671469	1.161683	0.557576	0.546798	163.011193	-65.141109	109.479121			
42875	8.649357	2.082568	-3.641993	0.930725	0.229339	-0.247470	163.756442	-65.400691	109.306913			
42876	7.792036	1.939567	-3.666145	0.961386	-0.154394	-1.039428	164.336058	-65.604632	109.111369			
42877	7.081315	1.788823	-3.826720	0.950336	-0.598556	-1.644014	164.737141	-65.697550	108.876840			
42878	6.724600	1.872652	-4.055718	1.108526	-0.937132	-1.871098	164.984732	-65.657318	108.628375			
42879	6.636469	1.934580	-4.298717	1.194227	-1.176844	-1.846940	165.086340	-65.534802	108.378769			
42880	6.384084	1.867692	-4.442258	1.157301	-1.401316	-2.023246	165.037681	-65.420419	108.175897			
42881	6.481113	1.562692	-4.160476	0.820043	-1.122311	-2.078069	164.922254	-65.340862	107.995342			
42882	6.894942	1.192232	-3.783786	0.378088	-0.638248	-1.892563	164.828958	-65.307037	107.804555			
42883	7.278608	0.586176	-3.474609	-0.283158	-0.245047	-1.734667	164.806719	-65.330923	107.584812			
42884	7.771006	0.316209	-3.078025	-0.614534	0.290969	-1.475996	164.905224	-65.416580	107.313392			
42885	8.160337	0.136079	-2.990269	-0.827630	0.503799	-1.174835	165.096323	-65.559424	106.950452			
42886	8.364058	-0.480975	-3.360628	-1.438383	0.191457	-0.903314	165.348860	-65.768553	106.507568			
42887	8.110008	-0.810132	-3.556138	-1.705367	-0.130418	-1.086335	165.693532	-66.037647	106.036297			
42888	7.427024	-0.931180	-3.661561	-1.716008	-0.528478	-1.675693	166.113515	-66.308854	105.567192			
42889	6.924764	-0.892875	-3.562611	-1.592151	-0.652260	-2.165383	166.604625	-66.501890	105.084508			
42890	6.794157	-0.662540	-3.337332	-1.320295	-0.493649	-2.346071	167.160124	-66.571427	104.619825			
42891	6.751375	-0.308715	-3.088633	-0.937587	-0.259841	-2.445913	167.728531	-66.539478	104.189404			
42892	7.384497	0.204716	-2.741267	-0.468149	0.344879	-1.954629	168.232269	-66.436173	103.852194			
42893	7.846538	0.346706	-2.242000	-0.361607	1.010781	-1.715623	168.574662	-66.321026	103.641599			
42894	8.033557	0.584169	-1.932976	-0.139313	1.397453	-1.649147	168.780333	-66.239928	103.562958			
42895	8.218668	0.370416	-1.949241	-0.366290	1.451949	-1.491574	168.816442	-66.211019	103.581804			
42896	7.939096	0.385091	-1.966307	-0.326743	1.326991	-1.739507	168.750207	-66.239860	103.680953			
42897	7.780800	0.586146	-2.205647	-0.111100	1.053334	-1.773569	168.633258	-66.246611	103.797787			
42898	7.684667	1.035915	-2.532864	0.345782	0.740158	-1.696332	168.491494	-66.232848	103.924764			
42899	7.613179	1.470332	-2.816565	0.781278	0.477201	-1.614073	168.290499	-66.207282	104.056180			
42900	7.691600	1.643913	-2.906081	0.935192	0.435382	-1.491371	168.047666	-66.173084	104.173753			
42901	8.048707	1.439234	-2.736574	0.678412	0.718937	-1.247363	167.777630	-66.140456	104.275183			
42902	8.324040	1.160898	-2.454344	0.355144	1.069984	-1.129939	167.507347	-66.113331	104.355236			
42903	8.599963	0.889191	-2.305843	0.042462	1.301364	-0.959916	167.262854	-66.075063	104.384921			
42904	8.723387	0.596562	-2.252792	-0.272762	1.386889	-0.894696	167.022321	-66.038993	104.374958			
42905	8.429180	0.461039	-2.438657	-0.387058	1.097115	-1.103084	166.808720	-66.014865	104.328365			
42906	8.215522	0.335638	-2.699662	-0.500431	0.773186	-1.207609	166.604859	-65.955005	104.242987			
42907	8.312349	0.062829	-3.197127	-0.795836	0.359462	-0.949387	166.454219	-65.833747	104.090837			
42908	8.910551	-0.347894	-3.586002	-1.280282	0.253867	-0.290362	166.359530	-65.667933	103.876001			
42909	9.662945	-0.643882	-3.907819	-1.663739	0.286676	0.493030	166.337229	-65.509046	103.611520			
42910	10.572137	-0.812517	-3.922574	-1.923603	0.666745	1.308104	166.353495	-65.424624	103.305954			
42911	11.505245	-0.796190	-3.337267	-1.973494	1.598063	1.921597	166.422473	-65.434410	102.931515			
42912	12.271374	-0.343371	-2.482794	-1.543870	2.695221	2.320776	166.586681	-65.523818	102.474796			
42913	12.645866	0.044017	-1.843755	-1.131782	3.419042	2.448974	166.803044	-65.669382	101.991988			
42914	12.363126	0.084054	-1.594993	-1.014889	3.502952	2.107757	167.021060	-65.898361	101.533522			
42915	11.532871	-0.249847	-2.078888	-1.258570	2.694924	1.525058	167.305018	-66.102893	101.086324			
42916	11.498856	0.031394	-3.015510	-0.978285	1.799899	1.897187	167.704031	-66.177894	100.621469			
42917	12.185372	0.911680	-3.850163	-0.151557	1.298875	2.932038	168.116146	-66.157014	100.147051			
42918	13.523185	1.265255	-3.783501	0.141785	1.897520	4.157693	168.353036	-66.134969	99.732371			
42919	14.008402	-0.046738	-3.978380	-1.185145	1.935026	4.571891	168.437765	-66.186383	99.453607			
42920	13.735955	-1.695469	-4.478476	-2.819248	1.399797	4.389433	168.558930	-66.190000	99.243549			
42921	13.367934	-2.658330	-5.464805	-3.789984	0.393221	4.368770	168.805099	-66.026126	99.071775			
42922	12.983874	-2.085700	-6.673368	-3.231410	-0.829077	4.551685	169.179074	-65.750520	98.966166			
42923	12.533621	-1.413957	-8.016275	-2.565132	-2.184596	4.747490	169.474663	-65.451214	98.953367			
42924	11.797412	-1.554078	-9.498638	-2.690227	-3.781200	4.688456	169.665690	-65.244835	99.016928			
42925	11.299057	-1.162043	-9.404781	-2.227255	-3.872252	4.241271	169.969467	-65.140135	99.004278			
42926	10.327258	-0.459047	-8.815687	-1.387048	-3.741863	3.173977	170.430178	-65.228355	98.908576			
42927	8.850508	0.427887	-8.215508	-0.314858	-3.846750	1.637706	171.000254	-65.588808	98.799355			
42928	7.239908	1.641511	-7.289747	1.106206	-3.718462	-0.158718	171.741079	-66.155280	98.653523			
42929	5.944390	2.537739	-6.810694	2.180108	-3.851224	-1.531671	172.517354	-66.815730	98.506063			
42930	4.636730	3.558375	-6.468102	3.362862	-4.072051	-2.876833	173.259882	-67.489849	98.334683			
42931	3.766367	4.430993	-6.211338	4.344225	-4.170004	-3.801185	173.765289	-68.027901	98.165710			
42932	4.134096	4.762791	-5.574425	4.668790	-3.456023	-3.721105	173.869820	-68.239636	98.044762			
42933	5.389630	4.483433	-4.874407	4.296898	-2.380097	-2.828362	173.518273	-68.234321	98.065679			
42934	6.971175	3.288006	-4.083943	2.968813	-1.139623	-1.690254	172.770005	-68.289933	98.249729			
42935	8.150865	1.609665	-3.458594	1.174831	-0.218031	-0.892977	171.780067	-68.513561	98.586087			
42936	8.110772	0.397639	-2.975122	-0.080587	0.145138	-1.165946	170.798346	-68.808383	99.052979			
42937	8.109050	0.533110	-2.371436	0.020476	0.673812	-1.374085	169.936709	-68.894112	99.497258			
42938	9.101912	0.523509	-2.610271	-0.097099	0.810032	-0.364592	169.101868	-68.638999	99.775899			
42939	9.821504	-0.303593	-3.904126	-1.065388	-0.088311	0.706477	168.240151	-68.328469	100.014291			
42940	9.260591	-0.277381	-4.598059	-1.098842	-0.897020	0.432562	167.431076	-68.164346	100.343117			
42941	8.019166	0.452983	-4.719994	-0.353012	-1.464192	-0.619111	166.703748	-68.077431	100.734819			
42942	7.316882	0.340549	-5.320188	-0.497747	-2.267715	-1.062447	166.136297	-67.975527	101.094675			
42943	7.297119	0.385698	-5.599409	-0.499570	-2.526815	-0.974379	165.802240	-67.900629	101.423789			
42944	7.560828	0.419024	-5.534490	-0.495355	-2.368038	-0.750717	165.597951	-67.895188	101.750300			
42945	7.314844	0.344337	-5.378268	-0.542257	-2.322584	-1.045544	165.453366	-68.000748	102.117623			
42946	7.197385	0.832879	-4.571911	0.006443	-1.648627	-1.405527	165.370534	-68.151183	102.516952			
42947	7.332968	1.416352	-3.541999	0.636775	-0.670620	-1.598736	165.301767	-68.288710	102.906276			
42948	7.635734	1.836526	-2.903402	1.060053	0.012553	-1.507080	165.142710	-68.417372	103.320025			
42949	7.914035	2.024258	-2.516954	1.230153	0.452369	-1.365993	164.783680	-68.571349	103.840496			
42950	8.367561	1.942368	-2.315093	1.095834	0.778259	-1.018265	164.208585	-68.704773	104.476214			
42951	9.009313	1.865350	-2.541268	0.918073	0.767754	-0.343115	163.460350	-68.785138	105.203148			
42952	9.160807	1.857814	-2.753365	0.842380	0.595237	-0.123071	162.534859	-68.869971	106.034681			
42953	8.779128	1.795758	-2.938749	0.758706	0.255544	-0.416264	161.473226	-68.994913	106.953132			
42954	8.262183	1.699134	-2.987641	0.662905	-0.000309	-0.888730	160.481543	-69.067852	107.792501			
42955	8.085241	1.580097	-2.973005	0.517985	-0.067377	-1.070058	159.632034	-69.067077	108.490743			
42956	7.848346	1.631819	-2.935364	0.558323	-0.123092	-1.295132	158.974683	-69.020843	109.038556			
42957	7.787995	1.686658	-2.673164	0.602793	0.099920	-1.429962	158.487389	-68.955433	109.445833			
42958	7.835477	1.584953	-2.489309	0.484399	0.291038	-1.459002	158.182916	-68.906661	109.739091			
42959	7.732948	1.689403	-2.416922	0.592662	0.323814	-1.564174	158.073656	-68.900447	109.945111			
42960	7.553909	1.970435	-2.294750	0.896921	0.374489	-1.733992	158.072070	-68.926069	110.092221			
42961	7.357091	2.036982	-1.993893	1.005244	0.590594	-2.009331	158.163202	-68.949495	110.147534			
42962	7.451426	2.100551	-1.734425	1.073966	0.869123	-2.000164	158.304191	-68.948752	110.137343			
42963	7.503495	2.010493	-1.618841	0.988031	0.999997	-2.003145	158.412168	-68.943880	110.096311			
42964	7.394635	1.688293	-1.454034	0.692170	1.120630	-2.202808	158.415822	-68.948874	110.068410			
42965	7.146031	1.516084	-1.345789	0.557912	1.140145	-2.493929	158.426161	-68.924549	110.009279			
42966	7.146735	1.401495	-1.501745	0.436598	1.002087	-2.457388	158.492316	-68.816288	109.868137			
42967	7.396749	1.451707	-1.595911	0.450845	1.017905	-2.188592	158.653145	-68.626293	109.636493			
42968	7.914143	1.479445	-1.630303	0.414925	1.192926	-1.695732	158.907446	-68.399519	109.325759			
42969	8.486624	1.480112	-1.713786	0.346799	1.348321	-1.140189	159.222894	-68.190642	108.987485			
42970	8.885273	1.557721	-1.946139	0.373393	1.303508	-0.684524	159.596226	-68.030350	108.629922			
42971	9.348373	1.769597	-2.171592	0.532242	1.283639	-0.153067	160.015025	-67.927521	108.271686			
42972	9.494024	2.188499	-2.462516	0.937172	1.082115	0.134205	160.467970	-67.890981	107.944397			
42973	9.558057	2.581933	-2.806035	1.329531	0.798036	0.360418	160.946215	-67.885274	107.640243			
42974	9.695050	2.810468	-3.005758	1.559787	0.671848	0.581682	161.389602	-67.909113	107.385968			
42975	9.876400	2.721414	-3.087513	1.474415	0.666043	0.763916	161.752706	-67.965481	107.206013			
42976	9.936827	2.579206	-2.903245	1.356051	0.857148	0.734732	162.018590	-68.048239	107.114654			
42977	10.288683	2.409387	-2.567895	1.177681	1.287748	0.920951	162.208751	-68.137584	107.077375			
42978	10.628832	2.131737	-2.084976	0.890699	1.845940	1.034554	162.265008	-68.228608	107.103730			
42979	10.772202	1.663700	-1.646437	0.425626	2.287524	0.962518	162.165728	-68.303907	107.196754			
42980	10.864939	1.395981	-1.217211	0.156496	2.706612	0.870337	161.961695	-68.332895	107.349002			
42981	10.979619	1.177074	-1.000920	-0.080798	2.939235	0.878137	161.632056	-68.336298	107.594930			
42982	10.643507	1.115475	-1.126522	-0.130741	2.694970	0.604489	161.193933	-68.332912	107.946016			
42983	10.311529	1.179896	-1.576618	-0.073528	2.150265	0.462349	160.693042	-68.309466	108.377936			
42984	10.240908	1.742977	-2.273425	0.434057	1.472224	0.709987	160.206483	-68.259883	108.872750			
42985	10.203294	1.650427	-3.570499	0.259667	0.240989	1.116811	159.639623	-68.210708	109.453943			
42986	10.986405	2.003353	-4.329629	0.440573	-0.199413	2.155026	159.049696	-68.174844	110.100470			
42987	12.508965	3.063805	-4.323948	1.251209	0.338122	3.710537	158.501321	-68.160985	110.733146			
42988	12.695024	3.318785	-4.904653	1.413205	-0.156746	4.123298	157.947259	-68.209401	111.424400			
42989	11.900579	4.232902	-6.032609	2.354807	-1.486516	3.905138	157.623853	-68.190174	111.994063			
42990	11.190910	4.916830	-7.682986	3.063909	-3.246491	3.917301	157.507828	-68.061481	112.340078			
42991	11.270779	4.652082	-8.366430	2.753857	-3.821003	4.204637	157.390754	-67.825318	112.513178			
42992	10.909873	3.951406	-8.297908	2.081751	-3.847686	3.765069	157.230784	-67.559097	112.650505			
42993	9.907122	3.083092	-8.165407	1.324021	-4.050588	2.684095	156.893373	-67.268492	112.785634			
42994	9.142065	1.531792	-8.269361	-0.176313	-4.407539	1.799703	156.361277	-66.907962	112.932697			
42995	8.713501	0.048766	-8.061374	-1.668675	-4.339492	1.109596	155.641384	-66.535481	113.156289			
42996	8.153978	-1.487297	-7.740486	-3.195422	-4.207412	0.222255	154.688224	-66.220799	113.531903			
42997	7.661905	-2.741878	-7.399637	-4.447427	-4.025717	-0.593687	153.645571	-65.978614	113.981009			
42998	7.653893	-3.522846	-7.121720	-5.298772	-3.714326	-0.877527	152.782658	-65.734560	114.299417			
42999	8.466735	-3.522929	-6.672293	-5.479323	-2.938491	-0.328080	152.280863	-65.509415	114.401564			
43000	8.787443	-3.027509	-6.814286	-5.103456	-2.927147	0.097205	152.096057	-65.475903	114.463954			
43001	8.614897	-1.463513	-6.576471	-3.507302	-2.818050	0.155536	152.355461	-65.642567	114.469562			
43002	8.738988	0.250345	-6.100521	-1.740827	-2.396136	0.428222	153.054366	-65.908344	114.324378			
43003	8.918282	1.396470	-5.387853	-0.485767	-1.711458	0.548225	154.163104	-66.239636	114.030018			
43004	8.927069	2.348777	-4.643944	0.624913	-1.031027	0.449887	155.606280	-66.589118	113.594811			
43005	9.137376	3.172808	-4.120393	1.562151	-0.445328	0.574603	157.210180	-66.887279	113.034885			
43006	9.434102	3.386450	-3.684419	1.865542	0.099069	0.701774	158.777744	-67.144531	112.422035			
43007	9.116576	2.977844	-3.391316	1.622013	0.256545	0.226380	160.162293	-67.431211	111.834062			
43008	8.489840	1.952951	-3.404459	0.790931	-0.035997	-0.493123	161.378028	-67.671477	111.221550			
43009	7.761909	1.146219	-3.425306	0.166287	-0.367881	-1.261052	162.384096	-67.812369	110.590449			
43010	7.220660	0.666141	-3.590429	-0.182952	-0.740502	-1.757198	163.124666	-67.810102	109.966549			
43011	6.937970	0.581835	-4.040312	-0.191121	-1.244864	-1.862103	163.602815	-67.653732	109.392687			
43012	7.005258	0.411965	-4.334759	-0.356480	-1.471680	-1.704641	163.846137	-67.390033	108.887373			
43013	7.439231	0.192702	-4.487160	-0.635131	-1.428370	-1.264583	163.954782	-67.127349	108.467719			
43014	7.874742	0.228649	-4.194408	-0.669272	-0.959371	-0.964607	164.034818	-66.977239	108.135367			
43015	8.200307	0.337989	-3.797537	-0.605987	-0.448391	-0.800902	164.179972	-66.971913	107.837347			
43016	8.478002	0.288433	-3.539679	-0.676235	-0.111493	-0.646485	164.486536	-67.083662	107.507751			
43017	8.198057	0.374773	-3.457081	-0.527101	-0.152558	-0.924566	164.986647	-67.313367	107.150065			
43018	7.880043	0.566833	-3.283867	-0.257553	-0.125341	-1.261791	165.690354	-67.588593	106.688677			
43019	7.492878	0.360881	-3.382945	-0.363485	-0.398746	-1.601335	166.548488	-67.869159	106.132533			
43020	7.439456	0.576921	-3.152803	-0.089256	-0.212516	-1.715464	167.574131	-68.103419	105.474241			
43021	7.363301	0.598679	-3.045908	-0.002358	-0.153405	-1.823299	168.629253	-68.293428	104.744733			
43022	7.211237	0.447456	-3.049873	-0.081599	-0.231537	-1.974105	169.597511	-68.433956	104.075288			
43023	7.584613	0.602856	-2.646348	0.069659	0.288159	-1.762539	170.486436	-68.481274	103.413370			
43024	7.849923	0.573825	-2.706152	0.061938	0.331516	-1.496440	171.198878	-68.481846	102.891493			
43025	7.904605	0.365610	-2.637638	-0.122637	0.407459	-1.482474	171.718928	-68.448866	102.477726			
43026	7.929698	0.500212	-2.502525	0.020853	0.565421	-1.501684	172.033840	-68.377569	102.250130			
43027	7.816677	0.649595	-2.607799	0.193378	0.453987	-1.561656	172.161738	-68.279809	102.138797			
43028	7.775754	0.673531	-3.010857	0.244165	0.084849	-1.451204	172.159700	-68.136791	102.152018			
43029	8.125202	0.699987	-3.195227	0.247995	0.061556	-1.057515	172.082841	-68.021446	102.189653			
43030	8.493803	0.782575	-3.074604	0.287025	0.323752	-0.756027	171.992917	-68.007463	102.258612			
43031	8.475533	0.837681	-3.089917	0.341130	0.300254	-0.764073	171.921057	-68.099158	102.268677			
43032	8.327051	0.843605	-3.105985	0.360234	0.214257	-0.895127	171.879957	-68.223343	102.265316			
43033	8.157727	0.989393	-3.123268	0.521365	0.129777	-1.038092	171.833772	-68.337525	102.234857			
43034	8.039242	1.411201	-2.875444	0.936571	0.334943	-1.216193	171.753855	-68.423825	102.229618			
43035	8.185227	1.492778	-2.543346	0.984487	0.686932	-1.195621	171.550165	-68.497489	102.242701			
43036	8.138010	1.497747	-2.136714	0.964110	1.030215	-1.383862	171.248909	-68.597315	102.318937			
43037	8.061471	1.421215	-1.974785	0.876381	1.124689	-1.513657	170.860035	-68.716764	102.407201			
43038	7.941976	1.012721	-1.799728	0.459557	1.193177	-1.706845	170.424735	-68.841237	102.533267			
43039	7.707957	0.716406	-1.556037	0.162478	1.300006	-2.026119	170.013504	-68.915549	102.619027			
43040	7.697470	0.429623	-1.567182	-0.133630	1.260366	-2.048327	169.634156	-68.912882	102.684948			
43041	8.078525	0.075440	-1.770662	-0.523287	1.188367	-1.644613	169.298499	-68.842161	102.684914			
43042	8.699094	-0.305838	-1.862334	-0.964124	1.315775	-1.061960	168.966158	-68.741187	102.668627			
43043	9.367474	-0.691020	-1.937899	-1.414519	1.483552	-0.443552	168.581824	-68.651897	102.643289			
43044	9.911901	-1.106681	-2.071784	-1.889483	1.554488	0.075496	168.130718	-68.590282	102.696771			
43045	10.046929	-1.271866	-2.306010	-2.085707	1.394189	0.266109	167.672398	-68.549687	102.778141			
43046	10.116167	-1.220650	-2.596583	-2.064991	1.161074	0.432151	167.256490	-68.498846	102.890885			
43047	10.061683	-1.072002	-2.766424	-1.935433	1.000885	0.448503	166.939221	-68.421322	102.945938			
43048	10.058945	-0.617152	-2.812413	-1.498808	0.979744	0.495879	166.762368	-68.331561	102.959406			
43049	9.881999	-0.022893	-2.789309	-0.899791	0.961258	0.370682	166.718790	-68.243577	102.882121			
43050	9.905934	0.559496	-2.672660	-0.319835	1.098775	0.398780	166.787942	-68.173390	102.760602			
43051	10.015835	1.171847	-2.340469	0.295374	1.465617	0.430978	166.948501	-68.121744	102.562514			
43052	10.504904	1.678402	-1.798737	0.784680	2.159282	0.729004	167.132039	-68.112467	102.343837			
43053	10.845473	1.883450	-1.422051	0.987572	2.633026	0.924432	167.297198	-68.160906	102.070465			
43054	11.182807	1.973751	-1.055596	1.081084	3.084439	1.113546	167.423990	-68.246212	101.770456			
43055	11.450865	1.981707	-0.932790	1.095954	3.274190	1.322752	167.514677	-68.366759	101.433000			
43056	11.460643	2.039533	-0.783494	1.183024	3.386891	1.289076	167.540338	-68.508800	101.087484			
43057	11.434523	1.086076	-1.604265	0.228010	2.591973	1.489133	167.485185	-68.617119	100.684858			
43058	10.866185	1.226651	-2.628726	0.379094	1.408078	1.339102	167.528918	-68.707726	100.255228			
43059	10.569903	1.735560	-3.286085	0.885676	0.659919	1.336906	167.582821	-68.740664	99.706071			
43060	11.755072	1.793459	-3.359418	0.878339	1.016239	2.470620	167.668511	-68.606493	98.990337			
43061	13.177858	0.252560	-3.804291	-0.754728	1.217349	3.830647	167.717259	-68.430741	98.221728			
43062	12.953674	-2.324445	-5.364617	-3.428959	-0.104681	3.978997	167.759018	-68.238056	97.615151			
43063	11.896712	-3.661765	-7.176757	-4.869401	-2.001965	3.556177	168.007300	-67.948358	97.167885			
43064	11.622517	-3.799755	-8.409958	-5.095658	-3.142182	3.767021	168.397765	-67.567595	96.744148			
43065	11.930795	-3.698335	-8.607294	-5.004199	-3.115322	4.164397	168.817876	-67.203292	96.287147			
43066	11.400431	-3.452633	-9.137603	-4.749032	-3.736457	3.930348	169.382168	-66.863909	95.850898			
43067	10.952488	-2.708050	-10.414541	-4.038086	-5.057263	4.111027	170.159025	-66.515731	95.395840			
43068	10.925898	-1.027542	-10.641238	-2.278652	-5.328148	4.332428	171.067065	-66.348170	94.916680			
43069	9.813325	0.328405	-9.842053	-0.717788	-5.128602	3.089105	171.911704	-66.608360	94.396353			
43070	8.020247	0.695496	-8.112080	-0.079208	-4.364271	0.749440	172.724238	-67.334032	93.897915			
43071	6.200952	0.956553	-6.546703	0.414718	-3.758195	-1.570844	173.721265	-68.211229	93.328625			
43072	4.897855	1.920577	-5.588286	1.547835	-3.495540	-3.157592	174.977757	-69.086763	92.718204			
43073	4.403459	3.990717	-5.037642	3.737276	-3.284083	-3.817640	176.332457	-69.732393	92.050044			
43074	4.696331	5.482485	-5.025158	5.291638	-3.224925	-3.570615	177.129483	-70.057858	91.556842			
43075	6.216571	5.424838	-4.150894	5.258543	-1.911151	-2.464245	177.084571	-70.205605	91.344428			
43076	7.703171	3.772714	-3.305831	3.598387	-0.623456	-1.376857	176.505931	-70.416936	91.439126			
43077	8.242541	2.230204	-2.572808	2.045940	0.239473	-1.135761	175.764674	-70.680538	91.751586			
43078	8.604062	1.500544	-2.823089	1.263044	0.117082	-0.721913	174.918046	-70.715726	92.210468			
43079	9.185723	1.501089	-3.023730	1.193033	0.125388	-0.100103	173.830364	-70.483438	92.731382			
43080	9.624643	0.741554	-3.527324	0.323402	-0.119272	0.458923	172.512212	-70.115792	93.275399			
43081	9.541486	-0.180965	-3.957289	-0.715955	-0.423408	0.484875	171.176238	-69.711694	93.811549			
43082	8.611492	-0.488090	-4.294366	-1.120887	-0.965967	-0.291808	169.909245	-69.361394	94.392689			
43083	7.856716	-0.689710	-4.687173	-1.425814	-1.518915	-0.877787	168.777943	-69.046813	94.941219			
43084	7.768434	-0.760279	-4.806845	-1.579490	-1.604041	-0.926513	167.840370	-68.786584	95.461252			
43085	7.676216	-1.219324	-5.280021	-2.149736	-1.994829	-0.885836	167.044338	-68.660154	95.998622			
43086	7.484561	-1.979910	-5.511189	-2.971328	-2.188690	-1.055256	166.378985	-68.669610	96.588824			
43087	7.419413	-2.250825	-5.109938	-3.211650	-1.828045	-1.293954	165.947118	-68.780149	97.173495			
43088	7.366225	-1.762152	-4.222536	-2.620162	-1.115076	-1.621998	165.676336	-69.005851	97.804189			
43089	7.509498	-0.435201	-2.900295	-1.151842	-0.011771	-1.833551	165.554920	-69.259171	98.395604			
43090	7.592658	0.350010	-2.275962	-0.308410	0.487917	-1.899555	165.434233	-69.508144	98.980375			
43091	7.891246	0.857915	-2.258213	0.175626	0.535562	-1.579245	165.300804	-69.679910	99.569170			
43092	8.421590	1.463175	-2.344117	0.727797	0.576906	-0.998131	165.108919	-69.750138	100.212219			
43093	8.779189	1.975605	-2.934960	1.145666	0.107293	-0.417631	164.797194	-69.782036	100.916703			
43094	8.844947	2.531097	-3.249775	1.648352	-0.196961	-0.197872	164.419231	-69.806168	101.663601			
43095	8.940612	2.772729	-3.291808	1.856982	-0.214232	-0.067727	163.977850	-69.820293	102.391897			
43096	8.807115	2.445095	-3.286565	1.516823	-0.238155	-0.221663	163.489952	-69.834762	103.126395			
43097	8.746925	2.120042	-3.057140	1.188821	-0.030094	-0.382146	163.012007	-69.833238	103.825548			
43098	9.008451	1.822481	-2.762772	0.864786	0.345038	-0.260748	162.548188	-69.820466	104.484660			
43099	9.283707	1.618634	-2.504599	0.628173	0.682804	-0.106024	162.099613	-69.836239	105.102745			
43100	9.372837	1.563549	-2.498911	0.541692	0.710784	-0.027974	161.742057	-69.879732	105.664588			
43101	9.301113	1.655711	-2.585690	0.617091	0.591095	-0.055246	161.479909	-69.944808	106.142910			
43102	9.115938	1.804055	-2.646480	0.767661	0.454350	-0.191720	161.276949	-70.055873	106.581774			
43103	8.905683	1.736691	-2.523032	0.721595	0.481007	-0.435010	161.077505	-70.225645	106.999061			
43104	8.586806	1.517362	-2.275956	0.543275	0.584675	-0.836134	160.849486	-70.443204	107.450222			
43105	8.196454	1.246001	-2.004482	0.320522	0.688101	-1.317040	160.591657	-70.640040	107.897069			
43106	8.039335	1.070012	-1.732462	0.166009	0.871595	-1.567084	160.326798	-70.781733	108.344176			
43107	7.951452	1.030078	-1.585400	0.132427	0.964835	-1.697783	160.093564	-70.875139	108.749005			
43108	8.067527	1.184570	-1.269845	0.276375	1.286886	-1.666017	159.921254	-70.950235	109.112284			
43109	8.082656	1.144254	-1.113701	0.233126	1.426936	-1.701678	159.801706	-71.049652	109.412233			
43110	7.896550	1.449790	-0.924021	0.559105	1.538019	-1.898580	159.786740	-71.167353	109.665402			
43111	7.626166	1.668327	-0.853018	0.807549	1.512986	-2.149262	159.841082	-71.287539	109.848537			
43112	7.122752	1.652352	-1.029602	0.844890	1.186428	-2.573731	160.003767	-71.352195	109.967002			
43113	6.974011	1.564378	-1.011666	0.777626	1.160043	-2.730515	160.251562	-71.353349	110.004407			
43114	6.517365	1.230944	-1.154947	0.498648	0.888255	-3.157801	160.570243	-71.312175	109.999631			
43115	6.293383	1.220669	-1.314115	0.517647	0.685248	-3.325313	161.011126	-71.183867	109.881130			
43116	6.354419	1.253676	-1.601717	0.550555	0.460003	-3.179361	161.569417	-70.940974	109.631570			
43117	6.740823	1.214459	-1.830625	0.478138	0.402257	-2.750523	162.180296	-70.604583	109.245660			
43118	7.595302	1.167115	-1.929442	0.345718	0.628683	-1.922284	162.757780	-70.219337	108.802710			
43119	8.580702	1.016009	-2.008897	0.094684	0.925842	-0.990564	163.266883	-69.817587	108.367820			
43120	9.633206	0.885158	-2.153547	-0.144721	1.196843	0.024291	163.688356	-69.433617	108.022444			
43121	10.252698	0.691894	-2.465348	-0.400294	1.171047	0.682192	164.040316	-69.070176	107.823518			
43122	10.541048	0.621064	-3.007670	-0.496030	0.828167	1.124091	164.426424	-68.693833	107.728691			
43123	10.809378	0.979791	-3.689829	-0.154856	0.380122	1.643684	164.875532	-68.308488	107.708879			
43124	11.272809	1.506066	-3.996072	0.331316	0.370153	2.231638	165.336008	-67.991103	107.766683			
43125	11.793144	1.873313	-3.848857	0.643864	0.785946	2.692060	165.763019	-67.801051	107.889922			
43126	12.208347	2.199283	-3.587818	0.922317	1.248045	3.007010	166.148051	-67.744396	108.102577			
43127	12.741054	2.587223	-3.375134	1.245800	1.693690	3.453777	166.434303	-67.786329	108.404926			
43128	12.997021	3.078978	-2.872162	1.675844	2.300292	3.549653	166.548432	-67.938687	108.855200			
43129	12.878972	3.169264	-2.292660	1.729949	2.781115	3.242618	166.463570	-68.168350	109.461065			
43130	12.589296	3.595344	-1.758586	2.121083	3.189839	2.829908	166.204439	-68.408390	110.235152			
43131	12.182219	3.990402	-1.826144	2.531839	3.000770	2.526254	165.756040	-68.635568	111.173844			
43132	11.932789	4.109300	-2.497607	2.702556	2.272714	2.558509	165.171081	-68.829817	112.181088			
43133	11.697289	4.388589	-3.090108	3.026707	1.646802	2.587387	164.501159	-69.008154	113.160129			
43134	11.737483	4.422273	-3.454234	3.047985	1.282281	2.769915	163.688762	-69.174779	114.097758			
43135	11.582157	4.639731	-3.419208	3.232058	1.241293	2.652339	162.760596	-69.363079	115.030399			
43136	10.532499	4.564750	-3.884271	3.316934	0.397166	1.836249	161.785681	-69.525840	115.911673			
43137	9.332056	4.153931	-5.008934	3.168811	-1.146439	1.053582	160.916982	-69.566695	116.624211			
43138	8.857019	3.749562	-6.136350	2.908405	-2.440840	0.945748	160.144409	-69.478842	117.162653			
43139	9.110152	3.323140	-6.612382	2.428542	-2.881305	1.303135	159.406193	-69.289553	117.569552			
43140	8.949375	3.225502	-6.449027	2.262796	-2.791121	1.103992	158.655244	-69.034699	117.902810			
43141	8.324932	2.567293	-6.512980	1.631939	-3.125167	0.477285	157.863740	-68.664326	118.147763			
43142	8.181584	1.367994	-6.900371	0.392822	-3.656050	0.331393	157.005403	-68.195281	118.366793			
43143	8.351020	0.269599	-7.133936	-0.831076	-3.903471	0.423318	156.052939	-67.738878	118.678951			
43144	8.430761	-1.300236	-7.338538	-2.515943	-4.188573	0.323704	154.955359	-67.336101	119.089042			
43145	8.798702	-2.642007	-7.225476	-4.043429	-4.038613	0.382576	153.887354	-67.008193	119.527578			
43146	8.982265	-3.432196	-7.255661	-4.971945	-4.031975	0.391599	152.917983	-66.806950	120.000858			
43147	9.074175	-3.169398	-7.260923	-4.817990	-3.962053	0.492429	152.246040	-66.716691	120.384699			
43148	9.042400	-2.658300	-7.130810	-4.358883	-3.811365	0.490397	151.859899	-66.755601	120.621669			
43149	9.282577	-2.496499	-7.005507	-4.257778	-3.617749	0.687742	151.820474	-66.897194	120.666108			
43150	9.613653	-2.300734	-6.637883	-4.100289	-3.175004	0.905698	152.241754	-67.113044	120.477678			
43151	10.085356	-1.212199	-6.073845	-3.054018	-2.431487	1.360286	153.157029	-67.351476	120.034022			
43152	10.434335	-0.025588	-5.602512	-1.856211	-1.795402	1.745594	154.309529	-67.641085	119.469719			
43153	10.535029	1.063436	-4.929342	-0.704491	-1.054670	1.797917	155.457441	-68.022737	118.968734			
43154	10.310254	1.875490	-4.079825	0.214191	-0.281038	1.427318	156.512394	-68.472284	118.551555			
43155	9.560983	2.109938	-3.462507	0.644662	0.041068	0.552396	157.418375	-68.985988	118.237092			
43156	8.448291	2.063575	-3.111309	0.851338	-0.028696	-0.615626	158.268708	-69.471852	117.910552			
43157	7.216015	1.962816	-3.202019	1.033383	-0.540475	-1.761845	159.072488	-69.860860	117.506857			
43158	6.303548	1.813695	-3.231672	1.088135	-0.880432	-2.635741	159.860393	-70.057025	116.933111			
43159	5.982779	1.604500	-3.539887	0.995586	-1.292727	-2.867440	160.585793	-70.061814	116.213751			
43160	6.063436	1.533791	-3.631164	0.941347	-1.347840	-2.769941	161.178892	-69.954629	115.445520			
43161	6.084505	1.647065	-3.446311	1.040706	-1.135763	-2.795705	161.575603	-69.845401	114.777948			
43162	6.329051	1.669295	-2.878961	0.979890	-0.509962	-2.747873	161.801861	-69.728316	114.204774			
43163	7.166315	1.246616	-2.474458	0.411081	0.099034	-2.141036	161.986669	-69.568275	113.653239			
43164	8.166498	0.961481	-2.230257	-0.025179	0.638885	-1.316729	162.256830	-69.416051	113.104895			
43165	9.083843	0.447623	-2.346127	-0.638701	0.791250	-0.475299	162.597327	-69.366779	112.557936			
43166	8.970276	-0.318235	-3.079649	-1.310174	-0.013536	-0.414041	162.903696	-69.509659	112.073427			
43167	8.375581	-0.894516	-3.377798	-1.755851	-0.564295	-0.926829	163.224749	-69.762752	111.592491			
43168	7.952982	-1.360987	-3.395029	-2.132882	-0.782614	-1.358892	163.686248	-69.964378	111.027628			
43169	7.525095	-1.326001	-3.654686	-1.996806	-1.173651	-1.665464	164.280330	-70.133959	110.440439			
43170	7.459184	-0.710094	-3.513656	-1.351958	-1.011843	-1.710978	164.915279	-70.278158	109.868745			
43171	7.493011	-0.438180	-3.299603	-1.066583	-0.781005	-1.720905	165.474477	-70.398819	109.349661			
43172	7.501572	-0.200977	-2.851527	-0.835145	-0.337537	-1.835611	165.899895	-70.471997	108.969519			
43173	7.852029	0.172167	-2.467806	-0.512567	0.173572	-1.597993	166.151326	-70.447692	108.767043			
43174	8.282182	0.493228	-2.359259	-0.244803	0.457077	-1.202517	166.197911	-70.318535	108.750447			
43175	8.824383	0.685502	-2.411186	-0.118567	0.619389	-0.660873	166.070390	-70.173103	108.900498			
43176	8.937028	0.747773	-2.427516	-0.084513	0.660438	-0.545589	165.807009	-70.088837	109.183594			
43177	8.811229	0.876672	-2.514066	0.044894	0.556384	-0.624911	165.515470	-70.041298	109.515542			
43178	8.901326	0.700192	-2.612029	-0.151417	0.476178	-0.523077	165.220056	-70.006237	109.817009			
43179	8.819369	0.545042	-2.554197	-0.316227	0.487144	-0.633094	164.932481	-69.984895	110.057017			
43180	8.724984	0.309182	-2.503664	-0.557753	0.478916	-0.760130	164.636712	-69.962683	110.228394			
43181	8.679269	0.070292	-2.425173	-0.809577	0.510623	-0.851664	164.284437	-69.974286	110.389982			
43182	8.478081	-0.004822	-2.224624	-0.887613	0.619815	-1.114712	163.887852	-70.015281	110.577877			
43183	8.249740	0.059067	-2.025257	-0.823802	0.730874	-1.389474	163.473198	-70.046162	110.803674			
43184	7.983903	0.024438	-1.907663	-0.848218	0.746337	-1.682130	163.074791	-70.052926	111.060722			
43185	7.771263	0.042589	-1.751721	-0.828094	0.824619	-1.932515	162.751518	-70.010390	111.319335			
43186	7.787019	-0.020895	-1.817525	-0.904768	0.766212	-1.904730	162.527171	-69.919077	111.540705			
43187	8.091385	-0.155570	-1.874668	-1.087517	0.806637	-1.616608	162.381902	-69.813455	111.726039			
43188	8.404694	-0.126030	-1.752038	-1.116122	1.035198	-1.362420	162.282987	-69.725334	111.877715			
43189	8.618631	0.065492	-1.612128	-0.970819	1.261604	-1.190049	162.207698	-69.651609	111.989706			
43190	8.815065	0.294704	-1.527653	-0.782142	1.434729	-1.011793	162.136575	-69.568894	112.051355			
43191	8.872305	0.625905	-1.633778	-0.464773	1.393566	-0.889643	162.035708	-69.487658	112.094155			
43192	8.769711	0.938248	-1.679994	-0.148857	1.354662	-0.938385	161.901196	-69.405346	112.142068			
43193	8.689833	1.090423	-1.717345	0.003217	1.316919	-0.985616	161.722155	-69.304368	112.188583			
43194	8.718259	1.061932	-1.747226	-0.040225	1.308108	-0.954033	161.535727	-69.179753	112.223560			
43195	8.816676	1.010173	-1.801592	-0.115838	1.303255	-0.852330	161.408882	-69.006995	112.186330			
43196	9.313970	0.887503	-1.785112	-0.317634	1.501504	-0.412218	161.344295	-68.787857	112.042059			
43197	9.875948	0.684478	-1.724556	-0.605984	1.767100	0.060861	161.368904	-68.557902	111.780638			
43198	10.733768	0.459689	-1.744578	-0.945842	2.068818	0.831268	161.524696	-68.303775	111.348830			
43199	11.227267	0.515409	-2.033463	-0.941275	2.023710	1.388675	161.802024	-68.092089	110.807552			
43200	11.443563	0.773552	-2.355322	-0.688411	1.865312	1.726269	162.199812	-67.904994	110.167549			
43201	11.338887	0.674221	-2.936849	-0.736006	1.325438	1.821370	162.690921	-67.760744	109.475678			
43202	11.177774	0.914007	-3.543730	-0.434356	0.756061	1.916572	163.276978	-67.657983	108.739240			
43203	11.084665	0.994612	-4.082141	-0.295850	0.257949	2.035040	163.892422	-67.595124	107.987798			
43204	11.544548	1.088105	-4.051335	-0.213616	0.483825	2.458985	164.479478	-67.559158	107.271665			
43205	12.550276	0.553422	-3.312631	-0.821433	1.531184	3.062473	164.979734	-67.539056	106.677575			
43206	12.592735	-0.831074	-3.128384	-2.164593	1.675412	2.898009	165.442903	-67.467070	106.198458			
43207	12.416631	-2.327988	-3.589691	-3.601031	1.146264	2.764936	165.869034	-67.308137	105.847823			
43208	12.184707	-2.831524	-4.463209	-4.045061	0.261164	2.835395	166.246063	-67.189543	105.559675			
43209	11.572480	-3.198351	-5.698038	-4.309842	-1.102275	2.710473	166.570533	-67.111608	105.247440			
43210	11.318174	-3.608966	-7.338204	-4.648609	-2.693552	3.075670	167.045211	-66.880514	104.818184			
43211	11.785114	-3.089480	-9.044114	-4.115298	-3.980531	4.238932	167.815198	-66.438875	104.282702			
43212	12.115983	-1.603413	-10.125634	-2.573900	-4.660692	5.138820	168.720800	-66.058552	103.813269			
43213	11.264646	-0.206385	-10.167819	-0.987520	-4.872244	4.526202	169.683094	-65.900449	103.436017			
43214	9.937689	0.785118	-9.636513	0.246017	-4.804148	3.190934	170.765320	-65.896222	103.076060			
43215	8.748314	2.015233	-8.620397	1.679704	-4.227385	1.772275	171.889972	-66.016474	102.752231			
43216	8.017838	3.065100	-7.380834	2.846885	-3.276898	0.642605	172.920189	-66.276213	102.466289			
43217	6.960279	4.023141	-6.133775	3.900539	-2.454846	-0.811961	173.770509	-66.633420	102.234409			
43218	5.958229	4.556700	-5.344412	4.515397	-2.075441	-2.058328	174.290862	-67.067263	102.107674			
43219	5.230962	4.883460	-4.556230	4.860117	-1.618609	-3.050322	174.426154	-67.459419	102.130609			
43220	5.435766	4.465374	-3.831115	4.363012	-0.963335	-3.164341	174.085330	-67.744105	102.344873			
43221	6.107850	3.956432	-3.156471	3.718209	-0.196394	-2.808504	173.328866	-67.871994	102.757692			
43222	6.729230	3.091088	-3.024174	2.752900	0.017050	-2.302437	172.206501	-67.859198	103.304436			
43223	7.252280	2.226274	-3.307532	1.805988	-0.171294	-1.738025	170.861465	-67.724754	103.906466			
43224	7.852606	1.579599	-3.619376	1.045958	-0.310474	-1.091029	169.460354	-67.517127	104.490991			
43225	8.157923	1.122035	-3.995692	0.489840	-0.580230	-0.691344	168.185626	-67.293550	104.981680			
43226	8.518057	0.884952	-4.339404	0.142490	-0.764832	-0.243729	167.147922	-67.034211	105.320194			
43227	8.572565	0.770292	-4.396934	-0.053821	-0.781827	-0.179379	166.304110	-66.806122	105.541669			
43228	8.413444	0.440120	-4.604710	-0.428435	-1.027528	-0.276263	165.637545	-66.606241	105.689069			
43229	8.253949	0.231392	-4.732317	-0.671494	-1.191908	-0.394393	165.141951	-66.429102	105.808066			
43230	8.211121	0.003439	-4.792624	-0.934595	-1.252076	-0.434496	164.748197	-66.297177	105.944012			
43231	8.340205	-0.170699	-4.674738	-1.151041	-1.086157	-0.382065	164.447735	-66.218500	106.102761			
43232	8.280211	-0.290047	-4.581793	-1.282466	-1.025276	-0.488369	164.186727	-66.224820	106.311129			
43233	7.938796	-0.463798	-4.519612	-1.428641	-1.116460	-0.847257	163.957475	-66.298728	106.581441			
43234	7.698141	-0.104602	-4.232771	-1.047450	-0.952890	-1.141848	163.746706	-66.414913	106.907097			
43235	7.617395	0.373109	-4.023675	-0.566498	-0.798794	-1.245610	163.506215	-66.550898	107.278487			
43236	7.567931	0.658983	-3.823931	-0.281874	-0.645689	-1.337201	163.234230	-66.661944	107.683723			
43237	7.570488	1.055335	-3.750199	0.101005	-0.579215	-1.318908	162.919492	-66.726113	108.131548			
43238	7.678279	1.416607	-3.641507	0.430911	-0.434715	-1.219165	162.546653	-66.745517	108.602237			
43239	8.089125	1.696069	-3.332762	0.634475	0.008419	-0.923638	162.073248	-66.743714	109.113171			
43240	8.267086	1.763370	-3.062670	0.649224	0.318687	-0.851048	161.511414	-66.740841	109.649027			
43241	8.334365	1.585987	-2.830329	0.432650	0.540142	-0.895922	160.942143	-66.734329	110.166501			
43242	8.331418	1.352261	-2.661285	0.171179	0.675487	-0.990108	160.426537	-66.723283	110.637584			
43243	8.152797	1.330581	-2.601078	0.147438	0.657599	-1.178457	160.009475	-66.688238	111.034740			
43244	8.361119	1.297866	-2.543911	0.062891	0.787100	-1.012646	159.724332	-66.606420	111.318438			
43245	8.564903	1.259595	-2.584969	-0.022377	0.830274	-0.816226	159.584830	-66.515772	111.497506			
43246	8.772459	1.434784	-2.755270	0.110424	0.769300	-0.538954	159.634717	-66.433833	111.549642			
43247	8.931099	1.645891	-2.891028	0.297430	0.723552	-0.314291	159.821940	-66.411713	111.518019			
43248	8.870434	1.667158	-2.910204	0.340314	0.686762	-0.360396	160.070220	-66.483032	111.454344			
43249	8.439200	1.501329	-2.751653	0.259336	0.656431	-0.837863	160.355121	-66.618966	111.378532			
43250	8.139730	1.244545	-2.620242	0.070452	0.642019	-1.195694	160.668163	-66.742375	111.275967			
43251	7.868739	1.061070	-2.492338	-0.052522	0.640322	-1.515587	160.950990	-66.852688	111.165370			
43252	7.570217	1.070763	-2.122099	0.011925	0.868434	-1.925756	161.164188	-66.920848	111.059756			
43253	7.484439	1.152820	-1.811859	0.111387	1.128237	-2.109225	161.302327	-66.936874	110.971216			
43254	7.703024	1.321380	-1.446493	0.247900	1.560188	-2.022994	161.385849	-66.925313	110.920125			
43255	8.086254	1.527523	-1.185854	0.396599	1.957368	-1.741845	161.420955	-66.929549	110.932010			
43256	8.356863	1.516446	-1.113877	0.345742	2.120377	-1.520405	161.390961	-66.964670	111.035318			
43257	8.728045	1.346914	-1.062939	0.120856	2.286025	-1.217208	161.340687	-67.008421	111.213719			
43258	9.161418	1.067379	-1.074987	-0.223994	2.407447	-0.847171	161.300243	-67.034748	111.437677			
43259	9.495063	0.858530	-1.268682	-0.483927	2.328270	-0.493470	161.278357	-67.052376	111.711241			
43260	9.479003	0.703226	-1.850086	-0.630596	1.764335	-0.312250	161.261272	-67.075882	112.022604			
43261	9.458826	0.665301	-2.382554	-0.656765	1.252002	-0.138510	161.256732	-67.098184	112.337230			
43262	9.437495	0.488164	-2.921713	-0.814279	0.721185	0.018786	161.256816	-67.115368	112.638033			
43263	9.644023	0.896309	-3.209685	-0.431092	0.558469	0.366453	161.303953	-67.145057	112.919106			
43264	9.947913	1.371576	-3.088537	-0.010685	0.820197	0.661491	161.373161	-67.186768	113.173264			
43265	10.531278	1.758574	-2.825930	0.271884	1.304850	1.151332	161.448529	-67.254731	113.436972			
43266	11.088316	2.243638	-2.245882	0.633309	2.083043	1.513763	161.507620	-67.357766	113.743883			
43267	11.541926	2.276211	-1.676435	0.555505	2.758125	1.732517	161.518802	-67.500067	114.147167			
43268	11.778709	2.226724	-1.254617	0.430193	3.199551	1.799721	161.476796	-67.689388	114.652968			
43269	11.645974	2.271638	-1.152506	0.472835	3.217833	1.656363	161.396393	-67.922281	115.266380			
43270	10.901251	2.350531	-1.774683	0.710220	2.356466	1.207942	161.262417	-68.168461	115.939721			
43271	10.387178	2.066802	-3.020962	0.627606	0.948246	1.141683	161.118390	-68.343629	116.587519			
43272	10.861140	1.782364	-4.115405	0.383091	0.020519	1.931697	161.023932	-68.414694	117.146690			
43273	11.962498	2.074456	-4.654379	0.545036	-0.082476	3.178237	160.974348	-68.452346	117.621961			
43274	12.251179	3.386446	-4.594082	1.775651	0.287261	3.582444	160.986425	-68.519204	118.026703			
43275	11.962467	4.710557	-4.854383	3.160956	0.198080	3.559824	161.150913	-68.530398	118.247500			
43276	11.748851	5.267503	-5.894577	3.894501	-0.697944	3.784137	161.455435	-68.454225	118.264928			
43277	11.274647	5.474524	-6.846711	4.329832	-1.647420	3.696712	161.784488	-68.370188	118.167781			
43278	11.172512	5.551117	-7.011765	4.458859	-1.768437	3.670478	162.058622	-68.198822	118.002253			
43279	11.416672	5.148079	-7.210483	4.044259	-1.892864	3.931215	162.219403	-67.921923	117.794707			
43280	11.083430	4.624511	-7.561750	3.610218	-2.378340	3.704638	162.149744	-67.652255	117.654572			
43281	9.910852	3.863565	-7.890081	3.067148	-3.201402	2.667247	161.764595	-67.489466	117.681965			
43282	8.509762	2.352714	-8.036250	1.788280	-4.103134	1.255209	161.078421	-67.406092	117.878537			
43283	7.631950	0.715803	-7.666986	0.213748	-4.366837	0.108301	160.243602	-67.277996	118.183703			
43284	7.284202	-0.763494	-7.548102	-1.279651	-4.630837	-0.456762	159.271327	-67.153798	118.607883			
43285	6.871924	-2.359541	-7.451021	-2.872568	-4.941366	-1.115627	158.177994	-67.113572	119.168064			
43286	6.627443	-3.407905	-6.904597	-3.988622	-4.685415	-1.728914	157.109021	-67.176715	119.789866			
43287	7.079533	-3.326594	-5.296911	-4.188465	-3.043211	-1.910872	156.328068	-67.334718	120.284858			
43288	7.227162	-3.031153	-4.444561	-4.015404	-2.185758	-2.049133	155.975573	-67.553914	120.589674			
43289	7.323010	-1.815340	-3.942026	-2.871167	-1.543567	-1.949153	156.212817	-67.734735	120.593483			
43290	7.824053	-0.604225	-3.881746	-1.747707	-1.166708	-1.313693	156.925893	-67.874722	120.321186			
43291	8.544292	0.503251	-3.734231	-0.752043	-0.630400	-0.526180	157.990390	-68.023458	119.913826			
43292	9.106825	1.652070	-3.477909	0.319601	-0.010827	0.069443	159.305832	-68.184170	119.424204			
43293	9.202911	2.545375	-3.548811	1.273097	0.136635	0.293068	160.704435	-68.373022	118.892947			
43294	8.975882	2.989091	-3.637312	1.850005	0.094997	0.152193	162.012633	-68.586721	118.334716			
43295	8.656319	2.765003	-3.695848	1.779444	-0.087305	-0.165831	163.084808	-68.822141	117.781390			
43296	8.176256	2.376461	-3.910051	1.584734	-0.515077	-0.592588	163.905531	-69.035405	117.233707			
43297	7.694743	2.143108	-4.068239	1.511087	-0.868277	-1.019785	164.469205	-69.182181	116.671446			
43298	7.283732	1.872192	-4.200122	1.361867	-1.186315	-1.390288	164.802443	-69.282052	116.120030			
43299	6.939756	1.592025	-4.127661	1.138853	-1.297740	-1.765873	164.927989	-69.334653	115.575919			
43300	6.633392	1.550500	-3.970554	1.114438	-1.268199	-2.110680	164.939149	-69.325555	115.052647			
43301	6.606397	1.608351	-3.523316	1.096388	-0.857911	-2.282287	164.870651	-69.271546	114.556205			
43302	7.098986	1.481434	-3.199009	0.842467	-0.420904	-1.942682	164.850900	-69.168594	114.046287			
43303	7.739249	1.463916	-2.893534	0.688796	0.069824	-1.450137	164.906879	-69.146480	113.543442			
43304	8.012320	1.353829	-2.716979	0.529225	0.297630	-1.266144	165.065822	-69.251501	113.011164			
43305	8.006777	1.352304	-2.532711	0.530520	0.446577	-1.335022	165.388496	-69.471057	112.353708			
43306	7.588584	1.172699	-2.673841	0.457756	0.124255	-1.695662	165.819677	-69.733703	111.577730			
43307	7.133460	1.086141	-2.752846	0.472881	-0.133722	-2.105387	166.379162	-69.946142	110.677826			
43308	6.932850	0.890344	-2.888862	0.348287	-0.362996	-2.266198	167.013295	-70.017435	109.687761			
43309	7.356268	0.528004	-3.042467	-0.020470	-0.408482	-1.845082	167.588563	-69.934066	108.720859			
43310	7.861753	0.402000	-3.112370	-0.179241	-0.299292	-1.354921	168.033745	-69.770270	107.856880			
43311	8.223089	0.225713	-3.019314	-0.392551	-0.079276	-1.059065	168.297105	-69.568139	107.113631			
43312	8.713637	-0.158708	-2.902071	-0.833814	0.191965	-0.667063	168.353591	-69.363088	106.520359			
43313	9.199581	-0.096205	-2.765178	-0.837206	0.527192	-0.257123	168.224123	-69.188081	106.099955			
43314	9.334726	-0.165059	-2.611806	-0.943221	0.739640	-0.192445	167.844906	-69.061094	105.880691			
43315	9.147686	-0.210242	-2.515948	-0.998994	0.781037	-0.408100	167.267934	-68.966719	105.844552			
43316	9.019189	-0.479703	-2.579652	-1.285494	0.670911	-0.532183	166.517200	-68.914289	105.986496			
43317	8.494390	-0.560216	-2.421334	-1.355771	0.637822	-1.089941	165.694897	-68.899177	106.264462			
43318	8.092310	-0.686427	-2.379126	-1.480498	0.534687	-1.497701	164.861087	-68.860481	106.630759			
43319	7.928046	-0.534531	-2.333868	-1.350803	0.531055	-1.659174	164.117931	-68.795135	107.024352			
43320	7.820104	-0.412178	-2.143672	-1.251767	0.680894	-1.819651	163.469419	-68.732841	107.410769			
43321	7.924642	-0.368546	-1.829001	-1.247281	1.016706	-1.831988	162.912986	-68.672657	107.764171			
43322	8.058987	-0.216900	-1.545759	-1.133437	1.335344	-1.792973	162.436996	-68.631404	108.087629			
43323	8.294218	-0.210371	-1.476704	-1.173661	1.482030	-1.600194	162.017605	-68.594571	108.370876			
43324	8.578358	-0.143776	-1.604808	-1.160678	1.463820	-1.286590	161.675690	-68.545219	108.600789			
43325	8.740150	0.103837	-1.842480	-0.953503	1.305708	-1.027377	161.407972	-68.507134	108.771068			
43326	8.772981	0.399205	-2.201530	-0.683391	0.989866	-0.839147	161.194626	-68.474190	108.865274			
43327	8.907020	0.815666	-2.495347	-0.302288	0.773017	-0.564005	161.037824	-68.434110	108.892892			
43328	8.899010	1.202356	-2.834643	0.065797	0.465101	-0.407764	160.913058	-68.377919	108.857415			
43329	8.983874	1.512050	-2.994518	0.349351	0.357680	-0.235974	160.790274	-68.301073	108.809549			
43330	9.376379	1.600278	-2.634592	0.391140	0.843285	0.013518	160.685712	-68.214617	108.725252			
43331	9.964222	1.365881	-2.122368	0.098098	1.537655	0.350077	160.608236	-68.133375	108.626859			
43332	10.625111	0.989858	-1.567678	-0.335138	2.301439	0.719238	160.626119	-68.037699	108.434522			
43333	11.366717	0.741151	-1.215592	-0.649613	2.912832	1.247266	160.744371	-67.934442	108.144008			
43334	12.181607	0.672335	-1.060831	-0.789829	3.371650	1.933674	160.948877	-67.855531	107.743512			
43335	12.545773	0.684927	-1.173579	-0.797323	3.411348	2.310420	161.173082	-67.870334	107.303798			
43336	12.669841	0.676861	-1.547853	-0.799637	3.107096	2.560075	161.475967	-67.948166	106.767904			
43337	12.212779	0.702740	-2.544731	-0.729918	2.002409	2.499048	161.895055	-68.078035	106.151677			
43338	11.915148	0.907312	-3.483002	-0.493532	1.003989	2.583821	162.475331	-68.207772	105.422051			
43339	12.044412	1.308439	-3.895081	-0.071079	0.647224	2.896649	163.157890	-68.327290	104.635706			
43340	12.051219	1.137366	-3.691749	-0.167125	0.827595	2.814318	163.837311	-68.483806	103.865350			
43341	11.548719	0.036648	-3.709788	-1.157232	0.635575	2.245227	164.508087	-68.646843	103.160491			
43342	11.007542	-0.789243	-4.158540	-1.901518	0.037076	1.826253	165.278891	-68.659519	102.529696			
43343	10.229708	-1.627479	-5.471871	-2.692184	-1.430223	1.498516	165.968289	-68.512789	102.068923			
43344	9.838799	-1.638785	-6.096302	-2.660474	-2.106581	1.373741	166.598207	-68.180589	101.710615			
43345	10.370926	-2.590003	-7.398002	-3.673621	-3.025550	2.284586	167.100667	-67.633404	101.387509			
43346	10.986525	-3.048191	-8.546870	-4.202606	-3.723937	3.283588	167.567141	-66.938248	101.094762			
43347	12.168270	-2.668544	-9.214603	-3.919519	-3.724985	4.708192	168.029614	-66.239158	100.794866			
43348	11.766837	-1.807258	-9.393006	-3.017724	-3.914539	4.523353	168.328586	-65.842707	100.631526			
43349	10.657805	-0.906271	-9.088192	-2.001032	-4.026975	3.483350	168.583567	-65.783738	100.533547			
43350	9.092965	0.487017	-8.213948	-0.427047	-3.859564	1.819564	168.960891	-65.911225	100.410390			
43351	7.268968	2.164588	-7.075850	1.462957	-3.570510	-0.184511	169.372273	-66.223781	100.336353			
43352	6.240611	3.244164	-6.518372	2.679228	-3.488458	-1.291476	169.811278	-66.537815	100.233609			
43353	5.457034	4.279535	-6.274642	3.818378	-3.582883	-2.063662	170.132127	-66.906192	100.219798			
43354	5.221477	5.162291	-5.562718	4.752455	-3.027357	-2.525299	170.200256	-67.243488	100.320546			
43355	6.053920	4.972065	-4.446451	4.514582	-1.715320	-2.208845	169.907369	-67.474363	100.540916			
43356	6.779323	3.874943	-3.388230	3.356626	-0.529013	-2.008366	169.283408	-67.724534	100.916474			
43357	6.975950	2.596286	-2.400526	2.048853	0.392725	-2.275125	168.537341	-67.903002	101.313742			
43358	7.187657	1.648491	-2.164303	1.059847	0.653277	-2.228890	167.748453	-67.873240	101.639313			
43359	7.715929	1.257204	-2.566323	0.580760	0.479112	-1.619086	167.008433	-67.601792	101.804455			
43360	8.650201	1.062044	-3.441027	0.232566	0.056630	-0.445896	166.305490	-67.185944	101.808803			
43361	9.071842	0.628775	-4.177664	-0.327757	-0.401437	0.181179	165.634954	-66.806643	101.746690			
43362	8.972349	0.250632	-4.593721	-0.781449	-0.757997	0.211405	165.069566	-66.503855	101.690824			
43363	9.103006	0.163861	-4.817218	-0.945795	-0.864356	0.407646	164.616379	-66.282273	101.702756			
43364	9.115081	0.295241	-4.861645	-0.858440	-0.877625	0.448902	164.272698	-66.171016	101.813313			
43365	8.725795	0.312794	-4.798096	-0.830100	-0.967162	0.068332	163.963691	-66.168490	102.054676			
43366	8.373899	0.520997	-4.715465	-0.604656	-1.049060	-0.264753	163.685403	-66.229291	102.406078			
43367	8.081290	0.576476	-4.639837	-0.531599	-1.114708	-0.558367	163.381999	-66.317850	102.833654			
43368	7.899396	0.507739	-4.523327	-0.587554	-1.096903	-0.781062	163.038232	-66.422114	103.309875			
43369	7.607183	0.582257	-4.251966	-0.479225	-0.988359	-1.147765	162.653101	-66.553268	103.823731			
43370	7.507597	0.754854	-3.793387	-0.278350	-0.636536	-1.395986	162.218004	-66.686703	104.367537			
43371	7.558319	1.001387	-3.305702	-0.020437	-0.200512	-1.504985	161.736398	-66.803685	104.934467			
43372	7.381060	1.071574	-3.167935	0.055130	-0.164902	-1.711217	161.223157	-66.900644	105.506349			
43373	7.556568	1.357155	-2.950688	0.311285	0.075657	-1.593961	160.690475	-66.948172	106.066619			
43374	7.411776	1.484269	-2.882967	0.430205	0.065088	-1.734348	160.105758	-66.997971	106.631822			
43375	7.036018	1.577285	-2.758217	0.546825	0.023484	-2.111941	159.575723	-67.024849	107.130662			
43376	7.208242	1.699666	-2.578551	0.638867	0.243764	-2.000586	159.174338	-66.994647	107.505375			
43377	7.460167	1.839023	-2.562884	0.729759	0.346588	-1.753421	158.903566	-66.961374	107.763221			
43378	7.697709	1.790865	-2.346074	0.659478	0.639945	-1.619913	158.792350	-66.917036	107.872975			
43379	7.869960	1.709289	-2.205043	0.565453	0.843061	-1.524765	158.835042	-66.871729	107.856036			
43380	8.114620	1.667547	-2.126088	0.504397	1.017649	-1.335778	159.007328	-66.826101	107.742594			
43381	8.327452	1.735417	-2.027579	0.563358	1.196119	-1.168550	159.270283	-66.799701	107.566137			
43382	8.400561	1.727538	-2.156225	0.551732	1.112561	-1.057067	159.603730	-66.803034	107.354987			
43383	8.492251	1.932701	-2.212370	0.759801	1.094976	-0.926072	160.007276	-66.834087	107.114723			
43384	8.462479	1.916531	-2.223299	0.770212	1.078283	-0.954148	160.449125	-66.872915	106.834671			
43385	8.682777	1.810107	-2.240725	0.663645	1.150559	-0.761517	160.880457	-66.911161	106.538989			
43386	8.796757	1.742102	-2.204078	0.611038	1.230052	-0.680909	161.274393	-66.964157	106.228113			
43387	8.761904	1.743479	-2.142738	0.644135	1.272021	-0.736950	161.622103	-67.021044	105.913670			
43388	8.637070	1.628693	-2.127997	0.566102	1.238312	-0.872549	161.912991	-67.069761	105.601947			
43389	8.525365	1.713393	-2.039098	0.685959	1.274067	-0.998967	162.153782	-67.110828	105.323178			
43390	8.450628	1.677246	-1.786406	0.688486	1.477550	-1.166282	162.317608	-67.151645	105.115446			
43391	8.460008	1.581664	-1.596926	0.614758	1.654056	-1.238906	162.410797	-67.195127	105.008219			
43392	8.483716	1.451067	-1.446627	0.496949	1.798775	-1.286891	162.413417	-67.251323	105.028003			
43393	8.376669	1.264442	-1.469169	0.320251	1.733847	-1.397400	162.361670	-67.307120	105.151603			
43394	8.278416	1.162623	-1.783455	0.204989	1.401099	-1.383010	162.289047	-67.339444	105.343030			
43395	8.230349	1.201826	-2.117159	0.221267	1.070406	-1.299718	162.183511	-67.326943	105.572567			
43396	8.290146	1.110427	-2.663858	0.083022	0.592888	-1.054989	162.107838	-67.240008	105.792976			
43397	8.704890	1.117454	-2.981073	0.018648	0.471006	-0.555886	162.083250	-67.078176	105.968601			
43398	9.557245	1.134093	-3.039008	-0.068565	0.767721	0.250535	162.147936	-66.859205	106.075831			
43399	10.386844	1.437926	-2.922946	0.141754	1.227303	1.002637	162.297448	-66.634788	106.149206			
43400	11.115198	1.965797	-2.654344	0.593511	1.796508	1.627490	162.487106	-66.431878	106.219931			
43401	11.911553	2.126869	-2.636297	0.660033	2.162172	2.363024	162.653304	-66.267042	106.327177			
43402	12.373641	2.708866	-2.530975	1.182261	2.477421	2.809330	162.781909	-66.166439	106.526889			
43403	12.283160	3.245935	-2.976566	1.699671	2.065669	2.959005	162.836825	-66.110164	106.839253			
43404	12.200684	3.637025	-3.831396	2.058099	1.281042	3.259699	162.807500	-66.024654	107.246402			
43405	12.439553	3.458447	-4.772150	1.807423	0.532772	3.822781	162.616219	-65.924189	107.798990			
43406	13.192986	2.591436	-4.774432	0.811864	0.812888	4.408615	162.152942	-65.859595	108.561824			
43407	13.742402	2.087279	-4.411920	0.179186	1.323220	4.709424	161.373842	-65.921288	109.587730			
43408	12.733330	2.112664	-4.506856	0.261167	0.793478	3.833338	160.358307	-66.091526	110.769138			
43409	11.304872	2.479792	-5.118604	0.745173	-0.365079	2.815067	159.268262	-66.254675	111.900058			
43410	10.026648	2.457664	-5.936233	0.834269	-1.662728	1.949595	158.217165	-66.377255	112.861174			
43411	9.003043	2.322526	-6.676679	0.786022	-2.781594	1.263025	157.343701	-66.436957	113.593975			
43412	8.757753	2.954985	-6.888413	1.391549	-3.059490	1.213795	156.801922	-66.345567	114.022353			
43413	8.987658	3.841424	-6.673083	2.185878	-2.726440	1.494515	156.484802	-66.151516	114.210822			
43414	8.768759	4.086504	-6.719423	2.423096	-2.819465	1.364090	156.260409	-65.974623	114.301375			
43415	7.896795	3.546980	-6.669103	2.007224	-3.104698	0.470756	156.062307	-65.862289	114.384674			
43416	7.086974	2.705209	-6.337381	1.300898	-3.123682	-0.525277	155.921497	-65.771399	114.467879			
43417	6.499032	1.638224	-5.808741	0.349160	-2.883739	-1.432665	155.849313	-65.643317	114.524030			
43418	6.336355	0.516647	-5.457718	-0.730736	-2.645554	-1.896248	155.803492	-65.460803	114.560870			
43419	6.619750	-0.613798	-5.494709	-1.908821	-2.593962	-1.811604	155.738842	-65.250124	114.585645			
43420	7.174608	-1.497522	-5.689210	-2.899628	-2.572048	-1.382899	155.629625	-65.062947	114.630456			
43421	8.079985	-1.682820	-5.658744	-3.258385	-2.183252	-0.606400	155.523675	-64.948395	114.664453			
43422	8.745092	-1.572696	-5.807155	-3.284377	-2.051948	0.070400	155.427248	-64.950600	114.720819			
43423	9.290904	-0.902166	-5.724207	-2.717914	-1.751616	0.648961	155.407465	-65.055797	114.812051			
43424	9.922539	-0.356560	-5.419531	-2.267516	-1.236568	1.200230	155.462185	-65.238617	114.945371			
43425	10.425078	0.200918	-4.911728	-1.761087	-0.590463	1.562609	155.749975	-65.438850	115.043676			
43426	10.719063	1.081709	-4.702682	-0.890073	-0.277388	1.905421	156.269198	-65.653377	115.082141			
43427	10.444788	1.850810	-4.758620	-0.020065	-0.419105	1.805704	156.828092	-65.932854	115.109145			
43428	9.872786	2.145403	-4.442415	0.435864	-0.353197	1.209768	157.305064	-66.265104	115.111020			
43429	9.385316	1.809808	-4.209337	0.245737	-0.377719	0.621613	157.728800	-66.591288	115.042115			
43430	8.708898	1.770783	-4.013428	0.370077	-0.477095	-0.080097	158.157734	-66.883195	114.907236			
43431	8.007367	2.114492	-3.821174	0.866611	-0.543719	-0.749379	158.630557	-67.097692	114.664150			
43432	7.309992	2.245493	-3.675188	1.143800	-0.652597	-1.431102	159.134469	-67.223371	114.290696			
43433	6.911608	1.958665	-3.600015	0.953269	-0.747345	-1.869169	159.642795	-67.280277	113.806780			
43434	6.728669	1.773578	-3.497936	0.821000	-0.725753	-2.101960	160.131742	-67.276049	113.294634			
43435	6.588066	1.489290	-3.445963	0.579095	-0.741113	-2.288683	160.527384	-67.246809	112.836278			
43436	6.830890	1.288781	-3.298352	0.354936	-0.523617	-2.144508	160.865392	-67.219849	112.445938			
43437	6.986905	0.975164	-3.152492	0.030982	-0.352799	-2.093844	161.106488	-67.255069	112.131573			
43438	7.121885	0.342949	-2.865569	-0.608534	-0.091225	-2.152943	161.309558	-67.351861	111.839603			
43439	7.115477	-0.507080	-2.680060	-1.437767	0.005354	-2.329197	161.559704	-67.471665	111.530897			
43440	6.989698	-0.928273	-2.538928	-1.820508	0.052412	-2.543116	161.957324	-67.584210	111.185520			
43441	6.839664	-0.999423	-2.532581	-1.844555	-0.006240	-2.685885	162.512886	-67.675892	110.768616			
43442	6.585853	-1.061626	-2.640522	-1.839010	-0.202711	-2.880896	163.170406	-67.716032	110.275339			
43443	6.585379	-1.041470	-2.717900	-1.785576	-0.265741	-2.842762	163.916980	-67.664363	109.735934			
43444	7.068032	-0.715823	-2.731917	-1.494423	-0.061074	-2.349732	164.643519	-67.538354	109.248680			
43445	7.425879	-0.418214	-2.775587	-1.216319	0.074807	-1.968113	165.232548	-67.426263	108.895724			
43446	7.736412	-0.093675	-2.722166	-0.915311	0.285164	-1.667021	165.660304	-67.336905	108.687222			
43447	8.002994	0.275245	-2.670232	-0.571188	0.480278	-1.404545	165.963484	-67.263299	108.604833			
43448	8.416832	0.734935	-2.656191	-0.159936	0.704246	-0.985628	166.146970	-67.180174	108.621157			
43449	8.639400	1.023702	-2.741881	0.104603	0.748134	-0.722338	166.193698	-67.124865	108.720168			
43450	8.478909	1.288164	-2.797245	0.386212	0.670899	-0.825109	166.132318	-67.111201	108.883566			
43451	8.271187	1.503431	-2.737932	0.614276	0.672274	-1.018381	165.989073	-67.101854	109.093175			
43452	8.234338	1.910308	-2.568328	0.999991	0.859663	-1.077076	165.811659	-67.070584	109.316387			
43453	8.272320	2.206155	-2.436973	1.265619	1.027648	-1.061723	165.571625	-67.040763	109.550193			
43454	8.372187	2.359808	-2.291014	1.378985	1.213199	-1.007151	165.260847	-67.026805	109.798184			
43455	8.772923	2.310532	-1.923605	1.237341	1.683634	-0.777351	164.884335	-67.070377	110.050294			
43456	9.112818	2.055702	-1.488342	0.898722	2.162893	-0.647610	164.472148	-67.165205	110.288288			
43457	9.456611	1.693570	-1.247913	0.469033	2.445958	-0.450520	164.064224	-67.288842	110.486647			
43458	9.495502	1.300682	-1.201704	0.064576	2.434824	-0.465613	163.682631	-67.421196	110.641371			
43459	9.260881	0.774247	-1.330594	-0.423266	2.154789	-0.685172	163.364551	-67.536769	110.721497			
43460	9.004385	0.534354	-1.569740	-0.617508	1.803299	-0.857501	163.175332	-67.585618	110.681951			
43461	8.698977	0.329291	-1.826852	-0.768635	1.436564	-1.068346	163.129209	-67.546962	110.495331			
43462	8.920937	0.130869	-2.166536	-0.979451	1.199231	-0.763013	163.225084	-67.427124	110.167493			
43463	9.519267	-0.197554	-2.389405	-1.368864	1.211495	-0.167839	163.474561	-67.268467	109.693470			
43464	10.302102	-0.086536	-2.342169	-1.345690	1.586831	0.545762	163.842919	-67.117152	109.118950			
43465	10.971602	-0.158278	-2.023094	-1.483420	2.159824	1.032978	164.267900	-67.023357	108.493275			
43466	11.260140	-0.354791	-1.750260	-1.682102	2.530361	1.175837	164.765677	-67.031085	107.845294			
43467	11.267554	-0.312850	-1.715142	-1.593710	2.578967	1.178498	165.381505	-67.093798	107.164613			
43468	11.430103	-0.097769	-2.038069	-1.334609	2.358223	1.477477	166.113117	-67.174415	106.411269			
43469	11.712433	0.322302	-2.576319	-0.869955	1.994796	1.985022	166.936524	-67.247238	105.556581			
43470	11.920105	1.113729	-3.231081	-0.014525	1.520017	2.494140	167.843403	-67.305921	104.603969			
43471	11.900502	1.592531	-4.039897	0.561333	0.800918	2.817506	168.736370	-67.332600	103.573996			
43472	12.098538	1.777637	-4.611372	0.816360	0.370026	3.225546	169.586155	-67.317824	102.536645			
43473	12.109198	0.901450	-5.415983	0.025475	-0.397473	3.477129	170.299407	-67.296445	101.591411			
43474	11.820486	-0.054976	-5.960965	-0.841028	-1.028791	3.359024	170.958260	-67.213003	100.792294			
43475	11.974989	-0.994312	-6.800892	-1.728146	-1.740334	3.775007	171.562396	-67.013798	100.174628			
43476	12.445688	-1.706114	-7.420292	-2.420294	-2.091530	4.422261	172.057146	-66.719952	99.743685			
43477	12.588439	-2.058602	-7.932050	-2.742940	-2.434930	4.753391	172.419580	-66.356423	99.467750			
43478	12.525941	-2.081105	-8.463325	-2.729238	-2.842327	4.929406	172.756126	-65.901137	99.255564			
43479	12.391714	-1.221724	-8.686387	-1.836205	-2.950030	4.966527	173.091553	-65.497537	99.058830			
43480	11.517005	-0.632119	-8.774112	-1.170920	-3.289651	4.252626	173.258989	-65.364662	98.901505			
43481	9.859070	0.193946	-8.546643	-0.228754	-3.718801	2.693395	173.447982	-65.475710	98.745482			
43482	8.450306	1.350502	-8.004919	1.028192	-3.777017	1.232085	173.732091	-65.700080	98.551394			
43483	8.104034	2.191021	-7.677303	1.913499	-3.620219	0.800942	174.047356	-65.987163	98.327997			
43484	7.367020	3.159934	-7.039551	2.940686	-3.348453	-0.119756	174.329512	-66.498629	98.134492			
43485	6.251254	3.739691	-6.337746	3.591301	-3.204605	-1.442354	174.510996	-67.207430	98.007889			
43486	5.698778	4.260252	-5.501635	4.132412	-2.711422	-2.298407	174.513453	-67.871190	97.996173			
43487	6.151345	4.020747	-4.780423	3.843612	-1.974082	-2.184656	174.130868	-68.417309	98.153812			
43488	6.743165	3.281728	-3.907562	3.023990	-1.069717	-1.988399	173.385189	-68.887551	98.468428			
43489	7.088441	2.072765	-3.069877	1.741575	-0.293390	-2.012254	172.413619	-69.247584	98.854468			
43490	6.822136	1.209124	-2.365137	0.842896	0.189840	-2.542847	171.312022	-69.451624	99.258202			
43491	6.931316	0.773270	-2.047740	0.357993	0.489616	-2.569327	170.149962	-69.439932	99.589972			
43492	7.348029	0.425303	-2.582003	-0.072895	0.134366	-2.014131	168.987271	-69.235286	99.772679			
43493	7.272708	0.039346	-3.544735	-0.550672	-0.762855	-1.776940	167.865235	-68.972125	99.860669			
43494	7.280901	-0.036583	-4.237604	-0.737785	-1.363687	-1.532259	166.924097	-68.653701	99.866968			
43495	7.474967	0.026224	-4.806900	-0.799830	-1.781152	-1.142665	166.168106	-68.372587	99.843115			
43496	7.480663	0.112587	-5.159773	-0.805888	-2.076046	-1.001528	165.597575	-68.208216	99.862837			
43497	7.328123	-0.024281	-5.372550	-0.997324	-2.302528	-1.079426	165.178640	-68.143912	99.962014			
43498	7.285589	-0.003644	-5.465309	-1.010677	-2.401390	-1.085646	164.909377	-68.153678	100.121214			
43499	7.117683	0.199216	-5.414128	-0.805025	-2.436111	-1.243488	164.739227	-68.210606	100.344556			
43500	7.223012	0.710908	-4.947099	-0.260339	-2.009595	-1.266062	164.631674	-68.279145	100.576294			
43501	7.360957	0.997891	-4.385993	0.068400	-1.469355	-1.312528	164.494880	-68.361956	100.817013			
43502	7.652544	1.146121	-3.790665	0.247205	-0.832703	-1.240078	164.309635	-68.441985	101.055901			
43503	8.003944	1.258388	-3.299808	0.370169	-0.272573	-1.076325	164.019405	-68.549138	101.334120			
43504	8.118209	1.386947	-3.204394	0.482122	-0.172560	-0.990286	163.582162	-68.678145	101.686566			
43505	8.145378	1.478370	-3.191369	0.547516	-0.182863	-0.959199	162.986290	-68.806980	102.124852			
43506	8.042621	1.609491	-3.325320	0.641037	-0.377984	-0.993502	162.332061	-68.898872	102.593925			
43507	8.024342	1.751325	-3.437256	0.736204	-0.518443	-0.954865	161.642869	-68.935929	103.081353			
43508	8.063257	1.847743	-3.445004	0.790664	-0.534308	-0.902718	160.970100	-68.965579	103.579018			
43509	7.893339	1.958840	-3.267798	0.900594	-0.451874	-1.106081	160.363679	-69.012340	104.067331			
43510	8.194284	1.878396	-2.958507	0.801277	-0.065615	-0.936821	159.873868	-69.038065	104.479263			
43511	8.447576	1.867717	-2.587974	0.789972	0.360081	-0.824151	159.581815	-69.060539	104.786138			
43512	8.623219	1.981873	-2.315347	0.906728	0.662828	-0.735955	159.459809	-69.068903	104.978659			
43513	8.883160	2.066389	-2.049513	0.991863	0.994549	-0.571038	159.452792	-69.067855	105.059311			
43514	8.807256	2.212633	-1.931520	1.156890	1.068813	-0.663178	159.501785	-69.083277	105.087272			
43515	8.776912	2.240342	-1.815917	1.202440	1.162888	-0.726836	159.547619	-69.109436	105.067003			
43516	8.768487	2.229712	-1.864939	1.190291	1.110845	-0.719547	159.562754	-69.141728	105.016928			
43517	8.669086	2.143464	-1.903816	1.111611	1.037609	-0.809372	159.498822	-69.203215	104.985974			
43518	8.662412	1.934142	-1.915688	0.903625	1.025852	-0.836095	159.375683	-69.282977	104.966184			
43519	8.458967	1.650339	-1.933292	0.638360	0.943729	-1.053852	159.222821	-69.388512	104.955022			
43520	8.289798	1.705046	-1.877555	0.713153	0.914966	-1.221566	159.076396	-69.493959	104.948906			
43521	8.177785	1.689606	-1.835598	0.712121	0.898970	-1.340081	158.941030	-69.596055	104.940952			
43522	8.228457	1.690846	-1.580545	0.739419	1.137421	-1.373250	158.817074	-69.697438	104.941915			
43523	8.022993	1.665317	-1.444554	0.750103	1.181167	-1.610822	158.735999	-69.803360	104.952059			
43524	7.710529	1.811714	-1.381043	0.932419	1.109846	-1.904421	158.714847	-69.881556	104.938747			
43525	7.665569	1.568649	-1.346360	0.703356	1.140057	-1.987098	158.733170	-69.931697	104.896739			
43526	7.369176	1.418128	-1.496984	0.565399	0.911262	-2.235965	158.834844	-69.932114	104.828613			
43527	7.440493	1.399777	-1.616961	0.531284	0.831990	-2.134121	159.069890	-69.842259	104.675596			
43528	7.766560	1.280061	-1.905829	0.355371	0.700592	-1.752103	159.349564	-69.679720	104.469626			
43529	8.422439	1.272799	-1.899739	0.299342	0.957837	-1.143239	159.676421	-69.472060	104.228044			
43530	9.233873	1.306073	-1.714277	0.292922	1.442599	-0.445620	160.018755	-69.246485	103.967471			
43531	9.934144	1.374137	-1.663672	0.315134	1.765402	0.193669	160.344687	-69.041421	103.739228			
43532	10.587369	1.672092	-1.422459	0.591540	2.233070	0.750220	160.673954	-68.859068	103.548662			
43533	11.173223	1.880303	-1.222223	0.779000	2.644526	1.244881	160.973947	-68.723749	103.432567			
43534	11.519341	2.243820	-1.383140	1.097253	2.618698	1.658207	161.258618	-68.636696	103.419163			
43535	11.490222	2.815303	-1.687763	1.636600	2.310617	1.796887	161.522309	-68.566529	103.498046			
43536	11.460615	2.931351	-2.462109	1.675102	1.602298	2.045941	161.694369	-68.453571	103.681813			
43537	11.779153	2.873230	-3.359371	1.497849	0.925133	2.644827	161.773834	-68.272406	103.955007			
43538	12.384923	2.325298	-4.266698	0.800438	0.376557	3.461923	161.636407	-68.049123	104.377385			
43539	13.016256	2.135582	-4.640625	0.485684	0.310645	4.158223	161.271856	-67.860970	104.963874			
43540	13.170607	2.065185	-4.662721	0.345778	0.375318	4.301493	160.688206	-67.747140	105.690447			
43541	12.644472	2.437753	-5.016942	0.680493	-0.152733	3.989789	160.075195	-67.678215	106.419857			
43542	12.036874	2.755856	-6.008767	0.923856	-1.306026	3.826481	159.484081	-67.602288	107.017680			
43543	11.523913	3.052780	-6.859986	1.149789	-2.291886	3.700433	158.928469	-67.509241	107.475600			
43544	11.768472	3.549261	-7.016465	1.542896	-2.354171	4.058218	158.473620	-67.353828	107.754313			
43545	11.706563	3.517163	-7.334924	1.437375	-2.648511	4.120519	158.147455	-67.179676	107.907792			
43546	10.942450	3.652823	-7.275329	1.624710	-2.857678	3.423800	157.889202	-67.046896	108.024874			
43547	9.650392	3.375430	-7.059028	1.491235	-3.112471	2.122225	157.598858	-66.968564	108.176937			
43548	8.510105	2.598487	-6.593523	0.873492	-3.066624	0.793033	157.244986	-66.905532	108.373726			
43549	7.592801	1.624859	-6.203961	0.028227	-2.996609	-0.336436	156.847206	-66.798970	108.594197			
43550	7.150125	0.364768	-6.191354	-1.200271	-3.068492	-0.939488	156.433333	-66.563934	108.776168			
43551	7.075444	-0.890026	-6.175297	-2.477535	-2.980539	-1.212329	155.920264	-66.288181	108.973540			
43552	7.312150	-2.089350	-6.098001	-3.738139	-2.712683	-1.228643	155.326425	-66.081283	109.226683			
43553	7.602788	-2.741893	-5.905786	-4.449870	-2.356615	-1.161479	154.706058	-65.999100	109.533201			
43554	7.796281	-2.707741	-5.467282	-4.427013	-1.874220	-1.158567	154.238789	-66.068547	109.792854			
43555	7.563578	-2.312214	-5.203450	-3.988724	-1.762025	-1.409400	154.047198	-66.227511	109.929854			
43556	7.522785	-1.580599	-4.930711	-3.220354	-1.601317	-1.418195	154.224278	-66.382046	109.909443			
43557	7.877384	-0.765326	-4.693139	-2.403386	-1.327920	-1.030626	154.771955	-66.513600	109.763979			
43558	8.157181	0.134045	-4.658527	-1.493397	-1.265557	-0.624265	155.637797	-66.640882	109.533940			
43559	8.334217	1.080036	-4.565683	-0.495808	-1.172432	-0.333760	156.699921	-66.772782	109.234573			
43560	8.321552	1.543558	-4.421071	0.063914	-1.062573	-0.323594	157.788267	-66.914764	108.898962			
43561	8.327713	1.794609	-4.103831	0.420373	-0.770768	-0.397724	158.830771	-67.059867	108.545556			
43562	8.292549	1.653108	-3.916836	0.369220	-0.606001	-0.520926	159.701329	-67.197859	108.205934			
43563	8.124193	1.219060	-3.851174	0.018476	-0.603460	-0.759761	160.360117	-67.289251	107.912870			
43564	7.738717	0.902210	-4.000968	-0.219801	-0.879042	-1.101295	160.849907	-67.289407	107.626280			
43565	7.385547	0.836583	-4.113271	-0.227044	-1.099568	-1.392204	161.185589	-67.190395	107.333212			
43566	7.402422	0.799024	-4.122350	-0.259314	-1.077597	-1.374706	161.374171	-67.015182	107.049152			
43567	7.389761	0.758474	-4.206875	-0.304460	-1.132038	-1.356484	161.482129	-66.827506	106.803947			
43568	7.518677	0.892415	-4.291012	-0.194576	-1.132565	-1.186039	161.607826	-66.638540	106.590314			
43569	7.822956	1.161446	-4.269084	0.040276	-0.973051	-0.878249	161.794184	-66.517516	106.399099			
43570	8.032763	1.310716	-3.964433	0.192311	-0.597715	-0.781313	162.074576	-66.501865	106.214321			
43571	8.165465	1.208602	-3.660615	0.113473	-0.262969	-0.787525	162.455030	-66.558970	106.002989			
43572	8.226737	1.126539	-3.508510	0.062779	-0.104977	-0.799205	162.927344	-66.686542	105.750119			
43573	8.155079	1.042848	-3.271237	0.033690	0.070909	-0.964664	163.430350	-66.884005	105.454585			
43574	7.602456	0.708076	-3.255708	-0.204076	-0.144441	-1.515960	163.943374	-67.069791	105.116534			
43575	7.415127	0.407819	-3.074337	-0.443546	-0.059329	-1.787624	164.487703	-67.142551	104.725375			
43576	7.592902	-0.030656	-2.968219	-0.864868	0.107646	-1.706901	165.012851	-67.098454	104.309770			
43577	7.802510	-0.318448	-2.696810	-1.139574	0.452934	-1.642651	165.484114	-66.974380	103.934196			
43578	7.983678	-0.493524	-2.449813	-1.305769	0.772222	-1.585729	165.873504	-66.825454	103.637809			
43579	8.133486	-0.424162	-2.229706	-1.232490	1.058454	-1.526212	166.158547	-66.661658	103.443585			
43580	8.378287	-0.370695	-2.178019	-1.194361	1.227252	-1.318915	166.356173	-66.482876	103.352441			
43581	8.484320	-0.205163	-2.336216	-1.042758	1.149004	-1.148041	166.448492	-66.327685	103.396766			
43582	8.472290	0.106507	-2.565995	-0.741526	0.958763	-1.043066	166.455973	-66.181543	103.568644			
43583	8.489241	0.381503	-2.814736	-0.484070	0.760338	-0.906340	166.384150	-66.049186	103.846931			
43584	8.463118	0.568367	-2.796270	-0.308783	0.785926	-0.921485	166.255563	-65.950663	104.208653			
43585	8.536697	0.683561	-2.594889	-0.215470	1.013233	-0.924336	166.085632	-65.867352	104.609596			
43586	8.622938	0.815709	-2.341163	-0.109840	1.293463	-0.934831	165.893045	-65.785464	105.028301			
43587	8.678699	0.825790	-2.174950	-0.126946	1.476737	-0.950676	165.652477	-65.700013	105.465590			
43588	8.861688	0.815579	-1.823629	-0.181711	1.878601	-0.926851	165.364209	-65.618854	105.924927			
43589	8.883595	0.683611	-1.733607	-0.343327	1.968814	-0.958490	165.054135	-65.550958	106.401990			
43590	8.938480	0.578211	-1.703793	-0.483946	2.017200	-0.934046	164.737674	-65.466966	106.893540			
43591	8.891677	0.523792	-1.755764	-0.562321	1.952301	-0.964454	164.425650	-65.388910	107.390030			
43592	8.969146	0.468623	-2.035670	-0.654951	1.727961	-0.790811	164.125755	-65.300030	107.883589			
43593	9.040014	0.485749	-2.415356	-0.673406	1.412947	-0.574626	163.815853	-65.225462	108.388015			
43594	9.081415	0.557213	-2.649007	-0.634317	1.220604	-0.436786	163.490252	-65.173016	108.894358			
43595	9.171691	0.606882	-2.756563	-0.624575	1.158257	-0.307155	163.139046	-65.138117	109.395581			
43596	9.360388	0.650764	-2.814285	-0.634112	1.178570	-0.108597	162.821467	-65.111014	109.851600			
43597	9.429548	0.698377	-2.773426	-0.621392	1.240128	-0.057078	162.559327	-65.109433	110.255362			
43598	9.598971	0.771794	-2.657774	-0.594484	1.409918	0.059412	162.357472	-65.125464	110.590705			
43599	9.743780	0.873622	-2.462265	-0.533329	1.643553	0.126200	162.204675	-65.163307	110.855417			
43600	10.107490	1.158047	-2.127633	-0.323191	2.104641	0.360576	162.116498	-65.211499	111.037819			
43601	10.321382	1.357565	-2.034556	-0.164849	2.276140	0.546141	162.048605	-65.296642	111.169477			
43602	10.538309	1.836509	-1.581931	0.264824	2.799732	0.628700	162.040536	-65.385028	111.231828			
43603	10.832438	2.148426	-1.316197	0.526899	3.165263	0.835940	162.045706	-65.513283	111.252696			
43604	10.999393	2.470024	-1.006149	0.820840	3.516108	0.914061	162.047782	-65.679447	111.254506			
43605	10.760199	2.138631	-1.290233	0.546878	3.107329	0.773420	162.024681	-65.833697	111.265293			
43606	10.569978	2.043170	-2.165548	0.511781	2.199441	0.933897	162.013860	-65.923358	111.279331			
43607	10.319858	2.101956	-3.191620	0.636715	1.154634	1.112766	161.974568	-65.929876	111.288527			
43608	10.792300	1.792009	-4.176582	0.280972	0.411034	1.886925	161.949639	-65.806240	111.154677			
43609	11.773868	1.587544	-4.198328	-0.076533	0.781287	2.763235	161.950228	-65.608659	110.850769			
43610	12.895089	-0.092496	-5.148025	-1.898777	0.270336	3.939228	161.977729	-65.365678	110.409668			
43611	12.682369	-1.397778	-6.493915	-3.158405	-1.062241	4.110774	162.123032	-65.114047	109.948639			
43612	12.251880	-1.560814	-8.087591	-3.255423	-2.624115	4.346040	162.389787	-64.851070	109.592238			
43613	12.203495	-1.426553	-8.983945	-3.111594	-3.387734	4.696364	162.582456	-64.643818	109.406673			
43614	12.169542	-2.088800	-9.488323	-3.757865	-3.854477	4.799309	162.725837	-64.500257	109.281580			
43615	10.946011	-1.879351	-9.864986	-3.347347	-4.648483	3.893210	163.156374	-64.378613	109.140019			
43616	10.606793	-0.560773	-9.615825	-1.922322	-4.424480	3.678422	163.977866	-64.132366	108.851109			
43617	10.417632	0.426311	-9.427108	-0.824597	-4.198143	3.576626	164.783511	-63.996057	108.562264			
43618	10.058478	0.722249	-8.993300	-0.392483	-3.901276	3.117866	165.541364	-64.064426	108.262704			
43619	9.082697	1.446566	-8.414218	0.546784	-3.730777	2.068729	166.339733	-64.370336	107.983507			
43620	7.993103	2.522285	-7.373935	1.823300	-3.183078	0.730963	167.052717	-64.948022	107.781097			
43621	6.732937	3.337232	-6.250147	2.824911	-2.662346	-0.842496	167.545314	-65.687166	107.631734			
43622	5.476509	3.748721	-5.443429	3.403102	-2.459433	-2.326366	167.835702	-66.476962	107.500769			
43623	4.363710	4.361762	-4.883453	4.142567	-2.383214	-3.561787	167.885775	-67.186198	107.396369			
43624	3.575393	4.427235	-4.274818	4.264114	-2.181894	-4.548273	167.576575	-67.720452	107.357575			
43625	3.711484	3.292102	-4.017486	3.086990	-2.074722	-4.624344	166.978765	-67.980258	107.391646			
43626	4.732496	2.473255	-3.321801	2.087976	-1.181536	-3.999598	166.257021	-68.005188	107.521785			
43627	6.237935	1.824502	-2.468502	1.199261	0.074230	-2.965041	165.438339	-67.922197	107.683950			
43628	7.222111	1.104153	-2.130566	0.323735	0.681568	-2.239848	164.608042	-67.805757	107.802637			
43629	7.798227	0.681991	-2.261791	-0.196545	0.747326	-1.701221	163.856466	-67.621587	107.847302			
43630	8.435536	0.379075	-2.910968	-0.607864	0.382935	-0.909917	163.214638	-67.366722	107.795805			
43631	9.013792	0.119858	-3.947783	-0.985352	-0.338716	-0.026893	162.722958	-67.075465	107.623340			
43632	9.283284	-0.078656	-5.087646	-1.281860	-1.249480	0.621146	162.436994	-66.781596	107.348681			
43633	9.478094	-0.074562	-6.048501	-1.367099	-2.010234	1.165192	162.358858	-66.521855	107.028695			
43634	9.599962	-0.141029	-6.535642	-1.485551	-2.368760	1.460102	162.464668	-66.366629	106.721165			
43635	9.609255	-0.121516	-6.539605	-1.463296	-2.348299	1.477274	162.700972	-66.375677	106.491914			
43636	9.234805	-0.039536	-6.018842	-1.292464	-2.023847	0.945705	163.006276	-66.562805	106.368892			
43637	8.557245	0.187863	-5.301223	-0.925299	-1.660091	0.074283	163.325412	-66.913020	106.351852			
43638	7.975798	0.957524	-4.264856	-0.024057	-0.964646	-0.769037	163.626232	-67.349324	106.388811			
43639	7.546532	1.531563	-3.368139	0.646549	-0.337189	-1.439628	163.772515	-67.792404	106.500912			
43640	7.212515	1.848396	-2.871491	1.024597	-0.040008	-1.898725	163.702064	-68.167846	106.721377			
43641	7.029520	1.890713	-2.596458	1.093295	0.109211	-2.162642	163.388384	-68.446051	107.066279			
43642	7.250520	2.127370	-2.501741	1.294740	0.250306	-1.963142	162.899948	-68.573912	107.503373			
43643	7.471763	2.286023	-2.713038	1.401063	0.111258	-1.661721	162.232314	-68.627021	108.035247			
43644	7.571049	2.518246	-2.910658	1.582789	-0.049877	-1.468442	161.485316	-68.601596	108.612185			
43645	7.652718	2.315097	-3.300508	1.322023	-0.401337	-1.274062	160.702553	-68.523592	109.189107			
43646	8.103474	2.133826	-3.395705	1.041502	-0.338040	-0.837658	160.059755	-68.379363	109.658391			
43647	8.541867	1.728713	-3.559685	0.540546	-0.339075	-0.420350	159.544096	-68.244615	110.039000			
43648	8.975323	1.403534	-3.519175	0.132395	-0.145173	-0.072448	159.213436	-68.130456	110.304243			
43649	9.496464	0.981816	-3.438407	-0.371992	0.112866	0.327248	158.990669	-68.080826	110.498402			
43650	9.507890	0.928597	-3.284246	-0.433610	0.256786	0.276642	158.820750	-68.121861	110.680677			
43651	9.427581	1.195289	-3.052184	-0.155882	0.434706	0.157796	158.698778	-68.228390	110.837463			
43652	9.138201	1.558708	-2.912440	0.247545	0.447932	-0.109255	158.588465	-68.383786	110.979759			
43653	9.088248	1.865574	-2.752251	0.567201	0.556739	-0.168013	158.488710	-68.572018	111.081520			
43654	8.925206	2.120396	-2.680650	0.850030	0.537768	-0.308510	158.381402	-68.803409	111.172077			
43655	8.665710	2.346956	-2.501856	1.123258	0.580798	-0.578901	158.280845	-69.079174	111.243257			
43656	8.344764	2.639310	-2.223437	1.474299	0.696322	-0.930903	158.182733	-69.383208	111.331111			
43657	8.192312	2.678515	-1.946875	1.554558	0.859562	-1.156879	158.088380	-69.711844	111.349028			
43658	7.813947	2.850025	-1.676044	1.795689	0.945354	-1.574295	157.997270	-70.058613	111.341445			
43659	7.465708	2.826921	-1.324010	1.842704	1.118810	-2.013086	157.915935	-70.389257	111.280556			
43660	7.065098	2.623173	-1.226135	1.707062	1.042869	-2.443952	157.876997	-70.669198	111.183583			
43661	6.700532	2.470548	-1.110801	1.617092	1.005430	-2.840697	157.890316	-70.877364	110.978420			
43662	6.588654	2.078689	-1.070107	1.254840	0.987845	-3.006371	157.980739	-71.003212	110.721570			
43663	6.766866	1.888619	-0.953750	1.062904	1.140249	-2.896254	158.145971	-71.075170	110.376915			
43664	6.809640	1.509469	-1.125533	0.686745	0.986828	-2.850571	158.392258	-71.108055	110.014205			
43665	6.972563	1.211976	-1.362488	0.376923	0.815888	-2.661874	158.771084	-71.081409	109.527703			
43666	7.245095	1.020127	-1.893181	0.148397	0.407326	-2.267608	159.263694	-71.015823	108.987313			
43667	7.917275	0.686204	-2.427708	-0.260434	0.129079	-1.508272	159.828433	-70.905324	108.340870			
43668	8.495777	0.477041	-2.858886	-0.525665	-0.073549	-0.851817	160.450075	-70.804565	107.703882			
43669	9.418966	0.170687	-2.931930	-0.898213	0.176250	0.010972	161.087375	-70.718095	107.053008			
43670	10.882043	0.093866	-2.673488	-1.071311	0.907704	1.305021	161.735710	-70.661489	106.507066			
43671	12.339477	-0.340743	-2.559640	-1.597421	1.495944	2.602659	162.354316	-70.690823	106.095793			
43672	12.813393	-0.533264	-2.381955	-1.784789	1.801040	2.982298	162.957514	-70.850386	105.903933			
43673	13.096684	-0.778673	-2.092575	-2.005375	2.115911	3.149150	163.519218	-71.124145	105.885572			
43674	12.715088	-0.451356	-1.768958	-1.600063	2.221643	2.737589	164.038239	-71.577053	106.028614			
43675	12.001820	-0.297640	-1.777613	-1.348996	1.887414	2.099857	164.416269	-72.133596	106.328993			
43676	11.395437	-0.201831	-2.085420	-1.169408	1.302106	1.640765	164.661763	-72.664202	106.745518			
43677	11.248233	0.143803	-2.902036	-0.777755	0.392592	1.772025	164.678026	-73.060297	107.354698			
43678	11.878766	1.341944	-3.227658	0.378801	0.241509	2.561544	164.444164	-73.324713	108.188903			
43679	12.711838	3.144652	-2.949778	2.078234	0.790259	3.425028	163.929034	-73.562291	109.319785			
43680	12.555946	4.823469	-3.190388	3.744494	0.603103	3.480585	163.222041	-73.771954	110.706647			
43681	12.083485	6.113984	-4.201680	5.094472	-0.378655	3.414113	162.477877	-73.823171	112.191580			
43682	13.102163	7.685436	-4.804253	6.538032	-0.476257	4.707622	161.729330	-73.624305	113.625621			
43683	13.716848	7.846491	-5.627787	6.614483	-0.999177	5.570427	160.698894	-73.367559	115.021735			
43684	12.186657	6.685050	-6.442628	5.615131	-2.252598	4.262350	159.445502	-73.049032	116.231507			
43685	10.303748	5.375436	-7.075925	4.484413	-3.467279	2.556511	158.137558	-72.536300	117.105594			
43686	9.283729	4.572340	-7.190378	3.671508	-3.908748	1.590551	156.621897	-71.919773	117.832622			
43687	8.359618	3.499525	-7.005867	2.538217	-4.077379	0.586386	154.840353	-71.349042	118.563804			
43688	7.486488	2.461440	-6.707207	1.430039	-4.117041	-0.426834	152.997280	-70.814515	119.250855			
43689	6.970431	1.027007	-6.849243	-0.100296	-4.478212	-1.067052	151.204356	-70.353485	119.897360			
43690	6.703268	-0.229779	-6.532896	-1.473649	-4.284689	-1.619231	149.572613	-69.997450	120.462691			
43691	6.381673	-2.359625	-6.191418	-3.655516	-4.075437	-2.419887	148.060785	-69.833021	120.979484			
43692	5.849291	-3.915557	-5.519148	-5.163946	-3.569232	-3.440846	147.033769	-69.845588	121.314130			
43693	5.737777	-4.182181	-4.428616	-5.389309	-2.536316	-3.934952	146.719620	-69.991549	121.287600			
43694	6.154613	-4.234112	-3.996054	-5.483386	-1.998096	-3.671400	147.178949	-70.225940	120.796068			
43695	6.868741	-3.558852	-4.112513	-4.899807	-1.925367	-2.809693	148.517597	-70.539262	119.807913			
43696	7.511031	-1.423850	-4.269086	-2.810276	-1.925402	-1.746607	150.547267	-70.910549	118.487250			
43697	7.686246	0.659798	-4.262930	-0.644785	-1.877725	-1.225317	152.693673	-71.347441	117.117697			
43698	8.430986	1.697965	-3.608949	0.428759	-1.029943	-0.552936	154.752620	-71.731035	115.853792			
43699	10.127585	2.437091	-2.637896	1.072999	0.405338	0.871352	156.922428	-72.091412	114.736175			
43700	10.794073	3.366121	-2.393428	2.038150	0.879850	1.529343	158.936867	-72.503930	113.813823			
43701	10.307083	3.300729	-3.054961	2.168782	0.100495	1.221299	160.289329	-72.942827	113.126088			
43702	9.791588	2.060803	-3.657597	1.106868	-0.728314	0.758224	161.173721	-73.174011	112.461556			
43703	9.044490	1.791063	-4.306696	0.994250	-1.580510	0.190900	161.666325	-73.205374	111.807970			
43704	8.910913	1.656916	-5.104802	0.906728	-2.385815	0.271676	161.696094	-73.078784	111.220726			
43705	9.149284	1.814072	-5.460929	0.999053	-2.637712	0.621195	161.349412	-72.838333	110.678671			
43706	8.746671	1.831857	-5.550420	0.970856	-2.818481	0.275908	160.651887	-72.575063	110.211507			
43707	7.892002	1.874862	-5.152967	0.993759	-2.666218	-0.633659	159.851707	-72.284876	109.724639			
43708	7.889695	1.617306	-4.693436	0.645152	-2.209003	-0.779718	159.220961	-71.920910	109.090745			
43709	8.262535	1.425173	-4.266947	0.355140	-1.653616	-0.558155	158.902230	-71.568712	108.303180			
