// General information: 
//  MT Manager version: 2022.0.0 
//  XDA version: 2022.0.0 build 7085 rev 119802 built on 2022-11-08
// Device information: 
//  DeviceId: 00B492A8
//  ProductCode: MTW2-3A7G6
//  Firmware Version: 4.6.0
//  Hardware Version: 2.0.0
// Device settings: 
//  Filter Profile: human(46.1)
//  Option Flags: Orientation Smoother Disabled, Position/Velocity Smoother Disabled, Continuous Zero Rotation Update Disabled, AHS Disabled, ICC Disabled
// Coordinate system: ENU
PacketCounter	Acc_X	Acc_Y	Acc_Z	FreeAcc_E	FreeAcc_N	FreeAcc_U	Roll	Pitch	Yaw	Vel_E	Vel_N	Vel_U
42709	9.204015	1.242055	-2.882357	0.988991	0.405258	-0.147170	176.091163	-70.608800	98.306493			
42710	9.384472	1.467330	-2.864331	1.211529	0.512842	0.020671	176.261004	-70.559245	98.348756			
42711	9.304567	1.770464	-2.788919	1.515511	0.596245	-0.074346	176.324996	-70.520985	98.496999			
42712	9.142195	1.860051	-2.478110	1.587980	0.854145	-0.329582	176.327831	-70.479168	98.625227			
42713	9.012706	1.807266	-2.336847	1.531497	0.949753	-0.500952	176.418991	-70.415309	98.511326			
42714	9.084092	1.236034	-2.781922	1.000686	0.514138	-0.298389	176.605425	-70.341946	98.103947			
42715	9.100001	0.373828	-2.944850	0.165651	0.301169	-0.246929	176.847492	-70.303464	97.551404			
42716	9.234253	-0.297577	-2.824634	-0.501296	0.413446	-0.173380	177.152842	-70.277687	96.969630			
42717	9.244384	-0.683550	-3.105326	-0.852405	0.133728	-0.074904	177.383296	-70.246990	96.558440			
42718	9.129520	-0.406915	-3.080844	-0.563986	0.147390	-0.186395	177.510258	-70.199183	96.374313			
42719	9.112331	0.124140	-3.034744	-0.030288	0.231819	-0.210345	177.630136	-70.145298	96.269990			
42720	9.222472	0.436886	-2.964964	0.280254	0.365494	-0.126422	177.785782	-70.100182	96.074588			
42721	9.130946	0.075606	-3.146837	-0.054929	0.146668	-0.155673	178.020282	-70.064219	95.745707			
42722	8.639717	-0.121670	-3.345273	-0.211272	-0.212988	-0.551998	178.230452	-70.037583	95.482773			
42723	8.187856	0.132070	-3.318306	0.065131	-0.317479	-0.982935	178.414268	-69.991489	95.340733			
42724	8.297176	0.511698	-3.268854	0.446731	-0.200639	-0.893577	178.601194	-69.952154	95.235008			
42725	8.147286	0.668936	-3.102511	0.608266	-0.078555	-1.090581	178.809762	-69.927289	95.108242			
42726	8.295231	0.641639	-3.458262	0.606535	-0.354050	-0.829988	178.913187	-69.851000	95.072913			
42727	8.746915	0.671140	-3.613721	0.634927	-0.328372	-0.351876	178.938352	-69.762631	95.104550			
42728	8.802395	0.431255	-3.687698	0.398430	-0.380416	-0.275195	178.947462	-69.670013	95.087326			
42729	8.781398	-0.187026	-3.680965	-0.218982	-0.409988	-0.300518	178.961829	-69.577381	94.983074			
42730	9.026536	-0.885898	-3.552339	-0.930009	-0.237212	-0.119336	179.071888	-69.494614	94.750417			
42731	9.275603	-1.592017	-3.478128	-1.637556	-0.113558	0.085504	179.294174	-69.446681	94.394502			
42732	9.182157	-2.284736	-3.597016	-2.305252	-0.290133	0.039833	179.571080	-69.422787	93.990412			
42733	9.300251	-2.888347	-3.859863	-2.879104	-0.521306	0.245878	179.858574	-69.385861	93.666957			
42734	9.928134	-3.360919	-4.173623	-3.332331	-0.614635	0.948378	-179.962344	-69.312499	93.640982			
42735	10.585604	-3.023074	-3.980635	-3.011668	-0.183027	1.498183	-179.868890	-69.249103	93.996704			
42736	10.305857	-1.959934	-3.461579	-1.973341	0.267180	1.053273	-179.733644	-69.190907	94.566863			
42737	9.892114	-0.912151	-3.595461	-0.901876	0.078282	0.713174	-179.620342	-69.119150	95.269930			
42738	9.541145	0.119623	-3.527913	0.133886	0.123034	0.358884	-179.546079	-69.076306	95.988972			
42739	9.107685	1.023206	-3.020411	0.993717	0.553000	-0.230075	-179.500306	-69.061177	96.596307			
42740	8.935960	1.558210	-2.178212	1.428803	1.354303	-0.694115	-179.420557	-69.020508	96.963680			
42741	9.066369	1.631112	-2.345191	1.513936	1.275972	-0.515411	-179.280934	-68.910518	96.982820			
42742	9.152158	1.185571	-2.666564	1.115237	0.966115	-0.320533	-179.134042	-68.843084	96.700342			
42743	9.189755	0.614870	-2.413470	0.523745	1.142449	-0.374732	-179.169046	-68.837918	96.395167			
42744	9.098245	0.150699	-2.210296	0.047331	1.240737	-0.531281	-179.228354	-68.803855	96.058851			
42745	9.148227	-0.566010	-2.984510	-0.579666	0.469972	-0.202235	-179.318735	-68.701786	95.788850			
42746	8.735681	-0.634751	-3.778083	-0.560513	-0.401104	-0.298812	-179.567786	-68.582739	95.759856			
42747	8.221996	-0.137982	-4.018189	-0.048226	-0.736831	-0.690147	179.989307	-68.448666	95.962902			
42748	8.111776	0.274037	-3.520754	0.288529	-0.255936	-0.973973	179.554853	-68.306777	96.117318			
42749	8.165955	-0.016794	-3.498079	-0.033531	-0.221461	-0.931845	179.130749	-68.116544	96.101975			
42750	8.355018	-0.715363	-3.894963	-0.740172	-0.553724	-0.613008	178.514144	-67.934577	96.215914			
42751	8.590321	-0.916329	-4.179727	-0.988457	-0.721001	-0.293969	177.412831	-67.809041	96.901067			
42752	9.155583	0.144034	-3.787076	-0.064758	-0.057938	0.095853	176.061998	-67.791067	98.023142			
42753	9.471977	1.674188	-2.948754	1.296749	0.921353	0.121335	174.285116	-67.941791	99.242705			
42754	9.380844	1.203647	-1.942875	0.691856	1.726674	-0.338365	172.541775	-68.193188	100.173040			
42755	8.561194	0.189225	-1.138855	-0.341387	2.075485	-1.433987	171.821721	-68.272980	100.288152			
42756	8.059277	-0.335862	-2.035007	-0.830704	1.050276	-1.602169	171.260373	-67.975711	100.117550			
42757	8.620505	-0.958685	-2.855982	-1.505096	0.541154	-0.822141	170.929558	-67.490910	99.759711			
42758	9.347071	-1.568691	-3.600146	-2.191104	0.200918	0.084156	170.587801	-67.064629	99.535825			
42759	9.510949	-1.621800	-3.721219	-2.292502	0.221517	0.268526	170.075562	-66.827697	99.618328			
42760	8.663048	-1.701873	-2.629095	-2.322516	0.944667	-0.948700	169.970222	-66.561647	99.657704			
42761	8.773506	-0.588484	-2.442396	-1.232883	1.223145	-0.853363	169.786870	-66.113003	99.796061			
42762	9.221391	-0.223018	-3.041894	-0.933008	0.931124	-0.189862	169.680094	-65.609164	99.740869			
42763	9.053916	-0.481481	-3.068831	-1.191870	0.916379	-0.359531	169.751823	-65.174867	99.547753			
42764	8.705287	-0.566186	-2.462172	-1.235203	1.397513	-0.942195	169.960143	-64.729043	99.221989			
42765	8.539666	-0.631661	-2.429482	-1.278322	1.441026	-1.122703	170.324992	-64.151730	98.718205			
42766	8.296146	-0.915677	-3.460780	-1.563259	0.506982	-0.927887	170.762583	-63.487062	98.224402			
42767	8.553569	-0.916531	-3.770303	-1.579289	0.449369	-0.564889	171.077216	-62.846284	98.027684			
42768	8.348582	-0.521886	-3.422233	-1.171258	0.761029	-0.883455	170.924025	-62.267919	98.366613			
42769	8.498707	0.301876	-3.486019	-0.399420	0.867626	-0.671670	170.539554	-61.621900	99.017092			
42770	8.963202	1.248447	-3.398900	0.461290	1.279080	-0.241902	170.224645	-60.913794	99.672906			
42771	9.068468	1.986659	-3.081346	1.138952	1.733149	-0.253589	169.795914	-60.261047	100.266907			
42772	8.935694	2.078206	-2.910167	1.186810	1.906884	-0.453775	169.200285	-59.757744	100.627891			
42773	9.150837	1.210246	-2.741834	0.257078	2.199570	-0.441690	168.555495	-59.375825	100.643446			
42774	9.125707	-0.377310	-3.077974	-1.372399	1.926236	-0.469210	167.984252	-59.077486	100.532364			
42775	9.087179	-0.953143	-2.739094	-1.954526	2.247536	-0.750895	167.560327	-58.825987	100.495853			
42776	9.845035	-0.566684	-2.396819	-1.655248	2.969047	-0.250513	167.016479	-58.576631	100.730480			
42777	10.706132	0.203220	-2.274272	-1.016015	3.541546	0.495547	166.405161	-58.388970	101.164480			
42778	10.974247	0.432723	-2.006139	-0.842835	3.921509	0.606392	166.056472	-58.325218	101.466132			
42779	10.766702	0.071918	-1.237857	-1.151954	4.477274	-0.010325	165.749332	-58.321856	101.648193			
42780	10.466021	-0.723839	-1.209301	-1.932520	4.350357	-0.385936	165.194221	-58.334960	101.907684			
42781	10.116038	-1.127792	-1.448258	-2.346088	3.975239	-0.625913	164.578392	-58.259697	102.146130			
42782	11.624867	-1.897240	-3.809426	-3.529163	2.762354	1.726928	163.986605	-58.077850	102.505756			
42783	12.946789	-0.226794	-2.358534	-1.955032	4.669941	2.336496	163.470963	-58.005249	102.943226			
42784	13.703890	-0.286110	-1.812886	-2.115235	5.527001	2.683018	162.760989	-57.969163	103.402701			
42785	14.431190	-0.948959	-1.747571	-2.914924	5.953299	3.159392	162.178964	-58.069237	103.838431			
42786	13.444712	-0.701631	0.042938	-2.405384	6.937649	1.471696	161.861436	-58.223500	104.190542			
42787	14.125949	-0.475742	0.059606	-2.308877	7.264629	2.089681	161.232769	-58.266892	104.572788			
42788	14.976558	-1.504758	-0.259058	-3.518138	7.412291	2.809073	160.678409	-58.452706	105.049032			
42789	15.559462	-0.999203	1.234950	-2.994540	8.899045	2.695646	160.201793	-58.847070	105.705730			
42790	15.750347	-1.162897	2.760798	-3.096402	10.190644	2.170948	159.605182	-59.404593	106.562686			
42791	16.810365	-1.055488	5.102110	-3.016075	12.567409	2.132560	158.988030	-60.239907	107.682399			
42792	17.010303	-1.560592	8.546822	-3.389586	15.421116	0.934626	158.526315	-61.797494	109.065345			
42793	11.512801	0.094153	6.754290	-1.214884	11.081861	-2.472505	157.824910	-63.283832	110.418736			
42794	11.332769	-1.030891	2.397902	-2.652595	6.861774	-0.805970	157.161640	-64.159445	111.327167			
42795	13.159663	-0.423412	2.357881	-2.379699	7.384600	1.082936	156.430652	-65.178334	112.393075			
42796	12.969712	-0.648612	-0.358867	-2.738070	4.572521	2.034357	155.245640	-66.230946	113.528768			
42797	14.439923	-1.125888	-2.566216	-3.559179	2.788434	4.184219	154.239396	-67.358785	114.632073			
42798	14.152955	-1.587444	-3.090699	-3.953738	1.885012	4.086408	153.680466	-68.547017	115.525130			
42799	14.721941	0.580746	-3.238201	-1.849398	1.666826	5.065245	152.878970	-69.643960	116.244965			
42800	14.659501	1.125270	-4.830283	-1.300358	-0.123843	5.607675	152.399021	-70.571693	116.443536			
42801	14.563867	1.944563	-5.461096	-0.429028	-0.988160	5.825257	152.028798	-71.493929	116.597953			
42802	13.325138	2.484962	-6.305491	0.320530	-2.377074	4.943199	151.719382	-72.361009	116.756296			
42803	12.900156	2.330444	-6.184352	0.313671	-2.564956	4.449518	151.775556	-73.147203	116.752130			
42804	12.592737	2.196245	-6.040701	0.323384	-2.690699	4.063268	151.710718	-74.048959	116.879160			
42805	12.922523	1.712820	-6.628490	-0.123491	-3.421025	4.404734	151.042726	-75.303486	117.423973			
42806	12.166427	0.856335	-5.592762	-0.729948	-2.907820	3.265259	149.979932	-77.025645	118.387692			
42807	11.550669	0.245980	-4.196283	-1.084717	-2.017581	2.263209	148.628004	-78.839279	119.743856			
42808	12.556858	0.677356	-4.767605	-0.635802	-2.816154	3.321675	146.094302	-80.733755	122.300599			
42809	12.932995	-0.012960	-8.757189	-1.278089	-7.200337	3.987030	141.702471	-83.129749	127.291021			
42810	10.923500	0.817837	-3.308766	0.041531	-2.522107	1.347586	128.459817	-85.538687	141.174684			
42811	9.904583	1.148323	-1.789606	0.592904	-1.455949	0.194423	110.665946	-86.944407	159.404067			
42812	12.459322	0.363825	-6.573683	-0.156861	-6.522905	2.676926	74.579536	-87.737893	-164.170408			
42813	9.790653	0.270780	-4.213957	0.001749	-4.467796	-0.132007	32.159617	-87.178935	-121.449162			
42814	9.308711	-1.045851	-4.984521	-1.151769	-5.510024	-0.818461	11.682269	-85.944095	-100.743026			
42815	8.498930	-1.380265	-4.366772	-1.353642	-5.079266	-1.715297	1.848388	-84.508242	-90.552713			
42816	8.168166	-0.963592	-4.294813	-0.806696	-5.176947	-2.155309	-3.385221	-83.060728	-84.798558			
42817	7.514463	0.152044	-3.617119	0.407704	-4.568979	-2.846515	-6.621372	-81.635361	-80.975940			
42818	7.271280	0.781644	-4.024342	1.172881	-5.057464	-3.276628	-8.756204	-80.251574	-78.170516			
42819	6.905145	0.819362	-4.564508	1.355343	-5.648392	-3.859384	-9.998728	-78.922196	-76.140617			
42820	6.897848	1.038586	-4.341052	1.695913	-5.516795	-3.965575	-10.533618	-77.613125	-74.631442			
42821	6.557886	1.094130	-3.757758	1.815368	-4.965062	-4.301484	-10.660707	-76.335477	-73.549513			
42822	6.192697	1.278022	-3.307760	2.041790	-4.505854	-4.669691	-10.627964	-75.152912	-72.689446			
42823	5.943835	1.446886	-2.769858	2.222595	-3.972875	-4.876126	-10.584886	-74.044915	-71.988636			
42824	5.415032	1.619188	-2.084341	2.337051	-3.214328	-5.285636	-10.655208	-73.012236	-71.351050			
42825	4.906689	1.821064	-1.520144	2.468527	-2.556527	-5.680772	-11.052234	-72.146345	-70.674535			
42826	5.138817	1.324084	-1.884172	2.087857	-3.087327	-5.591369	-11.820785	-71.409265	-69.911400			
42827	4.740995	1.138343	-2.043844	1.914828	-3.186273	-6.053578	-12.736387	-70.760409	-69.092601			
42828	4.442398	1.022711	-2.252170	1.815903	-3.338132	-6.434479	-14.053281	-70.274533	-68.127410			
42829	4.427027	0.275508	-2.729234	1.148438	-3.914127	-6.574819	-15.380568	-69.851670	-67.158163			
42830	4.019193	-0.267047	-2.875022	0.585939	-4.013064	-6.976678	-16.733878	-69.528622	-66.167809			
42831	3.818264	-0.338635	-2.721472	0.481807	-3.820276	-7.115733	-17.952921	-69.307918	-65.186374			
42832	3.536326	-0.372866	-2.516766	0.401499	-3.542529	-7.309089	-19.004974	-69.207646	-64.201674			
42833	3.715261	-0.826227	-2.920306	0.037961	-4.034631	-7.217642	-19.999283	-69.236087	-63.193409			
42834	3.925952	-0.491530	-2.247410	0.362472	-3.412736	-6.824827	-20.723850	-69.351797	-62.220780			
42835	4.673405	-0.731441	-1.722351	0.225265	-3.170148	-5.908648	-21.376626	-69.547504	-61.310238			
42836	5.820118	-0.631366	-1.325945	0.501655	-3.111806	-4.704320	-21.656325	-69.750899	-60.546714			
42837	6.809026	0.121330	0.680357	1.204044	-1.374181	-3.217067	-21.710880	-70.013587	-60.001623			
42838	8.599946	1.190417	2.794894	2.290920	0.306383	-0.989704	-21.411576	-70.292360	-59.655513			
42839	9.991467	1.720287	5.147387	2.687346	2.260073	1.001836	-20.890704	-70.515278	-59.454420			
42840	11.912225	3.302007	8.362228	4.030558	5.070459	3.632598	-20.604517	-70.651048	-59.324953			
42841	13.077725	0.459485	9.751923	1.208737	5.525989	5.495493	-20.716794	-70.658261	-58.980137			
42842	14.186504	0.108773	13.844995	0.434829	8.981834	7.853386	-20.987518	-70.535531	-58.529142			
42843	14.804988	-2.081862	16.112509	-1.863048	10.454746	9.432051	-21.519219	-70.179042	-58.154977			
42844	11.924493	-3.897906	15.024648	-3.897077	9.825264	6.661630	-21.702761	-69.818118	-57.747662			
42845	8.809320	-1.389111	14.119828	-1.878733	10.340642	3.165939	-22.092109	-69.679688	-57.179989			
42846	8.558161	-1.090644	10.912158	-1.149514	7.493735	1.850461	-22.543946	-69.879018	-56.522795			
42847	8.846004	0.074006	9.327505	0.262635	6.225282	1.431695	-23.003855	-70.114223	-55.926631			
42848	7.402938	-0.305962	6.461400	0.062524	3.919260	-0.797032	-23.337284	-70.381866	-55.438237			
42849	8.260381	0.437388	4.356174	1.258429	1.934089	-0.753088	-23.659184	-70.917361	-54.840178			
42850	9.170720	1.608181	1.460960	3.001451	-0.684974	-0.905176	-23.166286	-71.489394	-54.690514			
42851	4.435990	5.304765	-6.863745	7.216287	-6.335237	-8.165099	-23.298805	-72.808455	-53.952187			
42852	8.801214	9.298867	-10.702504	12.559762	-9.912522	-5.076632	-24.910568	-75.301021	-52.416611			
42853	19.631843	8.656753	-0.698324	11.301623	-2.487967	8.267209	-23.560684	-77.322908	-54.686892			
42854	25.201829	1.244077	10.863242	2.564491	5.888892	16.896615	-22.959592	-76.064659	-57.000422			
42855	12.057829	-15.244165	15.842430	-15.424005	10.006125	7.234858	-28.550012	-73.979415	-52.583150			
42856	9.077650	-20.679758	-0.818494	-18.418265	-6.326948	1.652041	-33.814920	-74.264705	-46.446432			
42857	13.011469	-3.420912	-6.478994	0.132739	-9.433227	1.762001	-28.502656	-75.414146	-48.551739			
42858	13.670478	12.894991	-0.787476	14.573060	0.125967	2.072394	-17.250411	-76.776559	-55.725140			
42859	10.340462	23.862476	6.180802	22.028115	11.132256	0.447488	-7.777053	-77.685651	-63.988687			
42860	7.799860	16.844219	-1.064564	17.099228	2.564259	-2.978057	-11.599292	-78.516420	-62.491439			
42861	5.309977	2.133508	-6.824606	4.218201	-6.841303	-5.976120	-25.917695	-79.176294	-51.667665			
42862	4.474941	-5.085058	-12.848789	-2.079339	-14.054283	-6.804432	-45.752524	-79.001599	-35.122016			
42863	2.316297	-15.786414	-14.343459	-13.329745	-16.504424	-6.653141	-61.989993	-77.704603	-22.435400			
42864	8.826694	-20.421185	-10.088250	-17.482505	-12.579338	1.710965	-63.249897	-77.445841	-22.935445			
42865	5.391968	-9.215565	-1.539175	-7.820849	-2.764404	-2.916418	-66.060538	-78.035692	-18.212800			
42866	7.587259	-3.624381	-5.985480	-1.466898	-6.735127	-2.130858	-72.305100	-79.640325	-10.156038			
42867	12.367825	-2.408382	-5.850747	0.545140	-6.393893	2.508411	-77.224913	-81.092280	-3.311999			
42868	11.365188	0.532215	-2.950185	2.708904	-2.851073	1.263633	-79.435651	-81.980417	0.504817			
42869	9.771182	1.592104	-2.246412	3.311619	-1.819597	-0.390507	-82.690895	-82.502710	4.881917			
42870	9.496816	1.394361	-2.567925	3.108488	-2.042196	-0.598953	-87.233745	-82.861267	10.376386			
42871	9.288357	1.648909	-1.605507	3.063801	-0.915612	-0.793651	-92.315878	-83.203073	16.405032			
42872	8.816969	1.856796	-0.767080	2.930186	0.065066	-1.258005	-99.105020	-83.573541	23.955652			
42873	8.910216	1.669164	-1.313342	2.802459	-0.366211	-1.099926	-108.705025	-83.776857	33.958171			
42874	9.687530	0.741204	-2.850679	2.306489	-1.884847	-0.135464	-117.612717	-83.497238	42.971454			
42875	9.493959	-0.578712	-2.409996	0.870469	-1.664066	-0.182030	-122.860383	-82.846799	47.825757			
42876	9.299867	-2.540947	-2.711950	-0.949798	-2.314132	-0.115326	-125.677328	-81.976692	49.813173			
42877	9.371645	-4.787073	-3.160677	-2.979203	-3.107814	0.296558	-126.689393	-81.193022	49.945427			
42878	8.763796	-6.075851	-2.923961	-4.328594	-3.104963	-0.122936	-127.581898	-80.807915	50.439419			
42879	7.937101	-4.354121	-1.978590	-2.963132	-1.855047	-1.230772	-130.466960	-80.542837	53.988036			
42880	8.301694	-0.936689	-1.140804	0.136198	-0.145337	-1.383242	-135.579974	-80.102506	60.508067			
42881	8.942861	1.336950	-1.374288	2.338793	0.462872	-0.983113	-141.712538	-79.581624	68.272448			
42882	9.399541	2.887956	-1.513582	3.732456	1.062397	-0.652186	-148.155729	-79.077099	76.212948			
42883	9.832632	3.962469	-1.562383	4.588333	1.634120	-0.268439	-154.156329	-78.666512	83.203017			
42884	9.798519	4.338645	-1.555894	4.757962	1.898820	-0.272837	-158.647246	-78.296719	87.954985			
42885	9.214377	3.457218	-1.059515	3.658538	2.031379	-0.842297	-160.505441	-77.788404	89.317506			
42886	8.986799	1.826848	-0.487730	1.926279	2.068825	-1.075044	-160.907722	-76.937801	88.451729			
42887	9.467706	-0.680345	-0.976645	-0.273235	1.145584	-0.343651	-160.933094	-75.624802	86.594686			
42888	10.007881	-6.370569	-5.501435	-4.522232	-4.120855	1.744232	-160.707259	-74.286189	85.005937			
42889	8.946626	-7.580835	-4.527683	-6.024333	-3.548424	0.633662	-161.853638	-73.888577	85.987468			
42890	7.985406	-2.161437	-1.212546	-1.681294	0.606936	-1.644898	-163.811457	-73.363398	88.620514			
42891	8.123662	-0.015365	-0.679815	0.149204	1.770671	-1.856867	-166.381342	-72.239982	91.946204			
42892	8.581492	0.767326	-1.764555	1.042494	1.321675	-1.181152	-168.791394	-70.660521	95.441995			
42893	9.740434	2.614052	-3.678407	3.144205	0.748620	0.423729	-171.119976	-69.337310	98.712140			
42894	10.202864	4.293682	-3.431697	4.481150	1.823342	0.718308	-172.987627	-68.679120	100.850948			
42895	9.110389	3.675429	-1.354250	3.259559	3.171470	-1.000267	-173.819204	-68.211467	101.230194			
42896	8.375246	1.468589	-0.269572	0.892067	3.286755	-2.016880	-173.834938	-67.386521	100.267282			
42897	9.243417	-0.799651	-1.597003	-0.957522	1.970779	-0.657038	-173.617614	-66.216880	98.719806			
42898	10.163207	-3.390799	-3.592960	-3.008617	0.150542	1.078519	-173.308142	-65.308683	97.183550			
42899	9.379531	-4.530166	-3.190060	-4.173273	0.094528	0.249534	-173.446083	-64.975088	96.580723			
42900	8.395091	-3.726643	-1.387543	-3.762102	1.523981	-1.457191	-174.030629	-64.576403	97.136554			
42901	8.512433	-2.278578	-1.261917	-2.444813	2.072239	-1.507683	-174.566043	-63.644820	98.391848			
42902	9.036078	-1.024889	-2.482095	-1.074498	1.661820	-0.596267	-175.050607	-62.426181	99.879560			
42903	10.243582	0.486193	-4.205269	0.584589	1.258821	1.183784	-176.137802	-61.683530	101.402067			
42904	9.835252	1.211214	-2.471188	0.816509	2.800146	-0.025030	-176.618296	-61.493288	101.887388			
42905	8.151602	0.866331	-0.859639	0.248077	3.320441	-2.272720	-176.787731	-61.166386	101.448168			
42906	8.715306	-0.588521	-2.270673	-0.888308	2.100064	-1.080063	-177.134678	-60.610648	100.763554			
42907	8.967489	-2.030681	-3.820810	-2.008011	0.667972	-0.083395	-177.572059	-60.255278	100.309042			
42908	8.292452	-1.666795	-2.876852	-1.814453	1.277548	-1.158521	-178.098167	-60.020940	100.280975			
42909	8.583538	-0.853512	-2.712083	-1.123921	1.782653	-1.019551	-178.878876	-59.555030	100.628602			
42910	9.714827	-0.324190	-3.245022	-0.687496	2.073779	0.199248	-179.710898	-59.046350	101.094402			
42911	11.288189	0.112416	-2.698883	-0.587333	3.479168	1.244864	179.326762	-58.677583	101.424482			
42912	11.371402	-0.250989	-2.248808	-1.077844	3.874465	1.061848	178.576236	-58.505361	101.339623			
42913	10.709390	-0.988293	-2.797615	-1.687542	2.972441	0.761388	177.781332	-58.433971	101.111149			
42914	10.640793	-1.479563	-2.979622	-2.169017	2.735270	0.775383	177.091454	-58.365143	100.741089			
42915	10.948543	-1.853787	-3.580875	-2.532046	2.384061	1.324380	176.460656	-58.157513	100.383308			
42916	12.117491	-2.276801	-4.164506	-3.053449	2.522586	2.583782	175.820439	-57.828480	100.267394			
42917	13.958074	-2.059254	-4.019881	-3.097809	3.720183	4.036148	174.996147	-57.508126	100.555901			
42918	14.913621	-1.701727	-2.051391	-3.064449	5.986849	3.762503	174.103748	-57.254913	101.036413			
42919	15.383195	-0.707718	-0.608425	-2.299413	7.583086	3.405584	173.044500	-57.190139	101.531359			
42920	15.791606	-0.822090	1.063379	-2.583430	9.172984	2.850779	172.101100	-57.427487	101.776434			
42921	16.797077	-1.079348	2.774499	-3.000874	11.052531	2.830070	171.121530	-57.930099	101.972485			
42922	17.745100	-1.763134	3.768317	-3.771062	12.199908	3.192447	170.163420	-58.772374	102.263592			
42923	18.825185	-2.088564	5.937049	-4.217669	14.317238	3.271691	169.362176	-60.366993	102.894024			
42924	15.531354	-1.531658	7.091163	-3.340763	13.344785	0.412675	168.232150	-62.941774	104.204366			
42925	8.923882	-1.892750	5.377498	-3.029755	8.507506	-4.284159	167.342063	-64.897288	105.973430			
42926	11.110610	0.370031	5.554793	-1.222080	9.531421	-1.933081	166.376699	-65.825806	108.105233			
42927	13.855981	1.612188	2.675071	-0.383718	7.865335	2.007710	164.058316	-66.887219	110.595608			
42928	14.596949	0.299962	-0.731164	-1.682645	4.538829	3.980484	162.150066	-68.258023	111.906405			
42929	14.565699	-1.782799	-3.834937	-3.612753	1.107688	4.876016	160.161364	-69.552958	112.606874			
42930	14.688560	-2.385573	-6.015656	-4.199790	-1.210470	5.631589	158.808656	-70.532721	112.755530			
42931	14.687372	-1.239799	-7.122616	-3.067885	-2.381735	6.090189	158.485405	-71.140693	112.498586			
42932	13.944373	0.565732	-7.418738	-1.153611	-2.935874	5.674478	158.680852	-71.530887	112.152688			
42933	13.173202	2.192706	-8.366702	0.568575	-4.105046	5.391505	158.465338	-71.864051	111.982388			
42934	13.881143	1.588757	-10.882345	-0.112237	-6.489980	6.664499	158.390856	-72.749852	111.797325			
42935	12.894604	0.572143	-7.149564	-0.836638	-3.515001	4.492600	158.620919	-74.510966	111.995311			
42936	10.981346	0.038987	-3.437477	-1.002047	-0.774969	1.623778	158.423473	-76.228945	112.681410			
42937	11.092340	-1.534428	-5.153791	-2.423276	-2.777236	1.950044	158.599962	-77.590082	113.272869			
42938	13.138963	-1.297543	-6.472317	-2.104488	-4.023460	4.171782	158.929040	-79.377001	114.449706			
42939	11.880863	0.123497	-6.385293	-0.312979	-4.544831	2.882050	156.492827	-81.803041	118.306316			
42940	11.277855	-0.194631	-5.979885	-0.352931	-4.784555	2.016793	149.557886	-84.343550	126.681136			
42941	10.950253	1.972322	-3.494773	1.744369	-2.614950	1.417165	129.836435	-86.412720	147.244330			
42942	10.321442	3.393484	-2.656910	3.179515	-2.045379	0.713582	98.607299	-87.415351	178.134026			
42943	11.403214	-0.391009	-6.176759	-0.131289	-6.302022	1.527364	61.327155	-87.721481	-145.073942			
42944	10.871154	-0.899784	-5.910540	-0.535710	-6.360958	0.825316	29.061227	-86.939523	-112.782299			
42945	9.803199	0.653524	-5.543890	1.119028	-6.042163	-0.352489	13.170682	-85.598528	-96.755852			
42946	9.015378	0.396999	-5.370912	0.972468	-6.074984	-1.302527	4.898897	-84.138360	-88.381415			
42947	7.936000	0.426638	-5.258267	1.110502	-6.045065	-2.530567	0.570874	-82.661831	-83.521546			
42948	7.461930	1.693499	-5.166873	2.488215	-5.885639	-3.148751	-1.736320	-81.277072	-80.443710			
42949	6.933349	2.136386	-4.973809	3.020610	-5.662590	-3.797590	-3.093257	-79.950921	-78.330396			
42950	6.577285	2.149326	-4.471502	3.063644	-5.194802	-4.200208	-3.916766	-78.710303	-76.790382			
42951	6.256204	2.121145	-3.794916	3.012441	-4.553276	-4.499335	-4.400470	-77.577589	-75.640712			
42952	5.822790	2.030829	-3.471772	2.926666	-4.226493	-4.949314	-4.736596	-76.540506	-74.717829			
42953	5.463797	2.097191	-2.986457	2.946400	-3.722419	-5.270487	-5.113886	-75.568894	-73.988410			
42954	5.004860	1.489461	-2.892782	2.344384	-3.692110	-5.749828	-5.712331	-74.715410	-73.309272			
42955	5.121262	1.054610	-2.813545	1.941723	-3.783225	-5.668791	-6.474867	-73.913430	-72.674205			
42956	5.324231	0.647897	-2.350409	1.501548	-3.531446	-5.389409	-7.434198	-73.185233	-71.986220			
42957	5.535289	0.248021	-1.548503	1.015384	-2.959249	-4.984613	-8.714764	-72.559582	-71.175314			
42958	5.683169	-0.371866	-1.491774	0.436886	-3.101817	-4.827735	-10.184876	-72.025201	-70.278976			
42959	5.681434	-1.042289	-1.594374	-0.184074	-3.338619	-4.840085	-11.672795	-71.667249	-69.326089			
42960	5.867895	-1.087506	-1.868635	-0.147506	-3.668444	-4.750340	-12.956512	-71.443852	-68.386247			
42961	6.073656	-0.603799	-1.772747	0.363910	-3.564484	-4.563070	-13.974492	-71.294355	-67.546566			
42962	6.234563	-0.580806	-2.193811	0.489511	-4.005585	-4.546238	-14.693497	-71.196688	-66.713203			
42963	6.060840	0.745021	-1.647711	1.735956	-3.218206	-4.651944	-15.152861	-71.144751	-65.875412			
42964	6.059909	1.337383	-1.390170	2.316828	-2.857210	-4.624991	-15.742231	-71.181726	-64.980739			
42965	6.440948	1.605240	-1.025530	2.611743	-2.551819	-4.175208	-16.232956	-71.229690	-64.086436			
42966	6.626170	2.170393	-0.114306	3.085602	-1.613131	-3.770626	-16.766489	-71.309118	-63.199806			
42967	6.873075	1.818316	0.223842	2.747651	-1.396507	-3.402104	-17.359315	-71.418766	-62.334253			
42968	6.909792	1.844454	1.130039	2.655897	-0.513220	-3.096521	-18.023627	-71.563068	-61.442346			
42969	7.646678	1.196013	1.550274	2.086815	-0.413031	-2.211376	-18.841142	-71.695757	-60.557713			
42970	7.906596	0.389703	1.652400	1.344364	-0.512404	-1.854889	-19.455256	-71.815971	-59.675376			
42971	8.405146	0.814525	2.671194	1.686888	0.432277	-1.128643	-20.109299	-71.889999	-58.812111			
42972	8.649200	-0.744188	3.270755	0.128953	0.643870	-0.559095	-20.851519	-72.004907	-57.925854			
42973	9.950472	-1.197500	4.638528	-0.324218	1.521096	1.120884	-21.079861	-72.054695	-57.236133			
42974	10.020875	0.058578	7.481155	0.377171	4.448356	1.868869	-20.961977	-71.952283	-56.776658			
42975	10.201460	0.731751	10.005319	0.556340	6.904256	2.706629	-21.029952	-71.800429	-56.350740			
42976	10.461374	0.189997	11.620127	-0.221155	8.208941	3.494003	-21.517567	-71.662196	-55.870008			
42977	11.258949	-0.988310	12.355703	-1.281310	8.430941	4.598433	-22.392515	-71.625362	-55.367547			
42978	11.614502	-1.488627	12.091130	-1.510171	8.032878	4.901160	-23.473394	-71.647929	-55.087238			
42979	11.226675	-2.486468	11.255564	-2.224358	7.219733	4.394085	-24.704838	-71.703848	-54.823456			
42980	9.168400	-3.485386	9.829694	-3.196615	6.289217	2.147922	-25.592304	-71.747071	-54.621596			
42981	8.312382	-2.722494	8.869430	-2.406389	5.804771	0.943151	-26.094332	-71.936398	-54.291075			
42982	8.125437	-2.735234	5.573437	-1.989330	2.782471	-0.175923	-26.746244	-72.383107	-53.565022			
42983	9.299100	-1.840163	1.155699	-0.304759	-1.448986	-0.378628	-27.194328	-73.162898	-52.343759			
42984	15.063522	1.752652	1.688929	4.052354	-1.381080	4.833107	-27.184204	-73.950274	-51.247133			
42985	11.111742	3.499684	-3.610440	5.972884	-4.979346	-0.416937	-26.014316	-74.593744	-50.822292			
42986	8.850277	6.581987	-3.049134	8.435615	-3.012084	-2.691786	-25.363774	-75.737809	-50.421179			
42987	17.769173	3.250144	4.821567	4.776040	2.048326	8.146924	-24.967947	-76.026729	-50.923483			
42988	17.914583	-5.700395	12.390860	-5.317414	6.919760	10.942527	-27.170644	-75.001772	-49.694620			
42989	13.673565	-13.201881	6.364971	-11.660955	0.306369	6.487270	-30.226357	-74.899000	-47.192202			
42990	13.696075	-3.119836	-4.299846	0.265585	-7.405766	2.871479	-28.855033	-75.603378	-47.272067			
42991	12.378410	7.053195	-5.857282	10.192999	-5.850857	0.143873	-23.755010	-76.103043	-49.428181			
42992	8.018293	13.687031	2.045386	13.512480	4.838473	-2.758257	-19.315265	-76.618283	-51.044497			
42993	3.802991	15.047544	0.137460	14.628734	4.484048	-7.205362	-20.824048	-78.039235	-50.751625			
42994	5.285774	4.380432	-7.677813	6.967208	-6.743922	-6.344045	-29.602869	-79.452671	-45.532976			
42995	5.075427	-1.948758	-11.896039	1.420351	-12.512328	-6.284536	-45.703444	-79.905046	-32.721615			
42996	6.900237	-10.381913	-13.379162	-6.572439	-15.600260	-2.902792	-62.446710	-78.620909	-17.908632			
42997	11.411649	-16.752632	-8.417127	-12.822027	-11.616860	3.690613	-65.066729	-77.530541	-17.351826			
42998	8.315053	-8.936514	-3.060319	-6.569569	-4.859334	-0.242264	-63.295698	-77.473527	-18.527636			
42999	4.946032	-3.002259	-0.644912	-1.825633	-1.398824	-4.464533	-67.414319	-78.545993	-12.823548			
43000	8.922611	-2.357310	-4.884416	0.182288	-5.469963	-0.920907	-75.590296	-80.536227	-3.120178			
43001	14.677100	0.075578	-5.646279	3.487698	-5.544840	4.483704	-79.156754	-81.667563	1.605992			
43002	10.344818	1.315233	-1.155252	3.005038	-0.796075	0.208074	-79.930414	-81.781229	2.269195			
43003	9.478720	-0.943486	-1.632827	0.829938	-1.695390	-0.334400	-83.916391	-81.089601	5.430877			
43004	9.368042	-5.991650	-5.232593	-3.297094	-6.119634	0.322273	-86.114742	-80.360581	6.844681			
43005	7.731727	-5.884471	-3.480028	-3.768368	-4.367042	-1.254333	-84.750749	-80.363074	5.480273			
43006	5.494328	-3.259369	-1.089466	-2.043068	-1.576007	-3.867933	-88.108072	-80.621201	9.793588			
43007	6.388879	-2.475464	-2.119021	-0.962790	-2.325609	-3.097137	-97.653382	-81.103871	20.430299			
43008	9.241068	-2.124412	-4.437351	0.243712	-4.174290	-0.215241	-108.512989	-81.470395	32.614589			
43009	10.735522	0.363899	-3.437174	2.484735	-2.282093	0.948887	-116.205320	-81.678810	41.480826			
43010	10.768776	1.682107	-2.610234	3.437010	-0.977506	0.809869	-120.958304	-81.678442	46.898155			
43011	9.919283	1.349988	-1.408916	2.648443	0.112732	-0.057086	-123.964334	-81.427405	50.341448			
43012	9.140871	0.715478	-1.083238	1.847552	0.259886	-0.770618	-127.031869	-81.104891	53.706379			
43013	9.164970	1.036731	-1.790742	2.327912	-0.229295	-0.712923	-130.189940	-80.833459	57.013424			
43014	9.311648	0.777486	-1.134696	1.862889	0.426285	-0.596069	-132.979623	-80.526272	59.844293			
43015	9.673554	0.300593	-1.055738	1.384355	0.514557	-0.189782	-135.664127	-80.025192	62.464913			
43016	9.952896	-1.000533	-0.546859	-0.000654	0.798392	0.173368	-138.024304	-79.371498	64.492180			
43017	9.799145	-2.939593	-2.146141	-1.421319	-1.130443	0.481504	-140.340548	-78.718226	66.392834			
43018	9.385610	-3.950224	-2.497044	-2.355280	-1.681546	0.264679	-142.473991	-78.281899	68.529878			
43019	8.713919	-2.480987	-1.113755	-1.440647	-0.023964	-0.798740	-145.187669	-77.880291	71.649826			
43020	8.467970	-1.647946	-0.661209	-0.868336	0.679496	-1.231210	-148.764289	-77.165100	75.975404			
43021	9.433273	-0.766972	-1.544332	0.178014	0.453848	-0.235705	-152.737553	-76.380761	80.755042			
43022	10.022074	0.501008	-2.617038	1.603199	0.132207	0.431842	-156.347231	-75.764747	85.252545			
43023	10.168771	2.319381	-1.997641	2.974394	1.441049	0.279248	-159.449637	-75.366140	89.077135			
43024	9.837921	3.508130	-1.268654	3.705843	2.515835	-0.292380	-161.937749	-74.982501	92.007222			
43025	9.443724	4.137399	-0.517517	3.944080	3.390364	-0.895367	-163.566252	-74.466953	93.569115			
43026	9.137593	3.393710	0.234966	2.959091	3.814595	-1.341544	-164.488381	-73.761339	93.790707			
43027	8.707100	1.731458	-0.327595	1.588959	2.741094	-1.513329	-165.244769	-72.779201	93.369120			
43028	9.165312	0.030328	-1.950577	0.468538	1.037014	-0.511555	-165.579820	-71.624374	92.489100			
43029	8.991324	-1.413746	-3.283635	-0.547547	-0.454395	-0.163028	-165.986052	-70.658138	91.674892			
43030	8.744389	-2.846004	-3.177490	-2.010588	-0.658500	-0.316233	-167.119399	-70.107359	91.741768			
43031	8.794439	-2.511494	-1.765933	-2.114579	0.831396	-0.779171	-168.488054	-69.607576	92.542789			
43032	8.848344	-0.862765	-0.850018	-0.795596	2.164396	-1.184757	-169.329118	-68.858690	93.336124			
43033	9.411117	-0.589501	-1.653471	-0.409116	1.824340	-0.423699	-170.357836	-68.031850	94.149640			
43034	11.296317	-0.650903	-2.158779	-0.474095	2.173129	1.489623	-171.497902	-67.528465	94.816761			
43035	9.952156	-1.051538	-1.024117	-1.111240	2.664343	-0.175978	-171.746812	-67.296043	94.508102			
43036	8.721873	-2.267897	-1.554014	-2.143022	1.521044	-1.053534	-172.003772	-67.000009	93.919443			
43037	8.346561	-3.986063	-3.406304	-3.441346	-0.533094	-0.591596	-171.828837	-66.572543	93.000154			
43038	8.131244	-4.205253	-4.734971	-3.400238	-1.743047	-0.240832	-171.535234	-66.126523	92.209193			
43039	7.688253	-3.750592	-5.425941	-2.835983	-2.377485	-0.382877	-171.862239	-65.762722	92.335765			
43040	7.756386	-1.728257	-4.906277	-0.971196	-1.473526	-0.641811	-172.419635	-65.284423	93.221862			
43041	8.076759	0.455301	-5.127433	1.163629	-1.059356	-0.365249	-173.326215	-64.605561	94.739809			
43042	8.712289	2.847662	-5.470085	3.476299	-0.514071	0.266180	-174.536815	-63.997118	96.510721			
43043	8.796719	4.860088	-4.448873	5.145488	0.930714	-0.145666	-175.682501	-63.525558	97.754637			
43044	8.131004	4.491141	-3.816630	4.626487	1.178401	-0.977708	-176.391292	-62.983807	97.925398			
43045	7.899033	1.976373	-4.175855	2.197575	0.331179	-0.935810	-176.768169	-62.250987	97.335066			
43046	8.584344	-0.199924	-4.677440	0.059371	-0.082800	-0.035272	-177.141888	-61.588780	96.615629			
43047	8.897395	-1.292496	-3.587542	-1.236994	0.935978	-0.257707	-177.598959	-61.142933	96.026118			
43048	8.788412	-1.772788	-2.927828	-1.822256	1.476751	-0.677646	-178.139966	-60.732845	95.639789			
43049	9.087019	-2.035419	-2.909912	-2.132294	1.702303	-0.445791	-178.773339	-60.187089	95.542033			
43050	9.980844	-2.212949	-3.364405	-2.357372	1.842669	0.525565	-179.547751	-59.619261	95.805284			
43051	10.553677	-1.782480	-3.136782	-2.052051	2.472383	0.867757	179.624902	-59.146386	96.274106			
43052	10.501174	-1.215981	-2.934620	-1.575813	2.755292	0.689199	178.856746	-58.763724	96.680904			
43053	10.442477	-0.992556	-2.714382	-1.425815	2.994726	0.502184	178.175469	-58.487241	96.871262			
43054	10.339449	-1.588775	-2.387611	-2.074364	3.215624	0.211560	177.650603	-58.246642	96.873988			
43055	10.285896	-1.979485	-1.748332	-2.528831	3.745428	-0.202736	177.103437	-58.025662	97.017095			
43056	10.445758	-1.361998	-1.317386	-1.984941	4.286295	-0.305231	176.558575	-57.767125	97.366012			
43057	10.890174	-0.523842	-1.082097	-1.241872	4.826023	-0.055227	175.970221	-57.487193	97.822170			
43058	12.295538	0.029124	-0.831205	-0.864591	5.870324	0.988388	175.253161	-57.215647	98.267212			
43059	14.547679	-0.165935	-0.477882	-1.301830	7.408672	2.649542	174.532091	-56.942828	98.500282			
43060	16.215584	-0.932060	-0.500752	-2.242409	8.293048	3.980827	173.674944	-56.718525	98.681141			
43061	16.218218	-1.543984	-0.496511	-2.892131	8.283406	3.923456	172.743927	-56.820201	98.909536			
43062	16.058047	-1.848543	1.313054	-3.206536	9.642437	2.826232	171.730544	-57.361767	99.147507			
43063	17.787279	-3.257476	3.515845	-4.708961	12.201698	3.160121	170.668083	-58.582348	99.409866			
43064	18.402747	-4.383726	7.063617	-5.714390	15.184664	2.207817	169.992979	-60.936281	99.563417			
43065	11.710974	-4.978133	9.936807	-5.598222	14.159852	-4.446784	169.419772	-63.321433	99.922470			
43066	10.538206	-2.568217	7.532943	-3.217004	11.346001	-3.870430	168.902376	-63.945928	100.983264			
43067	15.742179	1.073437	4.750026	-0.265502	11.012493	2.442006	167.635305	-64.569116	102.892802			
43068	15.768907	1.316842	1.281742	-0.275873	7.599596	4.122341	165.268961	-66.039475	105.319443			
43069	15.201150	0.317564	-0.509365	-1.365962	5.267469	4.393049	162.718749	-67.703129	107.317061			
43070	15.318438	-0.810186	-3.116690	-2.613849	2.427993	5.428182	160.646055	-69.192713	108.293131			
43071	15.651791	-2.434293	-5.806419	-4.379211	-0.327067	6.476214	159.625217	-70.389647	108.150681			
43072	15.362710	-2.234394	-6.867762	-4.183273	-1.663559	6.554994	159.514260	-71.317567	107.450666			
43073	14.803115	-0.292660	-8.075398	-2.240046	-3.191632	6.595386	159.932687	-71.749100	106.459105			
43074	15.267783	1.569652	-9.830326	-0.523867	-4.897095	7.735747	160.626417	-72.124788	105.203000			
43075	16.716381	0.632141	-12.568259	-1.704610	-7.259971	9.736469	161.342212	-73.365165	104.333311			
43076	14.261215	-0.607544	-7.775145	-2.159790	-3.734467	5.857775	162.376327	-75.437965	103.693660			
43077	13.116204	-2.220555	-5.904206	-3.323136	-2.612504	4.113343	164.090277	-77.339023	102.692601			
43078	14.717011	-3.538596	-8.708465	-4.595507	-5.521165	6.102591	165.908192	-79.612990	102.117630			
43079	14.125612	-3.625855	-9.328505	-4.229180	-7.061281	5.413690	168.661708	-82.757235	101.675020			
43080	10.799501	-0.896593	-2.446467	-1.056896	-1.421441	1.152845	169.947284	-85.963099	102.765808			
43081	10.517716	1.338595	-1.620635	1.279636	-1.015216	0.787336	162.425918	-88.073726	111.234714			
43082	12.282526	-0.278496	-6.207762	0.051268	-6.017724	2.566380	98.974602	-89.826298	175.176027			
43083	11.981298	-1.269482	-5.697722	-0.812088	-5.968685	2.075317	-6.784229	-88.111697	-78.642834			
43084	11.040340	-0.014705	-4.906423	0.524476	-5.422612	0.970055	-8.802460	-86.147174	-76.057907			
43085	10.886297	1.378246	-4.976806	2.060717	-5.702026	0.599089	-9.763606	-84.135207	-74.788080			
43086	9.841834	0.971914	-4.267580	1.703890	-5.241286	-0.558845	-10.478548	-82.253983	-73.530278			
43087	9.303107	1.619273	-5.864379	2.654058	-6.918873	-1.528071	-10.373667	-80.432536	-72.727273			
43088	8.365235	2.375096	-4.564714	3.371494	-5.594940	-2.479398	-10.025586	-78.638983	-72.210205			
43089	7.653018	1.903904	-4.673032	3.020429	-5.783552	-3.374349	-9.542559	-76.958634	-71.732626			
43090	7.216272	2.233060	-3.444514	3.265830	-4.576090	-3.704022	-9.156344	-75.404263	-71.245313			
43091	7.020009	2.417847	-2.701434	3.416389	-3.893547	-3.846940	-8.885782	-73.965864	-70.799056			
43092	6.841519	2.459263	-1.745349	3.361534	-3.039530	-3.866279	-8.988802	-72.605119	-70.329814			
43093	6.628539	1.970382	-1.266152	2.844605	-2.733154	-3.993815	-9.485109	-71.358484	-69.789825			
43094	6.533293	1.265089	-1.641906	2.264707	-3.297633	-4.247140	-10.313478	-70.220812	-69.151503			
43095	6.047022	0.397722	-1.442283	1.377944	-3.213358	-4.657164	-11.248639	-69.227033	-68.404109			
43096	5.985202	-0.029041	-2.238451	1.125116	-4.078825	-5.024091	-12.421960	-68.332680	-67.532135			
43097	5.486655	-0.574181	-1.912676	0.518157	-3.764613	-5.379847	-13.693483	-67.508922	-66.558109			
43098	5.249481	-0.889202	-1.890326	0.218289	-3.759770	-5.601138	-14.916489	-66.785841	-65.490146			
43099	5.085586	-0.751177	-2.064057	0.398450	-3.865009	-5.864220	-16.059796	-66.141629	-64.431656			
43100	5.195149	-0.827528	-1.925557	0.373890	-3.817738	-5.730172	-17.010824	-65.583209	-63.455896			
43101	5.058433	-0.234129	-1.663986	0.941035	-3.437686	-5.849366	-17.753640	-65.080921	-62.604694			
43102	5.195224	-0.489014	-1.802498	0.782304	-3.682266	-5.774475	-18.195464	-64.617285	-61.926265			
43103	4.705890	0.549255	-0.967442	1.623598	-2.549320	-6.038062	-18.304240	-64.258794	-61.390747			
43104	4.787591	1.093148	-0.984513	2.198417	-2.486081	-6.061478	-18.547927	-64.061787	-60.910844			
43105	4.787208	1.077291	-0.723008	2.167072	-2.249427	-5.959830	-18.751486	-63.993643	-60.510989			
43106	4.981740	1.679348	-0.162408	2.726024	-1.680766	-5.640383	-19.020171	-64.023408	-60.142725			
43107	5.108271	1.632274	0.312498	2.651291	-1.302049	-5.325848	-19.512865	-64.086717	-59.809836			
43108	5.197073	0.994139	0.490941	2.040109	-1.303676	-5.082225	-20.077835	-64.149801	-59.489187			
43109	5.019043	0.474696	0.615632	1.492454	-1.221483	-5.114213	-20.685540	-64.283216	-59.097817			
43110	5.580119	-0.114468	0.850902	1.028005	-1.316895	-4.419750	-21.400487	-64.494683	-58.618437			
43111	6.171749	-1.582682	0.267970	-0.175113	-2.330545	-3.879311	-21.965860	-64.738326	-58.103748			
43112	7.120457	-1.752724	1.100831	-0.226376	-1.917358	-2.653275	-22.124723	-65.015340	-57.653764			
43113	8.888905	-1.254160	2.407616	0.474593	-1.221453	-0.611337	-22.073262	-65.259151	-57.343406			
43114	11.366652	-1.014590	3.848381	1.048592	-0.706149	2.164039	-21.914971	-65.357944	-57.259724			
43115	13.377824	-1.293842	4.564997	1.111542	-0.836130	4.313337	-21.462759	-65.228755	-57.472243			
43116	13.113655	-1.122555	5.288952	1.078479	-0.132561	4.330119	-20.399602	-64.879749	-58.005771			
43117	10.896045	0.080571	6.675032	1.458503	2.073707	2.711571	-19.091223	-64.501673	-58.543875			
43118	8.108874	0.704055	8.069470	1.108617	4.403167	0.710979	-18.044689	-64.202228	-58.767461			
43119	6.404571	0.962586	9.349135	0.642861	6.190786	-0.293689	-17.402010	-64.090976	-58.684016			
43120	5.902726	0.190268	9.629478	-0.356253	6.401074	-0.511938	-17.113391	-64.130560	-58.355355			
43121	5.841908	-0.411662	9.088959	-0.910839	5.775946	-0.717910	-16.961032	-64.256356	-58.040739			
43122	6.389485	-1.478051	7.925721	-1.617233	4.255634	-0.587668	-16.790303	-64.534770	-57.880180			
43123	7.704138	-1.611698	7.868194	-1.504099	3.711670	0.570965	-16.273407	-64.893000	-58.035579			
43124	8.793050	-1.767484	7.061246	-1.327648	2.592289	1.224482	-15.561400	-65.368636	-58.376232			
43125	9.663107	-0.824577	6.439476	-0.221900	2.060553	1.642686	-14.682171	-65.919808	-58.805895			
43126	9.627814	0.562915	5.839480	1.093857	2.019560	1.225163	-13.683171	-66.482175	-59.259939			
43127	9.741146	1.863497	6.304855	2.088564	2.857686	1.393706	-12.634131	-66.970079	-59.702025			
43128	10.252498	2.356939	7.095457	2.299577	3.590122	2.138688	-11.494492	-67.298610	-60.190698			
43129	7.477903	2.033645	6.300482	1.547579	3.738358	-0.681464	-10.421582	-67.537930	-60.497302			
43130	3.334642	1.586917	1.981699	1.517767	1.196723	-6.093933	-9.856346	-68.116952	-60.208148			
43131	4.860151	1.902896	-2.441779	3.413590	-2.991640	-6.263087	-9.561128	-69.613220	-59.882258			
43132	8.991891	4.236061	-7.052256	7.662186	-7.322232	-3.797690	-8.694999	-72.384428	-61.139695			
43133	16.279795	8.639948	-5.456145	11.926164	-5.941219	4.037482	-4.710291	-75.399090	-65.165576			
43134	30.194701	12.330268	8.318546	11.852879	5.052218	21.282721	-3.275348	-76.316150	-67.223094			
43135	20.301099	3.895953	16.122154	0.910783	11.402381	13.772339	-7.818544	-74.540197	-65.057558			
43136	10.592875	-12.504386	19.048288	-15.389782	11.649534	6.268584	-16.262638	-73.132130	-59.764703			
43137	9.632018	-19.696782	-0.100126	-17.475606	-7.252140	1.264893	-23.505050	-74.450850	-52.836058			
43138	13.237120	-4.507813	-5.913757	-0.795699	-9.504803	1.999765	-21.910655	-75.348986	-51.783791			
43139	12.839399	9.440933	-0.027447	10.810119	0.455432	1.886227	-15.092504	-76.159633	-54.940364			
43140	10.635468	18.770212	7.380361	16.329279	11.462685	1.223879	-10.615901	-77.368887	-57.831901			
43141	8.726147	13.581640	-1.111000	14.029858	2.251236	-2.071440	-12.538357	-78.582872	-57.966968			
43142	6.041040	2.777196	-5.152573	4.821518	-4.923950	-4.989930	-21.100615	-79.150138	-52.713013			
43143	5.291576	-4.227188	-7.877146	-1.523395	-9.340676	-5.532266	-35.462584	-79.271004	-41.894153			
43144	6.472241	-17.245879	-12.978845	-13.475715	-16.679543	-2.908635	-53.324131	-78.531140	-27.944794			
43145	9.367260	-27.265804	-14.531435	-23.038461	-19.232953	2.087671	-54.573474	-78.166187	-28.012872			
43146	5.036387	-7.929760	-1.856641	-6.559658	-3.518600	-3.789533	-55.779653	-78.781178	-24.366801			
43147	5.602821	-1.259228	-6.007832	0.807081	-6.478978	-4.671154	-61.234574	-80.726849	-16.648608			
43148	11.805004	0.051751	-6.125749	3.060968	-6.308746	1.487537	-68.042279	-82.958017	-7.505717			
43149	13.591397	2.598824	-5.184162	5.359775	-4.491629	3.204523	-67.827124	-84.171775	-6.023767			
43150	9.653521	2.819383	-0.879676	3.876106	-0.145295	-0.492424	-65.993442	-84.615503	-7.057414			
43151	9.307213	1.698938	0.157468	2.429461	0.590002	-0.686673	-71.705091	-84.757717	-1.008207			
43152	10.311747	0.391993	-2.039826	1.935301	-1.761884	0.375270	-81.692093	-84.510943	9.009217			
43153	10.288648	-1.547560	-3.239544	0.486991	-3.353884	0.543918	-86.022309	-84.099686	13.123614			
43154	8.853997	-1.701875	-1.243615	-0.356694	-1.470231	-0.837870	-86.726424	-83.910852	13.554488			
43155	8.026571	-1.744148	0.133693	-0.872144	-0.150856	-1.645547	-89.781061	-83.841954	16.543613			
43156	7.801875	-2.385777	-0.534451	-1.333178	-0.911218	-1.797805	-96.735009	-83.871738	23.643475			
43157	9.018406	-2.216493	-1.684701	-0.758217	-1.810150	-0.580678	-104.403515	-83.874772	31.820436			
43158	9.533630	-1.003867	-0.488757	0.032037	-0.176707	-0.215635	-110.664408	-83.794824	38.598181			
43159	9.688395	-0.519336	-0.227581	0.375630	0.330144	-0.120661	-116.162765	-83.585597	44.375988			
43160	9.290839	-0.485873	-0.555201	0.438292	0.100740	-0.503509	-121.273692	-83.291653	49.686963			
43161	9.244537	-0.162735	-0.163448	0.567422	0.666708	-0.606867	-126.581104	-83.039459	55.246426			
43162	9.396489	0.198833	-0.396777	0.925913	0.674129	-0.475777	-132.094951	-82.790205	61.149659			
43163	9.343916	0.763521	-0.755766	1.492674	0.607368	-0.546368	-137.269082	-82.553429	66.659142			
43164	9.581569	1.340896	-1.137112	2.096706	0.549705	-0.315414	-141.566257	-82.320765	71.046244			
43165	10.032237	1.360528	-0.770027	1.950600	1.026623	0.098439	-144.530116	-82.012063	73.801803			
43166	9.816351	0.028548	-0.957900	0.710389	0.468864	0.013496	-146.832132	-81.523119	75.812294			
43167	9.961835	-0.925156	-2.350141	0.234140	-1.030317	0.409841	-149.000017	-81.100406	77.721312			
43168	9.244563	-0.660354	-1.858517	0.252023	-0.521320	-0.377845	-151.589702	-80.806579	80.330868			
43169	9.671381	0.681683	-1.671852	1.404266	0.211486	-0.077305	-154.810308	-80.465546	83.748177			
43170	9.650022	1.357943	-1.730229	1.983284	0.445422	-0.126211	-157.622321	-80.091019	86.725719			
43171	9.165325	1.700599	-2.064983	2.345669	0.230855	-0.560483	-159.729328	-79.679727	88.687125			
43172	9.153129	1.176390	-2.259432	1.860976	-0.059431	-0.495956	-161.334702	-79.233353	89.731791			
43173	9.046999	0.136179	-2.187384	0.809589	-0.270974	-0.543276	-162.381265	-78.720274	89.944467			
43174	9.203710	-0.975300	-2.809323	-0.108925	-1.087900	-0.202490	-163.419711	-78.414183	89.788654			
43175	8.320936	-1.587065	-2.203672	-0.900964	-0.793143	-1.142542	-163.365707	-77.922495	88.750010			
43176	8.540497	-2.373688	-2.400554	-1.623442	-1.016167	-0.831204	-163.746171	-77.105326	88.341339			
43177	9.402563	-3.111128	-3.083317	-2.196663	-1.493393	0.214087	-164.821089	-76.300942	88.898418			
43178	9.549513	-2.544713	-2.929740	-1.748281	-1.044499	0.291924	-166.501961	-75.720816	90.275820			
43179	9.139892	-1.480425	-2.149389	-0.973269	-0.068286	-0.357730	-168.199214	-75.223488	91.725048			
43180	9.128308	-1.199142	-1.977433	-0.811027	0.236657	-0.434017	-169.814497	-74.741703	92.985156			
43181	8.932711	-1.137799	-1.424300	-0.931148	0.802572	-0.779164	-170.855422	-74.190672	93.699732			
43182	9.159172	-1.052789	-0.327452	-1.132611	2.014460	-0.881627	-171.721876	-73.462349	94.188293			
43183	9.500001	-1.279572	-1.110286	-1.234402	1.451654	-0.352904	-172.833528	-72.764606	94.639313			
43184	9.206754	-1.719048	-1.209764	-1.680127	1.305714	-0.611929	-173.764952	-72.129417	94.850416			
43185	8.491663	-1.723941	-0.453691	-1.830370	1.911484	-1.549467	-174.072031	-71.388075	94.635142			
43186	8.240683	-1.566518	-2.894050	-1.260920	-0.282839	-1.033927	-174.847063	-70.527683	94.913952			
43187	9.281423	-0.703470	-3.208751	-0.437121	0.044407	0.023033	-175.503812	-69.831580	95.409888			
43188	8.841017	0.125680	-2.635694	0.250619	0.658571	-0.613283	-176.241710	-69.319578	95.990998			
43189	8.278789	0.106512	-2.767935	0.226402	0.411894	-1.095487	-176.987544	-68.788697	96.428145			
43190	8.018792	-0.652434	-2.949249	-0.525797	0.112528	-1.260795	-177.494055	-68.187795	96.475168			
43191	7.809748	-1.842076	-3.180090	-1.691606	-0.263292	-1.352982	-177.816958	-67.575909	96.349184			
43192	7.858379	-2.484235	-3.148408	-2.367528	-0.210912	-1.316368	-178.299999	-66.990936	96.479708			
43193	8.155112	-2.163060	-3.051892	-2.120203	0.128464	-1.095687	-178.987989	-66.408010	97.015534			
43194	8.212784	-1.127698	-3.007109	-1.157122	0.426529	-1.081001	-179.662929	-65.718202	97.783511			
43195	9.035820	-0.111336	-3.579975	-0.189308	0.500089	-0.107697	179.556995	-64.896535	98.807381			
43196	9.882506	1.151329	-3.574824	0.913943	1.176100	0.653829	178.633389	-64.118037	100.026645			
43197	9.841430	2.377049	-2.765739	1.914313	2.176657	0.274400	177.522524	-63.554651	101.203359			
43198	9.597129	2.841774	-1.725698	2.159638	3.133394	-0.395917	176.395798	-63.085845	102.013145			
43199	9.585909	2.455760	-1.200371	1.648867	3.581828	-0.657760	175.478312	-62.595177	102.238384			
43200	9.950227	1.102999	-1.547033	0.280598	3.300171	-0.239460	174.753790	-62.124064	102.002988			
43201	10.865081	-0.496461	-1.973988	-1.368679	3.207893	0.676766	174.104294	-61.758718	101.535330			
43202	12.079726	-1.888468	-2.439183	-2.845435	3.283261	1.873155	173.255953	-61.618535	101.110973			
43203	13.289221	-2.896141	-2.708408	-3.970759	3.568833	2.986641	172.092684	-61.783056	100.869001			
43204	13.629669	-3.786311	-2.291198	-4.928348	4.061129	3.015879	170.967869	-62.036089	100.681252			
43205	13.439734	-4.784943	-1.985166	-5.932007	4.220371	2.615614	170.018158	-62.259785	100.685834			
43206	13.444925	-4.946715	-1.099814	-6.114253	5.017211	2.182685	169.415582	-62.317877	100.961164			
43207	15.445298	-3.971638	0.607977	-5.350309	7.469600	3.236429	168.748040	-62.298014	101.620353			
43208	16.657160	-3.433696	1.172161	-5.001121	8.485475	4.101672	168.085540	-62.551933	102.377460			
43209	16.473828	-3.363362	1.673208	-4.989963	8.702107	3.783905	167.432327	-63.261422	103.304851			
43210	15.758307	-2.868219	3.189207	-4.508722	9.513833	2.672060	166.770476	-64.344366	104.594412			
43211	13.991787	-1.899578	4.165987	-3.496010	9.394315	0.968948	166.230687	-65.659059	106.239782			
43212	12.512431	0.194879	5.950929	-1.459652	10.311135	-0.672010	166.054249	-66.797546	107.726388			
43213	13.152984	0.175691	5.717463	-1.708542	10.121938	0.204307	165.528176	-67.863353	109.087267			
43214	13.473280	-1.022507	3.038494	-2.871545	7.386565	1.544764	164.676746	-69.050551	110.430991			
43215	13.420078	-1.470763	0.835170	-3.191030	4.979507	2.351725	163.675253	-70.267514	111.746491			
43216	12.986030	-1.352373	-0.813935	-2.897057	3.014683	2.582477	162.464455	-71.471980	113.071776			
43217	13.598508	-1.055189	-2.362020	-2.539509	1.479672	3.713848	161.351671	-72.579920	114.108971			
43218	13.610692	-0.701289	-3.228647	-2.082251	0.435989	4.030579	160.597370	-73.577249	114.842863			
43219	13.416720	0.374943	-3.876429	-0.899530	-0.328160	4.124894	159.984147	-74.294276	115.350986			
43220	13.589118	1.357143	-5.755276	0.239459	-2.146938	4.848859	159.802018	-74.828987	115.409620			
43221	13.363614	2.527009	-6.025618	1.502136	-2.472710	4.778658	160.080334	-75.416844	114.970843			
43222	13.635454	1.949377	-6.585455	1.035034	-3.158371	5.088451	160.849344	-76.175620	113.948114			
43223	12.877038	-0.106066	-6.706669	-0.787817	-3.828582	4.170276	161.861064	-77.309862	112.931773			
43224	11.880495	-1.578686	-5.966304	-2.072502	-3.702785	2.884577	161.868268	-78.689638	113.175621			
43225	11.224027	-1.632192	-4.996514	-2.008226	-3.160232	2.001683	161.933377	-80.019617	113.890698			
43226	11.640545	-1.271064	-4.828772	-1.528112	-3.173650	2.353583	162.144924	-81.379628	114.640523			
43227	12.243152	-0.750217	-6.231900	-0.672107	-4.750138	3.081436	162.066636	-83.276734	115.665065			
43228	11.249279	-2.317801	-5.974795	-1.927397	-5.253886	1.860779	161.167485	-85.647848	117.661778			
43229	10.387976	-1.080001	-3.163755	-0.841308	-2.805920	0.698452	152.226959	-88.055219	127.785595			
43230	9.449352	1.053354	-1.074429	1.083942	-0.764839	-0.337126	75.111826	-89.393093	-154.655372			
43231	10.887845	0.943435	-4.686181	1.751432	-4.604879	1.009288	1.388802	-88.458453	-80.878686			
43232	11.122216	0.338303	-4.897905	1.346849	-5.192844	1.096815	-9.473843	-86.787058	-70.199216			
43233	10.209207	-0.221762	-3.799484	0.730022	-4.433823	0.112700	-13.301412	-85.146810	-66.358524			
43234	9.913559	-0.385047	-3.945796	0.740019	-4.820541	-0.315147	-15.144581	-83.537230	-64.287659			
43235	9.236858	-1.052380	-3.831124	0.189220	-4.978336	-1.078949	-16.260283	-81.964921	-62.801457			
43236	9.106858	-1.260011	-4.172933	0.204120	-5.530258	-1.368524	-16.948150	-80.461587	-61.597862			
43237	8.738520	-0.707745	-3.770157	0.801461	-5.150132	-1.818631	-17.259044	-79.019387	-60.667124			
43238	8.106177	-0.456323	-3.793081	1.148324	-5.162928	-2.578968	-17.298007	-77.649798	-59.905238			
43239	7.816475	0.701880	-3.822009	2.396614	-4.991108	-3.064436	-16.979379	-76.356823	-59.360559			
43240	6.876682	1.385084	-3.085377	2.910659	-4.021184	-3.974672	-16.509723	-75.109818	-58.958134			
43241	6.660433	1.967386	-3.026578	3.535227	-3.828695	-4.314178	-16.082220	-73.984949	-58.610195			
43242	6.211171	2.293654	-2.539267	3.751042	-3.229403	-4.734627	-15.786740	-72.895916	-58.331329			
43243	5.553605	1.958708	-1.836193	3.219181	-2.558183	-5.214601	-15.792359	-71.901990	-57.990647			
43244	5.466403	1.746224	-1.729508	3.028657	-2.547857	-5.311910	-16.109619	-71.002781	-57.572478			
43245	5.050881	1.147586	-1.540860	2.383777	-2.483291	-5.646997	-16.720834	-70.207092	-57.066583			
43246	5.093403	0.221448	-1.239489	1.475993	-2.531040	-5.460321	-17.529958	-69.539149	-56.446106			
43247	5.008059	-0.207025	-1.234073	1.087750	-2.655321	-5.521728	-18.488981	-68.993742	-55.750977			
43248	4.911355	-0.831592	-1.834784	0.647588	-3.372173	-5.764432	-19.492028	-68.557002	-54.999994			
43249	4.883584	-0.891819	-2.175335	0.690141	-3.700657	-5.913252	-20.426371	-68.219376	-54.216620			
43250	4.232097	-0.276616	-1.819730	1.078107	-3.008974	-6.483680	-21.334087	-67.964600	-53.392533			
43251	4.066105	-0.065366	-1.541144	1.203555	-2.641365	-6.574293	-22.207494	-67.847662	-52.452528			
43252	3.913662	0.639863	-1.537502	1.860711	-2.377279	-6.816638	-22.936039	-67.815141	-51.475972			
43253	4.316472	1.308982	-0.666056	2.411891	-1.486637	-6.240349	-23.747229	-67.907080	-50.487797			
43254	5.108742	1.058860	-0.172365	2.268542	-1.312819	-5.298235	-24.635954	-68.051795	-49.577772			
43255	5.830025	0.074677	-0.015435	1.492454	-1.635953	-4.419066	-25.202206	-68.212971	-48.846465			
43256	6.350592	0.388773	1.175447	1.643939	-0.567163	-3.580632	-25.644793	-68.439690	-48.192979			
43257	7.403652	-0.605473	1.880767	0.793492	-0.467649	-2.205493	-25.996558	-68.764419	-47.478107			
43258	8.725109	0.117419	3.819050	1.298510	1.227865	-0.456821	-26.242603	-69.110229	-46.763236			
43259	10.331541	-0.294923	4.621907	1.071003	1.478032	1.361287	-26.652346	-69.398547	-46.125005			
43260	11.178988	-0.837047	5.595586	0.488180	2.031497	2.541075	-26.709079	-69.577586	-45.594420			
43261	11.632868	0.185288	8.058309	0.870971	4.519511	3.570499	-26.791691	-69.586542	-45.231413			
43262	11.264160	-1.087994	10.344441	-1.015550	6.274426	4.139825	-26.942347	-69.455591	-45.069667			
43263	11.102875	-2.280685	12.212001	-2.640313	7.592451	4.781540	-26.805135	-69.249270	-45.174179			
43264	10.082866	-3.110433	12.269794	-3.666466	7.587975	4.002753	-26.693039	-69.122445	-45.219828			
43265	8.810591	-3.489800	11.210971	-4.061643	6.804199	2.544375	-26.651259	-69.172691	-45.149920			
43266	8.492070	-3.123782	10.043690	-3.533553	5.949765	1.800354	-26.478825	-69.425764	-45.026184			
43267	8.260038	-1.622941	8.315846	-1.809672	4.969948	0.772160	-26.297095	-69.896213	-44.787236			
43268	8.829620	-0.277587	5.598267	0.238326	2.884660	0.237190	-26.038854	-70.569010	-44.491531			
43269	8.553365	1.012107	2.233929	2.247734	0.440361	-1.214628	-25.713206	-71.454432	-44.169921			
43270	12.104441	3.592758	2.101117	5.334729	0.595347	1.807163	-25.051725	-72.463748	-44.267559			
43271	8.651603	4.583184	-4.103307	7.367766	-3.782893	-3.172424	-23.836470	-73.734198	-44.862917			
43272	8.773622	8.747536	-7.252472	12.150565	-4.920982	-3.963713	-21.281051	-76.058714	-46.912886			
43273	19.319993	12.025015	-1.834894	14.547861	-0.493816	7.773497	-14.644887	-77.893945	-53.834896			
43274	24.621838	7.028098	11.080515	5.780968	8.172027	16.228554	-12.027376	-76.504187	-57.399113			
43275	12.280551	-6.846870	16.750605	-9.971813	10.564161	6.531193	-18.607797	-74.809981	-53.072240			
43276	10.752289	-16.691575	3.845256	-15.010757	-3.802248	3.193549	-28.216485	-75.176472	-44.402088			
43277	13.308523	-5.512402	-7.541464	-0.574237	-10.993118	2.153227	-31.475785	-76.385991	-39.846058			
43278	12.770583	6.705229	-7.407070	10.788709	-6.399376	0.460483	-26.062193	-77.760625	-42.791474			
43279	9.284059	14.372015	1.375131	14.041145	5.408062	-1.555235	-17.594478	-78.788947	-49.198729			
43280	6.324459	20.236609	1.769027	18.750131	8.485215	-4.422170	-17.889784	-79.994369	-50.700668			
43281	5.743848	5.527391	-4.791938	7.414258	-3.277447	-5.253458	-32.641518	-80.824601	-39.656058			
43282	5.427421	-5.250895	-15.567845	-0.157912	-16.792430	-5.660456	-54.632902	-80.657748	-21.496613			
43283	8.166229	-17.176357	-17.000831	-11.677106	-20.669656	-0.489400	-68.580970	-78.795805	-10.839828			
43284	8.509149	-20.027506	-8.174897	-16.399543	-11.856097	1.624117	-66.710505	-77.961111	-14.619654			
43285	2.271174	-9.414034	-1.963413	-8.337237	-3.648559	-5.964348	-68.499397	-78.457261	-10.931390			
43286	5.333312	-2.525477	-3.456933	-0.775469	-3.996000	-4.317180	-77.541985	-80.235808	0.260932			
43287	12.349500	-1.598409	-6.783442	1.950784	-6.734108	2.512127	-90.426311	-82.217732	15.671924			
43288	13.319805	2.684392	-5.514001	5.623317	-3.992154	3.127670	-97.967997	-83.836409	25.342329			
43289	10.000458	4.761009	-3.437941	6.423268	-1.344931	-0.251185	-103.955869	-85.034621	32.568030			
43290	9.127191	4.276202	-1.446002	5.118796	0.480546	-1.023666	-112.470764	-85.240678	41.805029			
43291	8.909372	3.303875	-0.971524	3.960874	0.757365	-1.154100	-123.009141	-84.629637	52.654786			
43292	10.014844	1.446429	-3.157055	2.972579	-1.644852	0.227791	-130.935789	-83.837048	60.487702			
43293	8.535837	0.377509	-2.606387	1.664970	-1.470765	-1.160529	-135.703541	-83.264361	65.044797			
43294	7.919114	0.330342	-2.719930	1.576283	-1.543617	-1.728726	-141.714494	-82.612522	70.872887			
43295	9.101769	0.630273	-2.695852	1.827298	-1.141129	-0.546453	-147.250435	-81.771159	76.163145			
43296	9.924461	-0.156292	-1.904535	0.782825	-0.370323	0.256768	-150.779104	-80.849108	79.118499			
43297	10.173755	-1.382818	-1.825066	-0.443905	-0.453186	0.596091	-152.750178	-79.856043	80.340111			
43298	9.422677	-2.018192	-2.255608	-0.976796	-0.996339	-0.014804	-154.409700	-79.006111	81.248394			
43299	8.909307	-1.620096	-1.219403	-0.962233	0.137562	-0.727478	-156.755569	-78.334160	83.051341			
43300	9.006138	-0.781430	-0.439259	-0.439880	1.246530	-0.859199	-159.415492	-77.568713	85.451402			
43301	9.578355	-0.317983	-0.932344	0.072995	1.171055	-0.255703	-162.096618	-76.684998	87.951448			
43302	10.298436	0.179972	-1.313748	0.567902	1.261947	0.478010	-164.560522	-75.866339	90.212222			
43303	10.469791	0.789364	-1.005667	0.976693	1.884375	0.519025	-166.705653	-75.163246	92.021362			
43304	10.582130	1.011201	-0.741714	1.042013	2.330539	0.533114	-168.445325	-74.488754	93.156988			
43305	10.608589	0.433133	-0.665342	0.416343	2.374265	0.548821	-169.631609	-73.831749	93.405332			
43306	10.485917	-0.752168	-1.213336	-0.627103	1.669619	0.618529	-170.480024	-73.232069	93.088225			
43307	10.139869	-1.902488	-1.331075	-1.733940	1.337199	0.356493	-171.182253	-72.737061	92.562055			
43308	9.871255	-2.875350	-1.841116	-2.604780	0.725150	0.276249	-171.891151	-72.242395	92.093344			
43309	9.603427	-3.643431	-3.175033	-3.166235	-0.600274	0.443725	-172.713154	-71.762778	91.916891			
43310	9.096691	-3.310071	-3.911582	-2.776748	-1.276277	0.170617	-173.584748	-71.314852	92.138317			
43311	8.826813	-2.059604	-3.336314	-1.672571	-0.549947	-0.316114	-174.213514	-70.828893	92.509797			
43312	8.780262	-0.879316	-2.468775	-0.661739	0.497339	-0.687171	-174.707213	-70.253602	92.973310			
43313	8.966764	0.149386	-2.083999	0.264624	1.153039	-0.682090	-175.308526	-69.647871	93.568164			
43314	9.123201	0.738605	-2.027018	0.796707	1.429915	-0.581921	-175.939903	-69.125550	94.122355			
43315	8.662005	0.921119	-2.058056	0.960265	1.333704	-1.014214	-176.422438	-68.682730	94.345781			
43316	8.327986	0.223601	-2.710165	0.343812	0.584467	-1.078266	-176.686451	-68.193151	94.113524			
43317	8.818062	-1.291653	-3.813089	-1.052909	-0.358817	-0.183141	-176.855783	-67.725570	93.624022			
43318	9.532807	-2.705825	-3.569518	-2.512972	0.061929	0.415602	-176.830655	-67.397276	93.004825			
43319	9.403539	-3.541997	-2.739946	-3.420149	0.759162	-0.004246	-176.649383	-67.194478	92.427321			
43320	8.776900	-3.283421	-1.945715	-3.218382	1.324618	-0.897093	-176.526373	-66.904139	92.235333			
43321	8.662568	-1.969360	-1.286203	-1.976496	2.064912	-1.303753	-176.543193	-66.388384	92.579552			
43322	8.751146	-0.525409	-1.273378	-0.571970	2.339239	-1.287439	-176.747604	-65.673937	93.346906			
43323	9.026779	0.633592	-1.793475	0.578519	2.214351	-0.876172	-177.251589	-64.984838	94.373000			
43324	9.176319	1.535048	-1.649503	1.389695	2.610195	-0.838456	-177.905689	-64.486349	95.219813			
43325	8.822117	1.499467	-0.834576	1.231887	3.247191	-1.523379	-178.303716	-64.103654	95.370168			
43326	8.447386	0.346288	-0.565796	0.074367	3.240551	-1.983814	-178.409479	-63.645320	94.841319			
43327	8.781947	-1.502366	-1.931687	-1.607638	2.046377	-1.075515	-178.255879	-63.189097	93.992775			
43328	8.936151	-2.706535	-1.946801	-2.782907	2.061365	-0.925843	-178.122210	-62.941084	93.430619			
43329	8.095326	-2.597721	-1.097356	-2.715045	2.487147	-2.071293	-178.209050	-62.744175	93.437725			
43330	7.584372	-2.077892	-1.188675	-2.187294	2.256349	-2.506684	-178.307424	-62.299691	93.783302			
43331	7.784506	-1.728933	-2.896590	-1.723099	0.937314	-1.558613	-178.619007	-61.668657	94.508379			
43332	8.281146	-0.802829	-4.449272	-0.726009	-0.020859	-0.405795	-179.369263	-61.164575	95.620214			
43333	9.295735	0.261137	-4.051236	0.177718	0.990502	0.280778	179.916150	-60.812957	96.381048			
43334	8.923672	0.551505	-3.483742	0.394897	1.374994	-0.324488	179.793484	-60.639731	96.155168			
43335	10.015709	-0.480552	-3.459075	-0.694450	1.859841	0.606960	179.577803	-60.387036	95.655265			
43336	10.966554	-2.245730	-4.634385	-2.413588	1.193391	1.999865	179.345983	-60.302774	95.257359			
43337	10.895804	-2.041761	-3.824793	-2.280985	1.907745	1.530764	178.954185	-60.255633	95.168645			
43338	11.961373	-1.677577	-3.310765	-2.020990	2.941822	2.191933	178.549920	-60.078678	95.113096			
43339	13.658605	-1.808465	-3.197299	-2.253472	3.923861	3.587897	178.171018	-59.916568	94.993467			
43340	14.210774	-1.530779	-2.180971	-2.054490	5.128113	3.548732	177.829069	-59.898839	94.874265			
43341	14.381818	-1.065899	-0.866803	-1.645022	6.372572	3.048431	177.422206	-60.016915	94.819776			
43342	15.833568	-0.319999	0.817960	-0.999572	8.562729	3.497223	176.974606	-60.169270	94.782872			
43343	17.729023	-0.132875	1.389591	-0.902371	9.942618	4.904510	176.243190	-60.528242	95.015396			
43344	18.377366	-0.000087	2.017284	-0.825886	10.629257	5.291111	175.464659	-61.537798	95.448226			
43345	19.187758	-0.657547	5.464590	-1.575698	13.627140	4.686869	174.906109	-63.633609	96.118399			
43346	12.834500	0.661484	9.991215	-0.066219	14.495826	-2.408955	174.286683	-65.963956	97.088489			
43347	11.782659	1.855359	6.280508	1.119866	10.510668	-1.446921	173.777632	-66.750585	98.099943			
43348	14.669337	0.736309	2.382940	-0.191496	7.832136	2.837334	172.951129	-67.812695	99.489143			
43349	14.228433	0.472211	3.855446	-0.575856	8.721185	2.067074	171.793223	-69.443046	100.971963			
43350	12.259377	-0.783518	-0.021789	-1.606600	4.008129	1.687393	170.052858	-70.957282	102.027066			
43351	14.482221	-2.894945	-4.310866	-3.791894	0.258748	5.095224	168.394772	-72.251248	102.732870			
43352	14.947846	-1.927430	-5.697291	-2.888112	-1.223039	5.991270	167.136748	-73.568536	103.361766			
43353	14.650802	-0.927006	-5.342225	-1.888174	-1.271558	5.642242	166.158085	-74.717261	103.903098			
43354	14.003603	-0.349027	-5.425019	-1.279449	-1.783385	5.047711	165.223942	-75.622165	104.530458			
43355	13.087081	1.519033	-5.220475	0.642919	-1.988991	4.203777	164.985999	-76.203150	104.376731			
43356	12.606053	1.253127	-6.032384	0.406851	-2.984702	3.891268	165.867048	-76.422783	102.784528			
43357	13.775475	-1.227856	-10.808717	-2.238392	-7.389695	5.950586	167.359787	-76.908845	100.743796			
43358	13.340987	-3.112681	-8.877625	-3.912384	-5.815221	4.929755	168.724541	-78.574038	99.794922			
43359	11.206801	-2.320192	-5.325735	-2.772897	-3.175709	2.084805	169.998324	-80.282118	99.436961			
43360	12.889385	-2.009750	-6.636353	-2.318218	-4.647943	3.869739	172.169391	-82.358659	98.557547			
43361	11.344557	-2.104989	-5.696402	-2.140221	-4.459079	2.065132	175.775955	-84.846888	96.262676			
43362	10.516299	-1.619542	-4.565514	-1.463538	-3.920372	0.981807	-176.974912	-87.445592	90.156426			
43363	9.961006	-0.489405	-1.656175	-0.357687	-1.440879	0.186568	-115.553263	-89.559590	29.167139			
43364	9.422481	-0.408754	-3.867586	-0.063433	-3.959156	-0.419899	-33.407292	-88.610882	-52.969136			
43365	11.328327	-1.100430	-6.353884	-0.483452	-6.763783	1.319354	-24.489173	-87.169980	-61.877378			
43366	10.580103	-0.259460	-4.900247	0.337798	-5.506989	0.461933	-20.636342	-85.507514	-65.800656			
43367	9.997979	-0.806049	-3.889691	-0.203679	-4.762576	-0.168604	-19.756419	-83.914023	-66.809661			
43368	9.800037	-0.910785	-4.291061	-0.195105	-5.395028	-0.531977	-19.513788	-82.304415	-66.905010			
43369	8.291560	-0.468802	-3.917967	0.253177	-5.026359	-2.132417	-19.473832	-80.761738	-66.651366			
43370	7.240615	-0.519472	-4.102785	0.255116	-5.224832	-3.319515	-19.431719	-79.341681	-66.197968			
43371	6.579122	0.004665	-4.214772	0.842952	-5.309802	-4.143356	-19.178690	-78.004162	-65.817798			
43372	5.960598	-0.099832	-4.425814	0.811220	-5.512177	-4.905407	-18.751967	-76.716733	-65.502575			
43373	5.745551	0.023124	-3.640556	0.947445	-4.776758	-5.064185	-18.247157	-75.540790	-65.148356			
43374	5.748029	0.578357	-2.982686	1.523434	-4.144098	-5.040389	-17.824533	-74.474062	-64.779797			
43375	5.980239	0.645564	-2.580166	1.652588	-3.865004	-4.796038	-17.448371	-73.519771	-64.380930			
43376	6.187491	1.174878	-1.973910	2.194431	-3.312655	-4.542806	-17.298248	-72.659144	-63.965146			
43377	6.329187	1.296958	-1.643889	2.347843	-3.067710	-4.379530	-17.298925	-71.882233	-63.556630			
43378	6.016486	1.336083	-1.784333	2.410759	-3.154250	-4.772301	-17.503916	-71.173125	-63.192013			
43379	5.640106	0.961743	-1.900566	2.045130	-3.263263	-5.174146	-17.693535	-70.533478	-62.851951			
43380	5.380115	0.888947	-2.295189	2.024317	-3.604554	-5.580342	-17.867661	-69.937025	-62.550964			
43381	4.618515	1.189009	-2.030850	2.189269	-3.097906	-6.280172	-18.163814	-69.416310	-62.181816			
43382	4.373547	0.932525	-2.238379	1.950792	-3.281838	-6.582876	-18.650506	-68.983679	-61.709652			
43383	4.307079	1.198109	-2.193127	2.212064	-3.182164	-6.685910	-19.223914	-68.673783	-61.170551			
43384	4.389562	1.603773	-1.651711	2.564775	-2.639200	-6.492297	-19.962389	-68.442985	-60.617461			
43385	4.268898	1.222683	-1.496837	2.163300	-2.534096	-6.517624	-20.791495	-68.328409	-60.033462			
43386	4.308139	1.210451	-1.689379	2.193619	-2.726917	-6.552135	-21.574763	-68.330724	-59.369880			
43387	4.340370	1.183390	-1.649578	2.179724	-2.694559	-6.503842	-22.463233	-68.452974	-58.564336			
43388	4.649839	0.927372	-1.479665	1.981674	-2.659380	-6.115252	-23.290107	-68.644061	-57.710837			
43389	4.973154	1.782045	-0.381665	2.753026	-1.552673	-5.562561	-24.186234	-68.926350	-56.877871			
43390	5.921511	0.525867	-0.616285	1.752226	-2.245647	-4.558428	-25.113036	-69.286376	-56.091079			
43391	7.171837	1.463111	1.011325	2.715459	-0.869724	-2.995920	-25.790960	-69.689018	-55.441914			
43392	9.472748	1.147711	2.946909	2.624089	0.304304	-0.181715	-26.456984	-70.072966	-54.937296			
43393	12.103465	0.459750	5.675934	2.152048	2.090379	3.222658	-26.990588	-70.265631	-54.698029			
43394	14.045253	-0.831882	8.930321	0.952506	4.450606	6.218407	-27.519835	-70.201672	-54.642521			
43395	15.304065	-3.658427	10.646198	-1.612662	5.282133	8.365214	-28.283769	-69.941588	-54.464850			
43396	14.406493	-5.953550	12.607131	-4.050487	7.012810	8.526955	-28.808273	-69.470920	-54.238680			
43397	11.404874	-6.602499	12.964914	-5.194385	8.045231	6.000099	-29.288054	-69.071487	-53.792835			
43398	9.333035	-5.604868	12.496913	-4.549319	8.323267	3.778475	-29.902999	-69.024972	-53.145395			
43399	8.699770	-5.436291	10.643522	-4.340798	6.822061	2.562292	-30.603380	-69.305702	-52.456908			
43400	9.501552	-4.417866	10.266633	-3.174849	6.449795	2.974833	-30.638419	-69.602623	-52.211052			
43401	9.029099	-4.194286	8.616850	-2.981507	5.076129	1.964816	-30.266443	-69.901798	-52.254386			
43402	8.764216	-3.248426	6.648611	-2.039198	3.444121	0.936528	-29.484574	-70.433203	-52.264188			
43403	9.015905	-1.251382	2.743700	0.259865	0.069903	-0.309766	-28.973152	-71.430902	-51.736876			
43404	11.961901	0.990094	-1.413172	3.455221	-3.999555	1.055544	-29.473306	-73.057351	-50.364064			
43405	15.593714	3.704934	-2.947427	6.844823	-5.385380	3.960441	-29.010069	-74.832873	-49.783479			
43406	12.366846	5.957406	-3.395367	8.384199	-4.335766	0.715823	-26.217092	-76.180778	-51.158676			
43407	10.712992	6.494628	2.079417	7.353915	1.526461	0.427185	-21.426152	-76.523863	-54.499647			
43408	9.431031	3.539049	9.606266	2.458192	8.099080	1.237358	-18.529461	-75.329112	-56.655089			
43409	7.381475	-5.439349	12.712706	-7.151305	8.979790	0.859932	-20.747798	-74.959667	-54.764718			
43410	14.070468	-5.925466	1.389524	-3.908132	-3.090177	4.685308	-23.122456	-75.990117	-51.720028			
43411	15.694277	3.919863	-6.210633	7.593172	-7.557709	3.805242	-20.000598	-77.464598	-52.662097			
43412	14.577951	10.653377	-2.814399	12.613219	-1.657980	3.303388	-9.480906	-78.361721	-60.203851			
43413	8.737604	19.507511	5.346993	17.164265	10.224894	-0.524206	-0.276356	-78.618016	-68.897196			
43414	6.435085	17.874056	1.150814	16.958899	5.793218	-3.411849	-4.413677	-79.470665	-68.182009			
43415	4.189435	3.060340	-4.931325	4.555379	-4.508023	-6.625864	-24.039474	-80.643651	-52.884833			
43416	3.738419	-4.647270	-13.325187	-1.688761	-14.273528	-7.285859	-54.076367	-80.775611	-27.404465			
43417	8.391749	-22.280217	-20.561940	-18.282599	-23.532877	0.240121	-69.302365	-78.825435	-16.246076			
43418	10.460413	-21.392120	-7.254197	-18.547539	-9.387593	3.881024	-65.073664	-77.518030	-22.320861			
43419	0.059603	-12.958116	-0.487743	-12.647474	-1.340437	-7.284737	-66.203016	-77.900580	-19.732230			
43420	5.259038	-6.489738	-5.222856	-4.957190	-6.048130	-3.821222	-74.377743	-79.746592	-9.814450			
43421	12.785972	-5.447763	-6.590732	-2.468184	-7.372934	3.458983	-83.934974	-81.530795	2.413984			
43422	12.193763	-0.124152	-4.612944	2.285043	-4.402837	2.244284	-88.638684	-83.033402	9.691237			
43423	10.276492	2.434107	-3.834870	4.278723	-3.014734	0.129023	-91.122988	-84.251242	14.135352			
43424	9.327631	3.095033	-2.087472	4.332058	-1.037863	-0.807423	-94.708174	-84.955183	19.417045			
43425	9.423972	3.350351	-0.983649	4.214703	0.251807	-0.692734	-101.579016	-85.287990	27.594254			
43426	9.615331	3.057782	-1.320345	3.955422	0.016608	-0.437211	-111.035821	-85.372999	37.914180			
43427	9.866341	2.768411	-1.957556	3.806848	-0.513847	-0.113072	-119.816880	-85.310880	47.336701			
43428	9.411982	2.413108	-0.955466	3.080934	0.427895	-0.558224	-126.305089	-85.120070	54.205431			
43429	8.971831	1.607484	-0.447009	2.100812	0.736721	-0.962803	-131.536953	-84.643626	59.492713			
43430	9.221978	0.501578	-0.821063	1.171990	0.186402	-0.617000	-135.438481	-83.822218	63.098517			
43431	9.721389	-0.898103	-2.097762	0.272080	-1.244609	0.091208	-137.478364	-82.856792	64.592433			
43432	9.460041	-2.190726	-2.860155	-0.726847	-2.222518	0.036304	-138.415588	-82.088419	65.020908			
43433	8.565851	-1.935425	-1.848523	-0.824283	-1.187916	-0.955745	-140.397816	-81.600673	66.789725			
43434	8.060408	-0.859923	-1.255465	-0.028714	-0.298340	-1.615439	-144.617789	-81.075681	71.189894			
43435	8.292424	0.100307	-1.627046	0.934074	-0.232837	-1.416690	-149.900959	-80.441857	76.885311			
43436	8.939136	1.034368	-2.281239	1.939564	-0.344632	-0.740824	-154.979208	-79.815231	82.363865			
43437	9.447925	1.861091	-2.428150	2.671401	-0.025805	-0.247981	-158.946906	-79.249560	86.462332			
43438	9.326275	1.733959	-2.367843	2.440803	0.075977	-0.345467	-161.266573	-78.619113	88.458052			
43439	9.180198	0.321028	-2.479987	1.073809	-0.359293	-0.365679	-162.160193	-77.809960	88.568796			
43440	9.456753	-1.644582	-3.632254	-0.518055	-1.778868	0.281510	-162.383180	-76.910819	87.733241			
43441	9.487435	-3.617672	-4.422690	-2.252175	-2.859330	0.647177	-162.527163	-76.262430	86.903122			
43442	8.768990	-4.111142	-3.379127	-3.050713	-2.037029	-0.233659	-163.382486	-75.871760	87.123407			
43443	8.150520	-3.848059	-2.627322	-3.036540	-1.323227	-1.028106	-164.884234	-75.310524	88.489691			
43444	8.693144	-3.332116	-2.940462	-2.519604	-1.257950	-0.464548	-166.736182	-74.474092	90.737114			
43445	9.180883	-1.818112	-2.745626	-1.173905	-0.472641	-0.141629	-168.565845	-73.619496	93.429115			
43446	9.186740	0.051590	-2.070183	0.363916	0.742625	-0.431949	-170.448612	-72.862792	96.406379			
43447	9.477593	1.753079	-1.182561	1.620377	2.221243	-0.499588	-172.317524	-72.216082	99.338063			
43448	9.855928	2.989810	-0.146101	2.339478	3.745675	-0.507117	-173.987171	-71.685851	101.738601			
43449	9.757530	3.438001	0.755860	2.387431	4.749486	-0.905272	-175.126943	-71.210043	103.031523			
43450	9.244996	3.066161	0.990910	1.952016	4.759149	-1.482457	-175.671174	-70.536311	103.082463			
43451	9.157745	1.831283	0.016402	1.061168	3.591811	-1.257612	-175.961718	-69.501522	102.342873			
43452	9.630065	0.290619	-2.263892	0.161560	1.447073	-0.023713	-175.880956	-68.245034	101.055361			
43453	9.734829	-1.290720	-3.962331	-0.971952	-0.229019	0.729215	-175.750052	-67.157613	99.778623			
43454	9.041089	-2.144427	-3.891455	-1.813009	-0.446590	0.086537	-176.083417	-66.383660	99.249686			
43455	8.145978	-1.493208	-2.760750	-1.415379	0.488181	-1.212379	-176.699766	-65.585979	99.546249			
43456	8.180673	-0.189065	-2.244591	-0.314637	1.372920	-1.445409	-177.329331	-64.557481	100.370278			
43457	8.846285	0.969218	-2.551788	0.744700	1.788319	-0.759939	-178.083349	-63.520455	101.464662			
43458	8.937135	1.754816	-2.182906	1.335490	2.458289	-0.874641	-178.816064	-62.797188	102.285507			
43459	8.082500	1.599875	-1.005481	0.968282	3.139827	-2.190291	-179.294857	-62.248381	102.367020			
43460	7.941721	0.285160	-0.858848	-0.335907	2.983159	-2.404789	-179.490588	-61.527688	101.736048			
43461	8.952671	-1.928226	-2.792713	-2.229809	1.454290	-0.616037	-179.499120	-60.742097	100.772640			
43462	9.875767	-3.798067	-3.377705	-4.050110	1.188081	0.460979	-179.521998	-60.209244	100.035431			
43463	9.585677	-4.194506	-2.860010	-4.512215	1.539165	-0.069553	-179.862774	-59.817059	99.833792			
43464	9.458049	-3.973601	-3.432375	-4.239452	1.127216	0.075721	179.620820	-59.275495	100.058762			
43465	10.050677	-3.178073	-3.787440	-3.521473	1.362865	0.732513	179.071465	-58.630176	100.526529			
43466	10.675718	-1.946783	-3.848833	-2.437229	1.932845	1.273217	178.413269	-58.141200	101.113319			
43467	10.273248	-0.761460	-3.613443	-1.335095	2.181070	0.800341	177.784042	-57.881714	101.527915			
43468	10.009235	-0.240238	-3.454691	-0.872225	2.293473	0.490533	177.129949	-57.724099	101.668588			
43469	10.950083	-0.365514	-3.404708	-1.150846	2.832373	1.245474	176.451624	-57.561455	101.619749			
43470	11.915226	-0.565718	-3.624810	-1.477903	3.149402	2.159309	175.640512	-57.468558	101.584972			
43471	12.858167	-0.673016	-2.456427	-1.840107	4.624020	2.313803	174.881241	-57.452852	101.596478			
43472	13.349939	-0.642788	-1.202988	-2.000006	5.944020	2.051112	174.060195	-57.447698	101.757691			
43473	14.738218	-0.732741	-0.043103	-2.360458	7.630027	2.595559	173.070163	-57.542534	102.095998			
43474	16.302421	-0.297065	0.865372	-2.184255	9.224071	3.482092	172.162751	-57.784864	102.335937			
43475	17.546952	-0.447060	2.087214	-2.504644	10.824859	3.935030	171.495736	-58.170820	102.219475			
43476	18.232082	-1.187087	2.341829	-3.237630	11.232191	4.422989	170.705421	-58.781186	101.992025			
43477	18.823597	-2.133123	2.123361	-4.133120	11.077090	5.140230	169.811937	-60.018751	101.984133			
43478	15.947481	-2.079317	1.997953	-3.710548	9.188199	3.009869	168.992158	-62.126300	102.538282			
43479	11.197912	-0.822070	2.744210	-1.994452	7.352789	-1.121048	168.334984	-64.016317	103.829149			
43480	11.893884	2.056258	4.831816	0.640980	9.458353	-0.915512	167.885596	-65.175959	105.427325			
43481	13.178342	2.741349	3.196660	1.083637	8.364979	1.153138	166.813009	-66.103126	107.001443			
43482	13.668660	1.907625	-0.567394	0.273254	4.795142	3.137891	165.018417	-67.181185	108.288004			
43483	13.564895	0.890303	-4.344934	-0.633755	0.911226	4.415456	163.745639	-68.127700	108.754345			
43484	14.593967	1.657853	-5.603048	0.001151	-0.122828	5.906873	162.513196	-69.076700	109.198608			
43485	14.016691	3.136929	-6.003354	1.513992	-0.909548	5.654106	161.383943	-70.033650	109.831937			
43486	13.360455	4.592887	-5.605969	3.013196	-0.977875	5.052732	160.121711	-70.984398	110.635682			
43487	12.856280	4.660467	-5.638695	3.132074	-1.458738	4.569697	159.097629	-72.080686	111.206619			
43488	12.043550	3.661287	-4.647870	2.282323	-1.065796	3.366927	158.728813	-73.323596	111.107188			
43489	11.453226	2.237651	-4.052527	1.025495	-0.928415	2.462793	159.206545	-74.478589	110.087843			
43490	11.284298	1.178275	-4.585089	0.088806	-1.698213	2.305504	160.550356	-75.552208	108.180778			
43491	11.109916	-0.647719	-6.213408	-1.670472	-3.491955	2.330963	161.332337	-76.669837	106.781417			
43492	11.580072	-2.872851	-8.314159	-3.872903	-5.620930	3.027574	162.719153	-77.908226	105.944829			
43493	11.690447	-0.423245	-4.943880	-1.152008	-2.668815	2.549480	162.977801	-79.619333	106.989295			
43494	10.512076	1.596408	-3.679293	1.054857	-1.969362	1.214048	160.782947	-81.357340	109.938314			
43495	11.460191	1.103069	-7.508753	0.617725	-6.000765	2.537436	156.329736	-83.186107	114.760326			
43496	11.444624	1.341873	-6.305060	0.932275	-5.261315	2.185479	146.873221	-85.513534	124.663009			
43497	8.928952	2.534392	-1.666946	2.199160	-1.204590	-0.722666	123.690680	-87.377676	147.518689			
43498	9.628670	0.014706	-4.378218	-0.250279	-4.261372	-0.135270	89.483923	-88.286544	-178.979470			
43499	10.372788	-0.993315	-5.760005	-1.219083	-5.916264	0.447022	37.761463	-87.944010	-127.450184			
43500	9.397642	0.384819	-4.383264	0.234538	-4.783565	-0.607736	14.122092	-86.579386	-103.958769			
43501	8.479047	-0.651474	-4.235982	-0.729408	-4.827788	-1.663003	4.491939	-85.167622	-94.412794			
43502	8.455674	-0.191964	-5.254326	-0.190911	-6.045097	-1.903339	-0.010835	-83.762522	-89.540450			
43503	7.490414	0.516104	-4.253528	0.592779	-5.120337	-2.892293	-2.407549	-82.359792	-86.782788			
43504	7.490429	0.639594	-4.633383	0.803787	-5.647378	-3.071678	-3.747811	-81.080793	-84.878322			
43505	7.515360	1.811357	-4.193754	2.052143	-5.321786	-3.118416	-4.668749	-79.803452	-83.432665			
43506	7.625363	1.675157	-3.802393	1.985309	-5.086669	-3.060505	-5.567821	-78.591078	-82.121788			
43507	7.376805	1.950107	-3.160849	2.297147	-4.522213	-3.294921	-6.446978	-77.370240	-81.015623			
43508	6.966968	1.809651	-2.852969	2.183484	-4.258251	-3.725763	-7.551186	-76.258967	-79.944108			
43509	6.255457	1.220297	-2.399347	1.588141	-3.782938	-4.377378	-8.915381	-75.239364	-78.842105			
43510	5.669371	0.737256	-2.379037	1.108352	-3.722653	-4.990066	-10.441467	-74.328536	-77.664886			
43511	5.230494	0.372937	-2.555945	0.748977	-3.856260	-5.500174	-12.126801	-73.541415	-76.442630			
43512	5.189521	-0.114812	-3.113677	0.285495	-4.444800	-5.713758	-13.845234	-72.861858	-75.218482			
43513	4.745997	-0.246592	-2.947988	0.133375	-4.197934	-6.120085	-15.445803	-72.278353	-74.051803			
43514	4.754700	-0.316072	-2.958031	0.077532	-4.235114	-6.136446	-16.995687	-71.845251	-72.917193			
43515	4.592357	-0.362987	-3.111453	0.022789	-4.347928	-6.348929	-18.497294	-71.533221	-71.854531			
43516	4.535025	-0.128232	-2.689056	0.266845	-3.931292	-6.307314	-19.813372	-71.380969	-70.872995			
43517	4.900554	-0.130351	-2.903766	0.307775	-4.245372	-6.025029	-20.839878	-71.336057	-70.018696			
43518	4.845396	0.052445	-2.077655	0.526083	-3.433822	-5.846666	-21.466448	-71.384081	-69.283902			
43519	4.899364	1.188229	-0.770750	1.716930	-2.185205	-5.536391	-21.879091	-71.470029	-68.709445			
43520	5.390090	-0.051260	-0.737979	0.556233	-2.290484	-4.909163	-22.375882	-71.660740	-68.120657			
43521	5.733932	-0.359528	-0.613820	0.305652	-2.254780	-4.501707	-22.489375	-71.847562	-67.607549			
43522	6.759070	-0.009729	1.753443	0.821940	-0.251036	-2.882970	-22.467088	-72.076018	-67.029342			
43523	9.519506	-0.669749	2.701351	0.492522	-0.108568	0.092482	-22.310778	-72.267222	-66.550378			
43524	11.802873	-1.033036	4.126481	0.382203	0.631106	2.711624	-22.105255	-72.339439	-66.041217			
43525	14.478396	-1.140339	6.521880	0.553844	2.180180	5.948001	-22.127324	-72.245602	-65.521017			
43526	12.501734	-2.058598	8.019972	-0.657902	4.039822	4.612866	-21.671969	-71.778292	-65.328935			
43527	10.185692	-0.848856	9.772149	0.142973	6.349982	2.821399	-21.446366	-71.380815	-64.897259			
43528	9.110101	-1.269937	10.410503	-0.498638	7.154934	2.084481	-21.194696	-71.031836	-64.576393			
43529	8.379155	-0.826938	10.803251	-0.252345	7.713282	1.503003	-20.706179	-70.770135	-64.454741			
43530	7.701024	-1.354784	10.347238	-0.918383	7.382088	0.811222	-20.299674	-70.698160	-64.440109			
43531	8.242257	-0.831716	10.420971	-0.409536	7.336097	1.288504	-19.831814	-70.824092	-64.458747			
43532	8.688195	-0.410731	9.751191	0.037511	6.625730	1.449505	-19.354749	-70.949114	-64.596556			
43533	7.923590	0.656513	8.025914	1.050782	5.360702	0.076082	-18.770227	-71.125573	-64.771694			
43534	8.544840	1.849095	5.442067	2.481619	2.912915	-0.252056	-18.334237	-71.367436	-64.896922			
43535	8.043075	2.040673	2.161011	2.875058	0.032566	-1.734464	-18.229788	-71.909674	-64.744274			
43536	9.601099	3.172461	-1.801355	4.562891	-3.891144	-1.474454	-18.247393	-72.977598	-64.379647			
43537	12.814353	5.899152	-2.938949	7.708578	-5.203650	1.193313	-17.779311	-74.474993	-64.392786			
43538	16.779359	8.692265	-1.310673	10.532355	-3.856980	5.451320	-15.529586	-75.929846	-66.182539			
43539	15.863687	8.531705	2.874591	9.481973	0.555192	5.759343	-12.345049	-76.152836	-68.861937			
43540	12.817502	4.549012	11.224497	4.034820	8.524317	5.087636	-12.206906	-75.069355	-68.964529			
43541	8.341249	-4.577668	11.157813	-5.186638	7.982358	1.340883	-15.744800	-74.819430	-66.148013			
43542	15.273906	-4.323238	3.710475	-3.115120	-0.620177	6.176570	-17.423182	-75.718106	-64.030204			
43543	16.426197	7.603099	-2.788766	9.555018	-4.953178	5.004669	-13.631592	-76.583870	-66.174581			
43544	13.201366	14.608284	0.257344	15.386823	0.270512	2.471065	-7.895294	-76.959684	-70.506183			
43545	6.517601	17.139121	2.476819	16.798013	4.422635	-3.438600	-8.040019	-77.592751	-71.008431			
43546	4.931424	11.465911	-1.641072	11.914263	-0.629913	-5.799615	-16.321309	-78.795413	-66.054033			
43547	5.459612	1.451512	-8.187731	2.599537	-8.777578	-5.924937	-32.563131	-79.912389	-54.804828			
43548	5.207390	-5.072233	-14.647552	-4.533138	-15.206760	-5.890277	-55.234504	-80.052760	-37.474427			
43549	6.786720	-17.579999	-21.435782	-18.092038	-20.609365	-1.933573	-72.162732	-78.424016	-24.547016			
43550	11.009033	-23.185557	-11.864685	-22.202336	-9.721021	4.748514	-70.222064	-77.349004	-29.204445			
43551	2.639622	-15.412697	-3.038011	-14.908043	-1.041313	-4.298266	-69.295118	-77.333270	-29.198193			
43552	3.052257	-6.950298	-4.111133	-6.768433	-3.463853	-5.724445	-75.463711	-78.898488	-21.418726			
43553	8.781240	-6.046154	-7.584755	-5.234989	-7.347367	-0.336475	-87.367735	-80.864416	-7.415564			
43554	13.298260	-2.744616	-7.245545	-1.274312	-7.126681	3.768617	-96.850873	-82.653180	4.329829			
43555	10.996118	1.161566	-4.583242	2.297136	-4.424446	1.069039	-103.969015	-84.026341	13.498283			
43556	9.274700	2.475888	-2.954488	3.341432	-2.663693	-0.723404	-112.554031	-84.719965	23.464654			
43557	9.327818	2.110833	-2.490094	2.927599	-2.038099	-0.596532	-120.364180	-84.671878	32.214937			
43558	9.283503	1.024681	-2.140584	1.830741	-1.575389	-0.540129	-126.737206	-84.252398	39.204668			
43559	9.737468	-0.030112	-2.475934	0.842617	-1.794432	0.037096	-131.650492	-83.855083	44.618576			
43560	9.369406	-0.290692	-1.863235	0.520979	-1.117091	-0.335250	-135.901594	-83.543100	49.424142			
43561	8.903084	-0.206542	-1.380139	0.517575	-0.571626	-0.834008	-141.040412	-83.200349	55.164991			
43562	8.937060	0.181688	-1.378740	0.860818	-0.419924	-0.819031	-147.125555	-82.721788	61.871855			
43563	9.289988	0.645126	-1.303111	1.273288	-0.124623	-0.497165	-152.958871	-82.116996	68.228010			
43564	9.565026	0.874078	-1.612443	1.478659	-0.216764	-0.188871	-157.439162	-81.393832	73.087892			
43565	9.628648	0.938064	-1.661014	1.503707	-0.096468	-0.113332	-160.074382	-80.643793	75.872782			
43566	9.451071	0.514494	-1.412084	1.029598	0.214808	-0.300908	-161.386758	-79.913993	77.060777			
43567	9.505246	-0.312151	-1.360005	0.203102	0.322482	-0.213200	-162.235399	-79.169619	77.672067			
43568	9.744154	-0.778894	-1.408908	-0.252808	0.405410	0.051924	-163.495954	-78.452852	78.798301			
43569	9.870511	-0.636591	-1.065012	-0.169502	0.900920	0.093108	-165.290081	-77.835953	80.665936			
43570	9.949623	0.095444	-0.681546	0.467950	1.474091	0.039983	-167.350630	-77.203276	82.914505			
43571	10.125050	0.796776	-0.697530	1.104066	1.682012	0.166704	-169.326864	-76.562445	84.971902			
43572	10.288882	0.862450	-0.804734	1.124471	1.736050	0.334879	-170.794356	-75.973383	86.205756			
43573	9.836693	-0.104291	-0.927001	0.142130	1.519400	-0.050452	-171.365477	-75.441008	86.165565			
43574	9.495517	-1.648693	-1.449264	-1.351502	0.908417	-0.203806	-171.493451	-74.910751	85.444148			
43575	9.427085	-2.988551	-2.312561	-2.615790	0.084111	0.000507	-171.490249	-74.459473	84.643017			
43576	9.199857	-3.678173	-2.229732	-3.314319	0.166580	-0.214509	-171.792721	-74.137762	84.485007			
43577	8.745420	-3.226797	-1.980199	-2.907044	0.368893	-0.744698	-172.606614	-73.797923	85.312386			
43578	9.077383	-1.543124	-2.440392	-1.243473	0.149030	-0.369885	-174.086461	-73.402338	87.087289			
43579	9.435487	-0.175146	-2.566380	0.062730	0.256518	-0.036448	-175.668707	-73.073494	89.152903			
43580	8.636327	0.418623	-1.103195	0.489834	1.528400	-1.245220	-176.557793	-72.552976	90.997310			
43581	8.378551	1.718679	0.252217	1.602843	2.956201	-1.944616	-177.448888	-71.649728	92.898039			
43582	9.012756	2.701025	-1.219579	2.603176	2.032029	-0.918717	-179.089974	-70.454081	94.881427			
43583	10.021279	2.577294	-4.548295	2.676308	-0.590859	1.152771	179.935984	-69.621508	95.728252			
43584	9.241617	1.982506	-2.773150	1.904160	0.832472	-0.184127	179.778905	-69.255180	95.330139			
43585	8.410999	0.336642	-2.572458	0.275720	0.637159	-1.038104	179.870901	-68.750516	94.450692			
43586	8.526268	-0.926409	-3.691600	-0.904591	-0.352988	-0.526190	-179.898662	-67.995411	93.603435			
43587	8.885927	-1.832755	-4.225012	-1.794262	-0.639865	0.012748	179.973804	-67.302365	93.382711			
43588	8.366316	-1.761001	-3.533832	-1.775308	-0.082148	-0.733873	179.518601	-66.638397	93.749867			
43589	7.941690	-1.193947	-3.292274	-1.247579	0.115172	-1.224090	179.008162	-65.821947	94.295102			
43590	8.407146	-0.733173	-3.517286	-0.831742	0.257062	-0.711627	178.538288	-64.914266	94.797326			
43591	9.095273	-0.308719	-3.241208	-0.490003	0.961188	-0.212739	178.099980	-64.076648	95.257592			
43592	9.219966	-0.008324	-2.651146	-0.270801	1.694186	-0.373867	177.633777	-63.303653	95.730554			
43593	9.049303	0.018475	-2.209497	-0.304914	2.134646	-0.750625	177.154268	-62.522216	96.160105			
43594	9.100805	-0.429180	-2.191859	-0.802612	2.271227	-0.756822	176.670657	-61.666331	96.518850			
43595	9.308181	-1.035009	-3.107488	-1.433772	1.651378	-0.190546	176.029754	-60.934242	96.906322			
43596	9.194650	-1.405723	-2.777813	-1.856406	1.965391	-0.489375	175.715357	-60.398955	97.139517			
43597	8.551070	-1.356534	-2.108599	-1.820723	2.317241	-1.403058	175.603630	-59.796380	97.428074			
43598	9.171153	-0.973690	-2.942670	-1.491973	2.016387	-0.462576	175.304469	-59.125524	98.188566			
43599	9.604465	0.383961	-2.767664	-0.247825	2.577596	-0.151096	174.940960	-58.513975	99.301211			
43600	9.789746	1.712295	-2.705617	0.961708	2.937417	0.012607	174.396703	-57.957689	100.525353			
43601	10.219926	2.672200	-2.847912	1.782750	3.226392	0.488237	173.785355	-57.511048	101.433191			
43602	10.555308	2.333144	-2.675460	1.327742	3.574749	0.650299	173.252409	-57.167537	101.649192			
43603	10.260717	0.945759	-2.856664	-0.035050	3.160593	0.402332	172.822145	-56.938977	101.233224			
43604	10.124947	-0.621563	-3.927866	-1.551502	2.072306	0.752696	172.186372	-56.921185	100.710614			
43605	9.659352	-1.308352	-3.649114	-2.217359	2.020654	0.153813	171.526130	-57.034046	100.288926			
43606	9.434599	-1.405654	-3.342994	-2.327159	2.155839	-0.215831	170.621419	-57.171033	100.168555			
43607	10.926814	-1.504028	-3.160595	-2.617576	3.100825	0.919487	169.567906	-57.263544	100.295252			
43608	12.575303	-2.025345	-2.408294	-3.331323	4.611239	1.835427	168.745228	-57.202534	100.548513			
43609	13.362449	-1.101080	-1.119397	-2.490287	6.175302	1.878507	168.216004	-56.919314	100.818191			
43610	14.369215	-0.675499	-0.734320	-2.206882	7.086671	2.531471	167.321026	-56.773657	101.157871			
43611	15.379599	-1.606571	-0.456184	-3.259378	7.846476	3.115200	166.428544	-57.037072	101.317093			
43612	16.567758	-2.600247	0.514029	-4.290123	9.219197	3.533292	165.739863	-57.695900	101.290034			
43613	17.004762	-3.514267	1.286190	-5.129373	9.960914	3.515113	165.084957	-58.683547	101.328782			
43614	16.727197	-3.717439	2.197877	-5.189233	10.377640	2.986364	164.276816	-59.913026	101.799557			
43615	16.657188	-2.903529	4.161591	-4.236919	11.678767	2.387235	163.587115	-61.713085	102.946622			
43616	11.542901	0.584335	5.310757	-0.271841	9.897681	-1.829529	163.000714	-63.474225	104.548262			
43617	11.959972	1.655150	0.517617	0.289013	5.521003	0.933423	162.664493	-64.513931	106.045413			
43618	11.998765	2.093971	0.323206	0.615774	5.170784	1.202698	162.082643	-65.560535	107.814957			
43619	14.099661	2.383368	1.634801	0.589131	6.961945	2.770121	160.828355	-66.880999	109.435610			
43620	12.733060	-0.986459	-1.243306	-2.656509	3.371179	2.279403	159.543754	-68.358950	110.434573			
43621	13.385183	-2.000640	-4.507417	-3.801098	0.200124	3.934544	158.489069	-69.610888	111.281933			
43622	13.556029	0.072092	-5.211856	-1.765338	-0.658095	4.587987	157.536282	-70.608031	112.131937			
43623	13.971957	2.146713	-5.626170	0.233177	-1.130157	5.357758	156.541226	-71.332335	112.903891			
43624	13.555848	2.828827	-6.599511	0.923160	-2.386749	5.312272	155.545670	-72.040931	113.599101			
43625	13.036670	2.718982	-7.689323	0.870945	-3.788626	5.065373	155.328617	-72.898687	113.739554			
43626	12.260490	1.953078	-6.772769	0.346432	-3.334467	3.926284	155.956173	-74.006476	113.359089			
43627	11.619443	0.965773	-6.215145	-0.396558	-3.191468	3.002249	156.442230	-75.220365	113.167816			
43628	11.272944	-0.013209	-5.873317	-1.188497	-3.197361	2.431996	156.408363	-76.507827	113.640084			
43629	10.765294	-0.075884	-5.273498	-1.072301	-2.972145	1.750935	155.924726	-77.692378	114.901011			
43630	11.456079	0.388773	-5.725894	-0.539344	-3.519956	2.495459	155.010332	-78.862579	116.871681			
43631	12.383721	1.367115	-7.890996	0.586098	-5.770924	3.745617	152.663026	-80.538605	120.310778			
43632	11.133715	1.235069	-6.216420	0.692612	-4.713279	2.078981	148.055338	-82.694770	125.817155			
43633	10.608861	1.045188	-5.526051	0.666902	-4.543548	1.280871	136.340191	-84.778141	138.052669			
43634	9.772210	2.063731	-3.456249	1.684443	-2.877001	0.215877	114.061051	-86.269449	160.382243			
43635	9.472427	1.636393	-3.810111	1.367150	-3.611259	-0.220891	85.822416	-86.932286	-171.834215			
43636	10.396784	-0.214532	-5.564859	-0.356262	-5.791870	0.454946	53.820661	-86.758565	-140.348902			
43637	9.419683	-0.108929	-4.596833	-0.200689	-5.060164	-0.635535	31.705329	-85.835660	-118.406652			
43638	8.886259	0.559371	-4.363447	0.536958	-4.996919	-1.265502	18.938303	-84.634331	-105.803064			
43639	8.135691	0.438276	-4.851477	0.535954	-5.630725	-2.202123	11.008705	-83.315898	-97.943138			
43640	7.544426	0.564146	-4.950153	0.743015	-5.831434	-2.944008	5.845959	-82.027769	-92.828912			
43641	7.537676	0.341157	-4.708143	0.575906	-5.755577	-3.057125	2.261037	-80.795993	-89.155266			
43642	7.574912	0.433099	-4.750004	0.749148	-5.937451	-3.156008	-0.387431	-79.592675	-86.287721			
43643	7.339971	0.861036	-4.165254	1.226333	-5.420704	-3.403698	-2.393935	-78.457656	-83.956672			
43644	6.915888	0.998914	-3.582264	1.400544	-4.861573	-3.807556	-4.169441	-77.446826	-81.941451			
43645	6.288939	1.075477	-3.224816	1.505657	-4.454161	-4.427609	-5.711320	-76.575267	-80.159122			
43646	6.009495	1.197501	-3.337805	1.684451	-4.553375	-4.800955	-7.234891	-75.799498	-78.544916			
43647	5.842267	0.800311	-3.080462	1.312424	-4.347574	-4.950861	-8.781038	-75.130961	-77.048364			
43648	5.710175	0.468206	-2.809101	0.997513	-4.123333	-5.046239	-10.254276	-74.537723	-75.688495			
43649	5.555933	0.116138	-2.444731	0.650380	-3.797150	-5.120462	-11.606641	-74.031514	-74.469562			
43650	5.685736	-0.481199	-2.118697	0.080784	-3.590928	-4.898771	-12.791317	-73.671533	-73.344057			
43651	5.943829	-0.118262	-2.324775	0.508999	-3.849765	-4.746352	-13.765903	-73.390859	-72.353316			
43652	5.813644	0.044329	-2.409271	0.697901	-3.894209	-4.918510	-14.597530	-73.206361	-71.427081			
43653	5.977927	0.585695	-2.371594	1.284057	-3.862782	-4.799395	-15.093066	-73.092661	-70.631579			
43654	6.003091	1.531586	-2.030690	2.239619	-3.453394	-4.756539	-15.624442	-73.088575	-69.817210			
43655	6.509716	2.138262	-1.248352	2.871447	-2.771473	-4.104747	-16.107370	-73.059574	-69.073851			
43656	6.260430	2.650791	-0.259912	3.309801	-1.696589	-4.115848	-16.923237	-73.067283	-68.336523			
43657	6.319685	1.245533	0.021992	1.925312	-1.566283	-3.868772	-17.789339	-73.083402	-67.510566			
43658	6.630963	1.127038	0.898085	1.807280	-0.806611	-3.321964	-18.416393	-73.097150	-66.651203			
43659	7.052408	1.391948	2.214501	2.046930	0.387712	-2.585124	-19.040008	-73.107604	-65.779696			
43660	7.829866	0.481322	2.599127	1.236161	0.475424	-1.655501	-19.964650	-73.092899	-64.766486			
43661	8.751876	-0.037705	3.689395	0.803461	1.238911	-0.430385	-21.241235	-73.003828	-63.526207			
43662	8.918663	-1.199301	4.056448	-0.280790	1.436647	-0.050909	-22.722236	-72.838898	-62.087412			
43663	8.507349	-1.227299	4.487524	-0.316478	1.960312	-0.321871	-24.259791	-72.616126	-60.518384			
43664	8.640972	-0.984597	5.083270	-0.006474	2.529913	-0.062096	-26.034650	-72.366652	-58.950378			
43665	8.254298	-1.230171	6.215288	-0.272137	3.701075	-0.091402	-27.737400	-72.113445	-57.622959			
43666	8.961058	-1.464432	7.580811	-0.342572	4.821146	0.983217	-29.262605	-71.908671	-56.581698			
43667	9.518690	-2.854324	8.829942	-1.555519	5.751889	2.070728	-30.093205	-71.619307	-56.113548			
43668	9.004415	-3.191314	9.773776	-1.938325	6.736723	1.919733	-30.262256	-71.318618	-55.977549			
43669	8.068432	-2.413817	10.080732	-1.345787	7.310458	1.017509	-30.188318	-71.187293	-55.733171			
43670	7.293744	-1.363873	9.954645	-0.476125	7.489542	0.078408	-30.482704	-71.285405	-55.244735			
43671	6.254399	-1.353571	7.828869	-0.586441	5.756352	-1.520465	-30.896835	-71.585460	-54.513119			
43672	5.066019	0.278956	6.107090	0.855521	4.622629	-3.414417	-31.530532	-72.029008	-53.688919			
43673	4.290160	1.118074	3.294448	1.683761	2.249993	-5.057572	-32.585987	-72.631715	-52.696985			
43674	4.582072	0.994726	-1.258739	1.871212	-2.174603	-5.896243	-33.925770	-73.439486	-51.524791			
43675	6.058254	2.664834	-4.596059	3.953488	-5.497743	-5.445800	-34.949502	-74.620365	-50.230055			
43676	8.162163	6.129432	-6.442107	7.800041	-7.223247	-4.097673	-36.028375	-76.563444	-48.872240			
43677	13.866662	8.608693	-8.667351	11.012094	-9.870677	1.266085	-36.607392	-79.657864	-48.871200			
43678	23.554671	8.016598	-8.244515	10.910068	-10.256929	11.697300	-37.726938	-82.589988	-48.352080			
43679	35.311065	4.140244	0.387217	7.154917	-2.563502	24.920437	-41.651950	-82.908083	-44.738187			
43680	37.719378	-8.058665	1.407350	-4.033455	-2.783534	28.468107	-46.476669	-80.427675	-40.451073			
43681	17.954511	-22.417504	-3.246513	-19.416102	-7.294207	10.311982	-40.244687	-77.004824	-45.254493			
43682	6.101898	-4.450576	7.465318	-4.273532	5.608198	-1.877473	-31.101746	-76.264181	-48.143671			
43683	10.009325	13.753487	18.497938	10.718925	19.341347	2.104867	-25.835210	-77.866351	-47.938836			
43684	9.142488	14.810913	7.306102	13.353350	9.766909	-0.723534	-22.023412	-79.751823	-51.972384			
43685	9.712085	8.459873	-0.182561	9.191867	0.866599	-0.830182	-25.368623	-81.029289	-49.625286			
43686	6.545887	3.023527	-2.135633	4.089165	-2.028310	-3.836419	-30.414273	-81.684381	-46.110531			
43687	2.780362	1.164382	-6.152340	2.725368	-5.983670	-7.888331	-34.583605	-81.941806	-43.522347			
43688	-0.712669	-0.158903	-6.009104	0.907867	-5.831972	-11.155834	-42.922122	-82.044832	-36.443433			
43689	-3.339629	-1.325016	-8.598574	-0.258500	-8.461464	-13.706948	-60.045938	-82.250921	-20.793884			
43690	2.146373	-2.086780	-7.958821	-0.619327	-8.221675	-7.738452	-84.821549	-82.142795	2.521646			
43691	15.482274	-1.729269	-7.054773	1.228118	-6.756203	5.847593	-105.597715	-81.952198	21.925884			
43692	13.359592	-0.464867	-8.435353	2.194259	-7.716174	3.806984	-106.925721	-82.171274	23.236278			
43693	7.417220	0.710189	-1.766058	1.824993	-1.287262	-2.488016	-106.789882	-82.113035	22.575082			
43694	9.526785	-3.146225	-3.907624	-1.518643	-3.570878	0.230482	-112.090465	-81.297814	25.828069			
43695	12.135578	-10.516211	-7.914412	-8.307741	-7.422788	4.199737	-114.243231	-80.419167	25.010642			
43696	9.976572	-12.509545	-5.697286	-10.864327	-4.882753	2.294656	-113.134975	-80.587718	21.565372			
43697	5.553711	-8.371548	-2.691593	-7.499248	-2.084213	-2.914250	-115.452010	-80.725842	24.127939			
43698	5.520636	-2.699618	-2.764633	-1.900121	-2.264490	-3.757191	-125.422098	-80.398750	35.755116			
43699	8.677584	-1.489193	-6.541807	-0.170734	-5.481448	-0.314148	-138.296803	-79.486219	50.952011			
43700	12.266622	0.656967	-7.681083	2.479314	-5.625217	3.305749	-147.149169	-78.960067	62.185799			
43701	11.741021	3.303189	-4.216530	4.658166	-1.815008	2.084581	-151.697654	-79.176170	68.138461			
43702	10.706890	3.151485	-0.370074	3.890195	1.848979	0.490404	-152.516048	-79.256092	69.457298			
43703	10.223577	1.768545	1.364708	2.283088	3.342312	-0.162430	-151.214854	-78.841498	68.046675			
43704	10.728313	0.075413	0.793050	0.810940	2.747933	0.556537	-149.774573	-78.216687	66.064175			
43705	11.223693	-1.963668	-0.832104	-0.863547	1.100847	1.525791	-147.887363	-77.906137	63.744942			
43706	9.806786	-1.887497	0.639364	-1.007320	2.274919	-0.119690	-146.416778	-78.059107	62.048823			
43707	8.789859	-0.957354	1.090974	-0.215827	2.583734	-1.289420	-146.367787	-78.164395	62.078441			
43708	8.588607	0.411548	0.650853	1.142750	2.258196	-1.569419	-147.809445	-77.949535	63.844960			
43709	8.599885	1.421037	-1.144610	2.297681	0.677202	-1.354057	-150.744439	-77.523491	66.834464			
