// General information: 
//  MT Manager version: 2022.0.0 
//  XDA version: 2022.0.0 build 7085 rev 119802 built on 2022-11-08
// Device information: 
//  DeviceId: 00B4938A
//  ProductCode: MTW2-3A7G6
//  Firmware Version: 4.6.0
//  Hardware Version: 2.0.0
// Device settings: 
//  Filter Profile: human(46.1)
//  Option Flags: Orientation Smoother Disabled, Position/Velocity Smoother Disabled, Continuous Zero Rotation Update Disabled, AHS Disabled, ICC Disabled
// Coordinate system: ENU
PacketCounter	Acc_X	Acc_Y	Acc_Z	FreeAcc_E	FreeAcc_N	FreeAcc_U	Roll	Pitch	Yaw	Vel_E	Vel_N	Vel_U
42709	9.057411	-0.915501	3.568555	0.395679	0.207432	-0.044891	-7.771666	-67.169898	99.439895			
42710	9.085941	-0.865648	3.554208	0.344172	0.233653	-0.026830	-7.756184	-67.151843	99.482155			
42711	9.091636	-0.873426	3.647370	0.353148	0.152619	0.014623	-7.754069	-67.140337	99.539531			
42712	9.134916	-0.824471	3.689775	0.301949	0.130755	0.068235	-7.752653	-67.129780	99.596818			
42713	9.178350	-0.710387	3.710818	0.184526	0.123799	0.110395	-7.780590	-67.127633	99.680383			
42714	9.202968	-0.626127	3.757012	0.097179	0.088701	0.146454	-7.819911	-67.111754	99.771491			
42715	9.148932	-0.635684	3.854082	0.108860	-0.019312	0.134612	-7.868829	-67.095878	99.852991			
42716	9.069465	-0.731522	3.906318	0.207406	-0.090499	0.086728	-7.908996	-67.075726	99.919143			
42717	8.994417	-0.863876	3.896092	0.341787	-0.101389	0.020840	-7.927886	-67.059127	99.957820			
42718	8.820599	-0.901584	4.013314	0.392036	-0.270453	-0.091799	-7.940426	-67.032069	99.976271			
42719	8.759601	-0.868155	4.010222	0.361185	-0.289678	-0.150813	-7.956885	-67.016634	99.983199			
42720	8.683370	-0.850760	4.071658	0.348536	-0.373524	-0.198006	-7.978697	-66.999010	99.988163			
42721	8.618575	-0.780085	4.129454	0.281823	-0.454012	-0.239015	-8.001232	-66.995141	99.993337			
42722	8.596465	-0.722562	4.083704	0.223918	-0.422040	-0.280128	-8.005187	-66.990813	99.993003			
42723	8.630857	-0.677876	3.993378	0.175158	-0.327529	-0.285866	-7.997466	-66.989196	99.990877			
42724	8.517453	-0.681670	4.094198	0.189500	-0.461665	-0.350918	-7.973433	-66.970606	99.972608			
42725	8.300230	-0.962229	4.231035	0.489091	-0.656865	-0.482593	-7.925309	-66.968037	99.947988			
42726	8.027304	-1.141918	4.103446	0.688322	-0.635041	-0.773728	-7.848334	-66.975951	99.933478			
42727	7.710726	-1.157396	4.151119	0.731699	-0.799435	-1.046150	-7.773666	-66.973366	99.942315			
42728	7.267416	-1.129373	4.108290	0.738152	-0.928233	-1.472281	-7.701582	-66.955844	100.001428			
42729	7.292180	-1.020109	3.867283	0.625834	-0.700488	-1.548909	-7.680800	-66.975124	100.154660			
42730	7.732029	-0.902463	3.941358	0.483106	-0.607685	-1.121868	-7.707593	-67.013517	100.399765			
42731	8.115202	-0.933305	4.343971	0.500432	-0.838315	-0.612447	-7.827771	-67.096198	100.772084			
42732	8.825951	-1.255087	4.474847	0.770739	-0.687056	0.108540	-8.056527	-67.268743	101.274901			
42733	9.993787	-1.659432	4.259860	1.069083	-0.057514	1.124838	-8.328795	-67.534900	101.854244			
42734	11.479924	-1.952356	3.751727	1.208581	0.944213	2.324998	-8.571613	-67.764169	102.455372			
42735	12.158267	-1.490556	3.071129	0.641091	1.759499	2.676114	-8.689604	-67.841630	103.008635			
42736	11.362171	-0.053804	2.556280	-0.770796	1.823647	1.664094	-8.681573	-67.706303	103.473489			
42737	10.216064	1.263267	2.410861	-2.008658	1.428973	0.468330	-8.710872	-67.518738	103.925133			
42738	10.175738	1.954518	2.452147	-2.709616	1.314876	0.400434	-8.849031	-67.407717	104.391757			
42739	10.744904	2.054065	2.426292	-2.888160	1.538482	0.904149	-9.057220	-67.328847	104.841413			
42740	10.711364	2.076295	2.451377	-2.927800	1.505072	0.874514	-9.204708	-67.204654	105.146899			
42741	10.435889	2.088656	2.514182	-2.923196	1.354583	0.637738	-9.273348	-67.096457	105.294301			
42742	10.087773	1.963201	2.426781	-2.777860	1.332347	0.287556	-9.268568	-67.024924	105.284661			
42743	9.747116	1.632944	2.354569	-2.419032	1.318849	-0.033849	-9.143291	-67.001946	105.127818			
42744	9.531813	1.434011	2.505248	-2.173400	1.128476	-0.159141	-8.856557	-67.017651	104.826709			
42745	9.265812	0.975836	2.576146	-1.663686	1.017444	-0.344797	-8.484988	-67.067194	104.424636			
42746	9.246105	0.533352	2.538916	-1.195151	1.092438	-0.347007	-7.990361	-67.157908	103.919586			
42747	9.199249	0.423725	2.528339	-1.045429	1.090827	-0.383198	-7.424116	-67.253523	103.350718			
42748	9.371724	0.011812	2.553348	-0.609097	1.174015	-0.189825	-6.844278	-67.343419	102.727715			
42749	9.722064	-0.501869	2.314567	-0.106511	1.577281	0.068016	-6.247098	-67.422807	102.089803			
42750	9.819707	-0.723594	2.253610	0.143045	1.696635	0.143708	-5.653850	-67.419446	101.470779			
42751	9.745460	-1.018390	1.975023	0.454610	1.970160	-0.023740	-5.131607	-67.346649	100.920387			
42752	9.681970	-0.895569	1.800871	0.351752	2.117586	-0.159828	-4.671685	-67.197237	100.478130			
42753	9.466538	-0.607206	1.702000	0.091981	2.127292	-0.413384	-4.341609	-67.007455	100.174060			
42754	9.069816	-0.072102	1.929397	-0.381351	1.743240	-0.712966	-4.117659	-66.803078	100.003672			
42755	9.053101	0.202796	1.839391	-0.658369	1.818948	-0.777144	-4.050840	-66.642309	99.960087			
42756	9.271236	0.376116	1.839634	-0.850098	1.910085	-0.587159	-4.107511	-66.485115	100.025989			
42757	9.295828	0.221560	1.918762	-0.702991	1.887382	-0.534397	-4.275101	-66.332541	100.177902			
42758	9.312633	0.153006	1.991984	-0.645928	1.856359	-0.493182	-4.475483	-66.188519	100.383657			
42759	9.291896	0.125569	2.078680	-0.628247	1.790649	-0.481298	-4.703534	-66.063375	100.620873			
42760	9.107031	0.090743	1.903728	-0.614189	1.896155	-0.724357	-4.922145	-65.947493	100.870927			
42761	8.962706	-0.037455	1.773035	-0.506920	1.983098	-0.908449	-5.180740	-65.867093	101.160484			
42762	8.995030	-0.148162	1.739550	-0.422787	2.045899	-0.891137	-5.443727	-65.809457	101.464319			
42763	9.014872	-0.158750	1.772306	-0.432027	2.030518	-0.861458	-5.712272	-65.746068	101.779595			
42764	9.272286	-0.211941	1.807153	-0.419167	2.115581	-0.612982	-5.966779	-65.667901	102.082803			
42765	9.446223	-0.223583	1.760734	-0.448926	2.241062	-0.476877	-6.204642	-65.544084	102.367442			
42766	9.461274	-0.298721	1.833498	-0.391845	2.209784	-0.435595	-6.418971	-65.373210	102.626388			
42767	9.521792	-0.380108	1.849989	-0.337826	2.253392	-0.376615	-6.613545	-65.195569	102.875291			
42768	9.438940	-0.326112	1.869633	-0.404358	2.221284	-0.453321	-6.805731	-65.005802	103.125520			
42769	9.348279	-0.464773	1.966986	-0.272713	2.140703	-0.495055	-6.994969	-64.799641	103.376589			
42770	9.156174	-0.553878	1.992684	-0.186321	2.079756	-0.661029	-7.165026	-64.571496	103.621770			
42771	9.071726	-0.515031	2.071329	-0.232023	2.003045	-0.714023	-7.309865	-64.320546	103.844207			
42772	9.115925	-0.306541	2.124135	-0.460438	1.984416	-0.671793	-7.450580	-64.062697	104.048887			
42773	9.290549	-0.272137	2.225119	-0.526273	2.000700	-0.482115	-7.602704	-63.806593	104.234569			
42774	9.583128	0.048664	2.314767	-0.889105	2.041686	-0.208641	-7.728731	-63.558630	104.393746			
42775	9.879709	0.124456	2.349858	-1.014655	2.164621	0.058013	-7.861983	-63.330510	104.533356			
42776	9.881270	0.219133	2.661103	-1.099011	1.909680	0.183020	-7.943545	-63.120787	104.641711			
42777	9.693214	0.344421	2.765592	-1.205314	1.747011	0.047365	-7.957515	-62.963429	104.707221			
42778	9.487897	0.500046	2.639058	-1.353401	1.769318	-0.206821	-7.921302	-62.856259	104.730543			
42779	9.261996	0.620752	2.307083	-1.477672	1.960637	-0.567963	-7.836637	-62.805361	104.710784			
42780	9.284738	0.838757	2.151132	-1.706060	2.086166	-0.632573	-7.734798	-62.784173	104.628896			
42781	9.503453	1.145152	2.562947	-1.988525	1.783973	-0.270210	-7.601741	-62.749983	104.464547			
42782	9.680028	1.001776	3.553308	-1.763158	1.012174	0.346016	-7.434666	-62.745921	104.203279			
42783	10.086293	0.486215	4.508698	-1.191726	0.409806	1.174116	-7.216258	-62.872366	103.848871			
42784	11.021306	-0.392735	4.386821	-0.397778	1.012863	2.006074	-6.882181	-63.159498	103.378310			
42785	11.986984	-1.127689	4.018530	0.257683	1.798439	2.749414	-6.329474	-63.535465	102.781915			
42786	12.968133	-1.317736	3.716166	0.408534	2.449316	3.512160	-5.558182	-63.913094	102.073284			
42787	13.223548	-1.306724	3.799491	0.480781	2.427306	3.784441	-4.661652	-64.183574	101.335918			
42788	12.614567	-1.010447	4.266169	0.378710	1.680887	3.430387	-3.808023	-64.345391	100.706195			
42789	12.543728	-0.621368	4.770728	0.127613	1.129692	3.573803	-3.146652	-64.488188	100.269587			
42790	12.419229	0.133222	5.516143	-0.472319	0.291938	3.765762	-2.692185	-64.592534	100.036389			
42791	11.831416	0.657793	6.048124	-0.851682	-0.521693	3.453709	-2.475643	-64.688933	99.993211			
42792	11.591283	0.611057	5.999337	-0.774561	-0.598533	3.216703	-2.435561	-64.822526	100.064845			
42793	11.264954	0.758883	5.770321	-0.917431	-0.581930	2.820257	-2.485311	-64.967242	100.210123			
42794	10.503544	1.172646	5.676909	-1.280984	-0.905690	2.081242	-2.591393	-65.107597	100.402425			
42795	9.679600	1.127836	5.926409	-1.149728	-1.495002	1.435958	-2.765194	-65.232768	100.620702			
42796	9.094243	0.949061	6.534653	-0.861499	-2.284450	1.157578	-2.914100	-65.343949	100.800294			
42797	8.434629	0.471672	6.836927	-0.305885	-2.780910	0.688834	-3.004077	-65.444498	100.887851			
42798	7.861145	0.295081	6.825982	-0.085662	-2.998162	0.161397	-2.950961	-65.546319	100.819945			
42799	7.248492	0.326841	6.455213	-0.105800	-2.933249	-0.555147	-2.782340	-65.659877	100.595261			
42800	7.130180	0.305715	5.967471	-0.120533	-2.558348	-0.869316	-2.508737	-65.849479	100.204214			
42801	7.278793	0.153283	5.469986	-0.020421	-2.053794	-0.941020	-2.126527	-66.056877	99.647097			
42802	7.500763	0.439554	5.227463	-0.320077	-1.809463	-0.845844	-1.579168	-66.259494	98.930820			
42803	7.869123	0.793702	5.214764	-0.662202	-1.716328	-0.519549	-0.970072	-66.396176	98.116661			
42804	8.183329	0.958228	4.970042	-0.835137	-1.402303	-0.329947	-0.360434	-66.524906	97.278774			
42805	8.686739	0.860981	4.623073	-0.767033	-0.889313	-0.004824	0.174954	-66.664585	96.512116			
42806	9.336042	0.646234	4.339837	-0.580881	-0.370107	0.479978	0.574180	-66.828620	95.873756			
42807	9.226890	0.424394	4.097072	-0.355712	-0.180969	0.283960	0.891084	-66.881223	95.369765			
42808	8.624944	-0.239889	4.171043	0.348490	-0.412252	-0.244333	1.016915	-66.842000	95.006524			
42809	8.185192	-1.060456	3.974274	1.161803	-0.316032	-0.731546	1.000343	-66.804630	94.811528			
42810	7.829830	-1.389514	4.038072	1.500065	-0.478819	-1.034104	0.846261	-66.750275	94.770223			
42811	7.429909	-1.941916	4.035058	2.045427	-0.579125	-1.402154	0.500637	-66.696051	94.883957			
42812	7.130690	-2.490352	3.906135	2.564768	-0.532821	-1.722912	0.018211	-66.680611	95.142540			
42813	7.114951	-1.975984	3.775346	2.011504	-0.475446	-1.781001	-0.550570	-66.701210	95.515302			
42814	7.273199	-1.734519	3.797640	1.732184	-0.467827	-1.620582	-1.196966	-66.749974	95.951157			
42815	7.431194	-1.517427	3.614511	1.459244	-0.273700	-1.543136	-1.842063	-66.831742	96.409894			
42816	7.458570	-1.117677	3.523945	1.020461	-0.231153	-1.554190	-2.394730	-66.917776	96.826758			
42817	7.549314	-0.781951	3.289865	0.639254	-0.027770	-1.565427	-2.841846	-67.044428	97.187610			
42818	7.537454	-0.579826	3.127700	0.408003	0.077335	-1.642045	-3.199934	-67.199217	97.486059			
42819	7.685866	-0.563853	3.232301	0.377544	0.010352	-1.464303	-3.452433	-67.381516	97.695575			
42820	7.958677	-0.528831	3.364637	0.329531	-0.038954	-1.162207	-3.599006	-67.566415	97.807786			
42821	8.161449	-0.498282	3.372123	0.287525	0.001991	-0.972663	-3.623055	-67.720358	97.800693			
42822	8.153076	-0.455811	3.160547	0.236889	0.171910	-1.061471	-3.537649	-67.817401	97.666331			
42823	8.165655	-0.485275	2.891593	0.258549	0.415788	-1.150414	-3.349740	-67.884737	97.422631			
42824	8.095350	-0.362225	2.836231	0.150085	0.424916	-1.239065	-3.091306	-67.923613	97.106470			
42825	8.145070	-0.324062	2.684013	0.117376	0.577268	-1.250908	-2.789940	-67.964138	96.745111			
42826	8.036352	-0.342915	2.429727	0.144916	0.767182	-1.446415	-2.463148	-68.033777	96.353487			
42827	8.194589	-0.311974	2.131396	0.110190	1.090858	-1.410944	-2.138222	-68.113017	95.935015			
42828	8.502774	-0.193579	1.953079	-0.008527	1.352366	-1.191774	-1.813062	-68.189639	95.511401			
42829	8.641456	-0.053630	1.798174	-0.140069	1.529342	-1.120592	-1.504562	-68.251462	95.081577			
42830	8.721329	0.155258	1.791314	-0.329347	1.545542	-1.049282	-1.200209	-68.300097	94.636706			
42831	8.815049	0.097299	1.806753	-0.251309	1.565468	-0.954639	-0.901044	-68.331313	94.178724			
42832	9.165452	-0.175629	1.846852	0.038036	1.668820	-0.611559	-0.556599	-68.377009	93.685197			
42833	9.282559	-0.355458	1.966770	0.247911	1.607829	-0.457806	-0.150841	-68.378248	93.162012			
42834	9.660451	-0.917481	2.204262	0.843010	1.556332	-0.020245	0.266964	-68.369649	92.588058			
42835	9.012961	-1.451555	1.956489	1.407016	1.581969	-0.719509	0.739644	-68.255110	91.976683			
42836	8.422597	-1.548616	2.020305	1.546082	1.323451	-1.252431	1.245868	-68.131892	91.335236			
42837	8.294835	-1.738657	2.046433	1.770731	1.271640	-1.370979	1.794545	-68.039924	90.653944			
42838	8.317164	-2.072503	1.613764	2.121481	1.700730	-1.525261	2.389149	-67.971524	89.939716			
42839	8.343699	-2.434002	1.625938	2.521003	1.719293	-1.513665	3.025109	-67.870781	89.215944			
42840	8.390225	-2.538120	2.120175	2.683743	1.293022	-1.300429	3.678901	-67.766497	88.547389			
42841	8.572878	-2.620374	2.699659	2.828236	0.836398	-0.927298	4.285117	-67.742183	87.994979			
42842	9.094314	-2.492388	3.005864	2.752648	0.740984	-0.334948	4.778796	-67.840078	87.622277			
42843	9.781418	-2.050385	2.754455	2.334717	1.199604	0.216132	5.137663	-67.992721	87.446676			
42844	10.353474	-1.004277	2.446230	1.297509	1.637081	0.666981	5.337864	-68.136208	87.466784			
42845	10.908510	-0.177497	2.281211	0.472869	1.938745	1.153107	5.347656	-68.267883	87.620749			
42846	11.338920	0.295345	1.958957	-0.020644	2.350352	1.455462	5.223265	-68.403924	87.853433			
42847	11.848812	0.370973	1.707537	-0.120514	2.738651	1.846334	5.019953	-68.564125	88.112179			
42848	12.144206	-0.101503	1.834411	0.341907	2.719141	2.160046	4.798321	-68.722777	88.371920			
42849	12.307125	-1.206816	2.437495	1.462530	2.246636	2.503022	4.602852	-68.817088	88.604139			
42850	12.415663	-1.901377	2.975120	2.171530	1.814862	2.781199	4.497381	-68.816855	88.907715			
42851	12.675675	-1.080981	3.796327	1.388164	1.107649	3.344038	4.371930	-68.825954	89.390441			
42852	13.035675	-0.384158	4.069945	0.683192	0.927910	3.800279	3.968103	-68.981961	90.145674			
42853	13.338951	0.251319	3.252951	-0.063372	1.709776	3.812453	3.310146	-69.221022	91.162220			
42854	13.449205	1.074506	3.608577	-0.932276	1.303894	4.061300	2.428837	-69.379794	92.329719			
42855	12.883653	0.804003	5.283165	-0.608561	-0.468188	4.114137	1.290743	-69.437270	93.531860			
42856	12.066696	0.531611	7.601430	-0.235861	-2.919110	4.154834	-0.029202	-69.517099	94.805332			
42857	11.301128	0.723679	8.190363	-0.471383	-3.802324	3.627543	-1.527529	-69.782790	96.207110			
42858	11.250539	1.196799	7.072097	-1.139088	-2.904410	3.159833	-3.156388	-70.195410	97.762789			
42859	11.119713	1.131045	5.396686	-1.300711	-1.462116	2.443754	-4.828523	-70.465553	99.308560			
42860	9.715555	0.358102	4.744869	-0.605823	-1.298671	0.910165	-6.448792	-70.517642	100.704451			
42861	8.285071	-0.545217	5.492000	0.335192	-2.419017	-0.161932	-7.928571	-70.513037	101.928968			
42862	7.765332	-0.963376	5.950145	0.732974	-3.005359	-0.481942	-9.229608	-70.524650	103.065026			
42863	8.441213	-1.731034	6.221416	1.390337	-2.999928	0.287984	-10.416667	-70.516804	104.183166			
42864	8.371657	-2.627927	5.920527	2.212567	-2.672007	0.187710	-11.367984	-70.390806	105.219896			
42865	7.607591	-3.197557	5.529119	2.781666	-2.481661	-0.605385	-12.128160	-70.181073	106.229489			
42866	7.184202	-3.333655	5.235066	2.911835	-2.295569	-1.072931	-12.807588	-70.029011	107.335971			
42867	7.589901	-2.474360	5.102333	1.990132	-2.091405	-0.788930	-13.503130	-69.983060	108.576282			
42868	8.405348	-0.976924	5.159753	0.402789	-2.031644	-0.120554	-14.247934	-69.997803	109.878214			
42869	9.123682	0.213582	5.133952	-0.883531	-1.928744	0.441280	-14.993397	-70.011583	111.061539			
42870	10.043621	0.554663	5.015239	-1.374935	-1.591705	1.228620	-15.738617	-70.030140	112.048375			
42871	10.389233	0.168424	4.390106	-1.129353	-0.865047	1.377205	-16.317901	-69.984232	112.748600			
42872	10.105111	-0.102547	3.621015	-0.925878	-0.193057	0.880344	-16.614598	-69.829275	113.137577			
42873	8.859808	-0.253163	3.211439	-0.666620	-0.156532	-0.410314	-16.576404	-69.580624	113.246093			
42874	7.945633	-0.014577	3.731523	-0.736264	-0.936063	-1.115608	-16.437712	-69.377939	113.281217			
42875	7.887525	0.107786	3.989543	-0.823033	-1.190607	-1.092242	-16.276731	-69.269670	113.301165			
42876	7.883762	0.216235	4.194889	-0.900565	-1.381657	-1.033307	-15.981939	-69.163663	113.208580			
42877	7.770459	0.584841	4.039949	-1.245828	-1.307941	-1.223137	-15.516287	-69.061912	113.004202			
42878	7.409011	1.188170	3.720140	-1.798004	-1.199026	-1.721084	-14.910017	-68.961160	112.700719			
42879	7.171316	1.797180	3.415693	-2.367922	-1.072688	-2.094737	-14.220377	-68.889905	112.315909			
42880	6.894657	2.356459	3.157475	-2.878350	-1.004650	-2.480258	-13.538304	-68.880266	111.869465			
42881	6.918336	2.265068	3.089813	-2.769780	-0.918176	-2.462446	-12.977353	-68.931441	111.432878			
42882	7.105896	1.913128	3.059954	-2.426546	-0.772394	-2.260709	-12.544415	-69.012811	111.026129			
42883	7.430603	1.221366	3.230123	-1.747732	-0.716520	-1.839526	-12.335886	-69.130216	110.751650			
42884	7.918769	0.220131	2.891709	-0.853157	-0.096938	-1.423408	-12.326685	-69.329348	110.639140			
42885	8.455813	-0.187394	2.614457	-0.543019	0.371836	-0.984435	-12.421013	-69.569885	110.660271			
42886	9.005348	-0.854673	2.777490	0.072884	0.465069	-0.361789	-12.615976	-69.809709	110.760438			
42887	9.284172	-0.945030	3.171774	0.177148	0.166044	0.040742	-12.792676	-69.962075	110.895781			
42888	9.351817	-0.522431	3.411378	-0.222941	-0.118725	0.152407	-12.961044	-69.984642	110.990310			
42889	8.970229	-0.354658	3.406015	-0.353465	-0.256453	-0.220973	-13.090014	-69.864368	111.016829			
42890	8.738847	-0.471594	3.338454	-0.233015	-0.229784	-0.451707	-13.207159	-69.697666	111.004638			
42891	8.611101	-0.309239	3.187308	-0.409402	-0.128088	-0.635459	-13.250109	-69.503258	110.975244			
42892	8.365155	-0.133492	3.053740	-0.580087	-0.080028	-0.925844	-13.274920	-69.292970	110.926958			
42893	8.298193	-0.195682	2.725853	-0.558749	0.239018	-1.097231	-13.326374	-69.132727	110.938079			
42894	8.329176	-0.320658	2.294053	-0.496845	0.688206	-1.209190	-13.387390	-69.022394	110.993615			
42895	8.518406	-0.372344	2.000690	-0.511472	1.042371	-1.131876	-13.481824	-68.960716	111.149407			
42896	8.425895	-0.322258	1.874288	-0.573500	1.128514	-1.268095	-13.608664	-68.883560	111.359453			
42897	8.527238	-0.108535	2.251767	-0.770335	0.787750	-1.061572	-13.816740	-68.781043	111.622674			
42898	8.717713	0.039181	2.413312	-0.943303	0.691102	-0.842926	-14.108435	-68.645675	111.878679			
42899	8.447384	0.238581	2.565370	-1.111357	0.444568	-1.062630	-14.452313	-68.472514	112.128827			
42900	8.068629	0.337141	2.561166	-1.184390	0.323466	-1.430056	-14.852673	-68.299521	112.363242			
42901	7.509286	0.237580	2.279909	-1.065142	0.425448	-2.045565	-15.260808	-68.121558	112.594393			
42902	7.466237	0.495391	2.110973	-1.355162	0.543580	-2.176306	-15.662696	-67.999716	112.855917			
42903	7.422813	0.502034	1.779360	-1.411672	0.843214	-2.341915	-16.110078	-67.898052	113.159895			
42904	7.332232	0.570547	1.995080	-1.468645	0.607879	-2.360103	-16.548360	-67.807071	113.463498			
42905	7.735965	0.576293	2.464173	-1.515754	0.311766	-1.821776	-17.042673	-67.786623	113.811967			
42906	8.698501	0.417610	2.631912	-1.515608	0.503101	-0.856402	-17.528688	-67.803997	114.136066			
42907	9.832286	0.182533	2.874376	-1.462115	0.688899	0.304466	-17.968809	-67.830043	114.392328			
42908	10.776274	-0.502833	2.602506	-0.977973	1.348733	1.159022	-18.326107	-67.816698	114.486764			
42909	11.448698	-1.152866	2.641202	-0.456494	1.630396	1.871111	-18.528738	-67.736499	114.402434			
42910	11.733888	-1.533076	2.661719	-0.133833	1.770729	2.185886	-18.588371	-67.639553	114.195575			
42911	11.838751	-1.725608	2.193534	0.007724	2.286967	2.133651	-18.480160	-67.523943	113.906562			
42912	11.612592	-1.294874	1.528878	-0.416966	2.808980	1.624186	-18.204347	-67.349034	113.544203			
42913	11.307578	-0.565107	1.158818	-1.104728	3.007967	1.107706	-17.892416	-67.106718	113.176587			
42914	10.987098	0.213168	1.914899	-1.770621	2.160973	0.986543	-17.581505	-66.817869	112.805507			
42915	11.084364	0.857404	3.251560	-2.338341	0.945210	1.492594	-17.381761	-66.581090	112.476455			
42916	11.918222	0.179007	4.371756	-1.730599	0.334457	2.760356	-17.327971	-66.497954	112.106285			
42917	13.081169	-1.560245	4.321104	-0.177580	0.998834	4.014604	-17.213016	-66.619657	111.640371			
42918	14.198654	-3.013769	3.066064	1.084666	2.686505	4.736917	-16.770801	-66.821061	110.968154			
42919	14.109434	-3.653971	3.441930	1.827709	2.358684	4.862799	-15.904816	-66.851028	110.069527			
42920	12.938267	-3.611897	4.958388	2.107652	0.544950	4.339700	-14.848083	-66.875888	109.132459			
42921	12.617338	-3.783704	5.829609	2.467202	-0.351278	4.374856	-13.797056	-67.067251	108.282399			
42922	12.142449	-3.366568	5.668941	2.223855	-0.424324	3.817527	-12.544745	-67.293385	107.436471			
42923	10.584867	-1.779566	5.887389	0.969855	-1.362443	2.314533	-11.248294	-67.480829	106.653143			
42924	9.382443	-1.067627	5.583518	0.488605	-1.609101	1.027830	-10.083660	-67.730196	106.037398			
42925	8.674417	-0.033197	5.277094	-0.386013	-1.733258	0.184322	-9.050912	-68.061055	105.622781			
42926	8.545922	0.726630	5.531825	-1.008354	-2.161283	0.110668	-8.227033	-68.458144	105.362382			
42927	8.456358	1.363171	6.511328	-1.439848	-3.244719	0.344250	-7.522560	-68.812067	105.119326			
42928	8.139195	1.995308	7.342887	-1.860366	-4.264587	0.311417	-6.824441	-69.064281	104.736622			
42929	7.692865	2.533023	7.607949	-2.255105	-4.772251	-0.034287	-6.119653	-69.227204	104.149702			
42930	7.377312	2.803028	6.862300	-2.540577	-4.241022	-0.596835	-5.380147	-69.354808	103.354731			
42931	6.778818	2.797451	5.801432	-2.587339	-3.458616	-1.519419	-4.619012	-69.436647	102.361692			
42932	6.251336	2.126344	4.970618	-1.962029	-2.762156	-2.274222	-3.793876	-69.487876	101.207041			
42933	6.830421	1.071651	4.983928	-0.931601	-2.428363	-1.696177	-2.952356	-69.597774	100.015132			
42934	8.015103	-0.299204	5.060259	0.397399	-1.931778	-0.536494	-2.109167	-69.773541	98.824848			
42935	9.183983	-1.389763	5.158235	1.472233	-1.523470	0.598634	-1.233979	-69.967678	97.644759			
42936	10.206789	-1.772927	5.031101	1.845906	-1.047513	1.506712	-0.391071	-70.117203	96.595170			
42937	10.381648	-1.810244	4.337809	1.858737	-0.353165	1.425299	0.380652	-70.137089	95.723285			
42938	10.011587	-1.580591	3.761092	1.628759	0.050008	0.874708	0.997476	-69.995750	95.127752			
42939	8.736480	-1.345805	4.042775	1.489555	-0.635541	-0.228407	1.357660	-69.742668	94.809463			
42940	7.707491	-1.068552	4.249222	1.277024	-1.175140	-1.118362	1.505745	-69.557939	94.734684			
42941	7.685546	-0.589359	4.636955	0.843523	-1.573086	-0.996217	1.460734	-69.467691	94.829253			
42942	7.588181	-0.580050	4.651538	0.831147	-1.609194	-1.079222	1.225695	-69.392650	95.056843			
42943	7.455644	-0.603540	4.707743	0.844724	-1.696114	-1.179999	0.799258	-69.316345	95.384904			
42944	7.162465	-1.035436	4.192031	1.201038	-1.268820	-1.633833	0.175971	-69.267522	95.815462			
42945	6.833589	-1.235567	3.695308	1.327770	-0.905404	-2.112231	-0.508965	-69.267705	96.274171			
42946	6.942197	-1.197235	3.396988	1.223801	-0.606406	-2.111943	-1.194396	-69.355854	96.772989			
42947	7.244676	-1.135193	3.073889	1.090059	-0.230343	-1.939863	-1.839369	-69.539344	97.283273			
42948	7.334375	-1.153331	3.062654	1.077703	-0.218621	-1.856953	-2.394261	-69.748035	97.769104			
42949	7.544841	-1.057255	3.261021	0.968810	-0.380354	-1.591178	-2.878700	-70.046032	98.234345			
42950	7.944737	-1.122662	2.832354	0.962894	0.112040	-1.359200	-3.293939	-70.409003	98.660859			
42951	8.361983	-1.121607	2.553443	0.906373	0.458979	-1.056636	-3.611444	-70.729115	98.987728			
42952	8.749616	-1.175696	2.689085	0.945982	0.416707	-0.642052	-3.790332	-70.993490	99.200705			
42953	8.984484	-1.274706	2.906273	1.050429	0.261241	-0.345875	-3.839049	-71.176126	99.288913			
42954	9.015822	-1.197725	3.112062	0.995536	0.046826	-0.251767	-3.727091	-71.289203	99.255450			
42955	9.199317	-1.046301	3.061807	0.842391	0.125023	-0.098184	-3.496813	-71.352347	99.093026			
42956	9.661132	-0.819256	2.931283	0.597578	0.366778	0.292234	-3.177220	-71.378933	98.859699			
42957	9.879407	-0.798467	2.920042	0.582602	0.453080	0.493724	-2.832689	-71.290357	98.574317			
42958	9.273740	-0.666581	2.836232	0.486990	0.356649	-0.110817	-2.503066	-71.064157	98.328380			
42959	8.917153	-0.505956	2.538315	0.325735	0.544208	-0.549196	-2.255155	-70.855165	98.153576			
42960	8.923428	-0.174618	2.123609	-0.038244	0.932353	-0.685970	-2.111830	-70.694008	98.072676			
42961	8.963326	-0.131279	1.645361	-0.127361	1.411960	-0.809589	-2.068723	-70.582231	98.004863			
42962	8.768838	-0.217073	1.738157	-0.023886	1.284582	-0.963388	-2.056071	-70.507242	97.934022			
42963	8.672854	-0.366598	2.113754	0.165851	0.923739	-0.927872	-2.045617	-70.482652	97.821966			
42964	8.760550	-0.623747	2.427669	0.449780	0.687342	-0.737715	-1.977855	-70.470965	97.667805			
42965	9.170228	-1.034233	2.595100	0.862634	0.710845	-0.291773	-1.796358	-70.439682	97.406627			
42966	9.145188	-1.397277	2.596192	1.238500	0.750007	-0.313708	-1.463108	-70.331898	97.059072			
42967	9.298752	-1.050568	2.570709	0.904857	0.813238	-0.184666	-0.999454	-70.197574	96.630360			
42968	8.986975	-1.124927	2.386060	0.997548	0.917719	-0.545162	-0.507840	-70.015133	96.170207			
42969	8.785637	-1.160666	2.283483	1.056215	0.982119	-0.775622	0.053062	-69.818078	95.665816			
42970	8.674493	-1.119492	2.263206	1.044334	0.994210	-0.894004	0.643215	-69.608330	95.149878			
42971	8.416584	-1.245684	2.082791	1.188420	1.120325	-1.206818	1.202525	-69.397726	94.598427			
42972	8.092491	-1.375253	1.813685	1.327429	1.300912	-1.614235	1.754288	-69.210951	94.042985			
42973	8.073046	-1.040376	1.989009	1.038979	1.124572	-1.574463	2.305152	-69.035382	93.466372			
42974	8.122990	-0.961848	1.941035	0.982287	1.204703	-1.550762	2.827067	-68.866483	92.919443			
42975	8.367500	-0.693653	1.868456	0.730681	1.356190	-1.350176	3.322642	-68.739681	92.421708			
42976	8.780432	-0.389835	1.990987	0.457819	1.380556	-0.919072	3.725663	-68.645027	92.063339			
42977	9.488104	-0.323951	2.394893	0.443087	1.266994	-0.114082	4.040950	-68.631751	91.804707			
42978	10.233024	-0.222468	2.338372	0.344151	1.579054	0.561337	4.283004	-68.672864	91.647635			
42979	10.435207	0.043983	1.700894	0.024974	2.213849	0.525918	4.497405	-68.673564	91.538912			
42980	10.462689	0.370709	1.473542	-0.315773	2.406257	0.477444	4.648018	-68.622855	91.482991			
42981	10.414967	0.157883	1.460598	-0.099041	2.433997	0.419402	4.726648	-68.545289	91.397623			
42982	10.325492	-0.204853	1.814386	0.304481	2.127820	0.450323	4.777290	-68.428577	91.292084			
42983	9.775573	-0.607664	2.288217	0.764066	1.550300	0.095881	4.828491	-68.284585	91.178776			
42984	9.855638	-0.714691	3.175511	0.964547	0.786039	0.491682	4.855042	-68.247775	91.140502			
42985	10.579463	-0.004309	3.975744	0.332637	0.237427	1.481760	4.754012	-68.359851	91.274297			
42986	11.632720	1.084458	4.880389	-0.686681	-0.367333	2.824851	4.283152	-68.695012	91.747190			
42987	12.798400	1.652190	5.398932	-1.267844	-0.579287	4.106095	3.337179	-69.184379	92.614696			
42988	13.238805	1.810749	5.970391	-1.473486	-1.087307	4.707461	1.939899	-69.602098	93.902461			
42989	12.399709	1.718011	7.890396	-1.318208	-3.263360	4.559935	0.026944	-69.948041	95.500978			
42990	11.856427	1.319016	8.735795	-1.014511	-4.319124	4.291894	-2.352483	-70.453958	97.415650			
42991	12.330239	0.777086	7.119275	-0.838297	-2.740809	4.155206	-5.042344	-70.978567	99.526999			
42992	11.774755	-0.774830	5.695610	0.438015	-1.567886	3.188525	-7.602292	-71.206284	101.542231			
42993	9.792974	-2.016238	5.584970	1.631572	-2.058617	1.334407	-9.719285	-71.212556	103.203014			
42994	8.540133	-2.461200	6.071713	2.065263	-2.919588	0.339486	-11.498891	-71.236351	104.641174			
42995	8.809908	-3.335080	6.333469	2.820881	-3.066828	0.746022	-13.068720	-71.287676	105.957906			
42996	9.065557	-4.200164	6.527561	3.581382	-3.143933	1.129142	-14.320870	-71.231504	107.175342			
42997	8.801487	-4.594294	6.347573	3.929196	-3.026117	0.876987	-15.297131	-71.118950	108.325764			
42998	9.146340	-4.304716	5.994859	3.551833	-2.579067	1.089474	-16.101689	-71.007282	109.542915			
42999	9.094221	-3.106920	5.745382	2.331263	-2.411821	0.869793	-16.693813	-70.851564	110.716663			
43000	8.672172	-0.967862	5.853407	0.253236	-2.800021	0.311612	-17.241421	-70.730093	111.912084			
43001	9.172432	-0.172477	5.773889	-0.610380	-2.652011	0.679943	-17.893897	-70.716089	113.045972			
43002	10.415883	0.072405	5.188221	-1.068616	-1.768243	1.639159	-18.419385	-70.745493	113.954214			
43003	10.630947	0.035457	4.523777	-1.127303	-1.078181	1.634999	-18.608239	-70.635661	114.358447			
43004	10.273563	-0.288198	4.119316	-0.799943	-0.743011	1.205744	-18.439443	-70.451051	114.353971			
43005	9.277527	-0.378507	3.886921	-0.587353	-0.775232	0.206183	-17.940872	-70.217820	114.033376			
43006	8.620722	-0.352868	3.904455	-0.502156	-0.952024	-0.403787	-17.249176	-70.019166	113.558547			
43007	8.216428	-0.289760	3.872613	-0.482933	-1.016749	-0.794729	-16.473746	-69.871427	113.034779			
43008	7.926304	-0.259613	3.935380	-0.432317	-1.138188	-1.043518	-15.656083	-69.761866	112.521455			
43009	7.626959	0.052627	3.847657	-0.668467	-1.168679	-1.376759	-14.824004	-69.704036	112.077480			
43010	7.247441	0.682392	3.736711	-1.208303	-1.261191	-1.818733	-14.030634	-69.682070	111.743876			
43011	6.932402	1.589354	3.740933	-2.017792	-1.500280	-2.180104	-13.329581	-69.705126	111.526856			
43012	7.264211	2.413247	3.601993	-2.848020	-1.407542	-1.972132	-12.830389	-69.825699	111.426060			
43013	7.209524	2.452104	3.423718	-2.870332	-1.287357	-2.078625	-12.465999	-69.937565	111.313612			
43014	6.984677	2.221266	3.461490	-2.588165	-1.371624	-2.254801	-12.208377	-70.022298	111.196695			
43015	6.935675	1.690480	3.418854	-2.052243	-1.271782	-2.274736	-12.130473	-70.151295	111.136587			
43016	7.579882	0.652925	3.197872	-1.132972	-0.707011	-1.668747	-12.191367	-70.344634	111.128287			
43017	8.062318	-0.132204	2.928393	-0.447584	-0.200323	-1.248028	-12.220016	-70.553974	111.125722			
43018	8.297043	-0.569776	2.982570	-0.028170	-0.133476	-0.978514	-12.228564	-70.739851	111.136379			
43019	8.674893	-1.025050	3.129519	0.404631	-0.106365	-0.543207	-12.237047	-70.919194	111.202054			
43020	8.828937	-0.466575	3.080548	-0.161703	-0.128516	-0.452404	-12.260155	-71.028304	111.326280			
43021	8.731645	-0.266080	3.092598	-0.345819	-0.212755	-0.554624	-12.376081	-71.024213	111.459878			
43022	8.657107	-0.319154	3.117691	-0.289024	-0.244784	-0.613563	-12.466334	-70.931989	111.565515			
43023	8.868007	0.100055	3.243364	-0.719061	-0.355435	-0.403779	-12.532145	-70.816593	111.641252			
43024	8.877264	0.071947	3.174500	-0.712232	-0.264924	-0.415297	-12.567647	-70.679165	111.669649			
43025	8.833291	0.102275	2.981303	-0.772685	-0.082453	-0.521736	-12.576448	-70.543326	111.661474			
43026	8.812916	-0.051903	2.631752	-0.674334	0.283526	-0.644200	-12.581528	-70.429340	111.624102			
43027	8.466454	-0.130792	2.333022	-0.600044	0.481384	-1.063451	-12.589815	-70.366063	111.605269			
43028	8.488347	-0.133006	2.126837	-0.630478	0.682538	-1.110400	-12.640028	-70.408670	111.659962			
43029	8.872657	-0.363813	1.803172	-0.494725	1.128688	-0.835545	-12.772973	-70.547534	111.815092			
43030	9.361689	-0.473266	1.991914	-0.421115	1.098323	-0.302208	-12.909668	-70.683493	111.991355			
43031	9.364204	-0.553024	2.509590	-0.272910	0.607195	-0.125118	-13.061343	-70.769895	112.139876			
43032	9.645700	-0.562402	2.966476	-0.241851	0.254848	0.288420	-13.266668	-70.786566	112.254785			
43033	9.722558	-0.541969	3.003659	-0.279107	0.241721	0.371000	-13.459321	-70.699804	112.285343			
43034	9.824249	-0.190686	3.041718	-0.650349	0.196197	0.450975	-13.654468	-70.543942	112.295749			
43035	9.585286	0.410844	2.745450	-1.271346	0.330999	0.079632	-13.824954	-70.333438	112.261459			
43036	9.049030	0.929760	2.625481	-1.749534	0.228845	-0.510582	-13.974582	-70.114599	112.192662			
43037	8.633819	1.304647	2.436932	-2.106646	0.248413	-0.998845	-14.142818	-69.946350	112.124884			
43038	8.540568	1.175344	2.188056	-2.012274	0.496393	-1.163143	-14.354450	-69.825770	112.073264			
43039	8.560900	0.724406	2.023594	-1.603506	0.746732	-1.165156	-14.567523	-69.687362	111.961761			
43040	8.660122	0.207533	2.061160	-1.116871	0.844290	-1.019005	-14.726579	-69.500130	111.786413			
43041	8.556807	-0.466551	2.058609	-0.451437	0.936860	-1.060951	-14.833543	-69.282838	111.523956			
43042	8.438115	-0.997748	1.885601	0.062844	1.156370	-1.186472	-14.903327	-69.115517	111.293216			
43043	8.758741	-1.307105	1.637432	0.300249	1.550208	-0.946350	-14.991141	-69.021573	111.123396			
43044	9.124638	-1.331025	1.540657	0.264065	1.776887	-0.637874	-15.106170	-68.921750	111.028549			
43045	9.346890	-1.252329	1.701605	0.161682	1.704893	-0.384257	-15.303261	-68.793728	111.006642			
43046	9.704164	-1.228498	2.046953	0.100992	1.515794	0.064667	-15.592636	-68.650442	111.113143			
43047	10.095066	-1.113111	2.276303	-0.072038	1.438910	0.495329	-15.936293	-68.489847	111.271240			
43048	10.471462	-0.983603	2.366188	-0.273332	1.487922	0.861071	-16.311446	-68.333631	111.482967			
43049	10.644402	-0.964152	2.147220	-0.360976	1.768418	0.938392	-16.691191	-68.172494	111.675762			
43050	10.612276	-0.784053	2.126846	-0.565451	1.776672	0.877599	-17.044852	-68.016541	111.825439			
43051	10.679356	-0.801422	2.078601	-0.586049	1.869141	0.919240	-17.341471	-67.842592	111.855541			
43052	10.700958	-0.701293	1.776582	-0.723375	2.176247	0.812713	-17.493042	-67.651968	111.783770			
43053	10.168195	-0.505070	1.377406	-0.872064	2.380172	0.143146	-17.493015	-67.385494	111.529791			
43054	10.003098	0.010519	1.250850	-1.368787	2.437810	-0.127130	-17.421539	-67.133324	111.252257			
43055	9.684932	0.454699	0.925989	-1.774618	2.627430	-0.603489	-17.324752	-66.937125	110.928975			
43056	9.453198	1.008947	1.013156	-2.280327	2.450158	-0.857011	-17.196099	-66.796755	110.572977			
43057	9.259706	1.462923	2.354936	-2.650359	1.134891	-0.586880	-17.006795	-66.664859	110.112367			
43058	9.266626	0.990405	3.645948	-2.136793	0.008381	-0.036277	-16.794616	-66.651679	109.535519			
43059	9.975873	-0.128323	3.777484	-1.095673	0.228734	0.796315	-16.528818	-66.886467	108.766863			
43060	11.397689	-2.403212	3.185205	1.031257	1.383734	2.139247	-16.060671	-67.377919	107.749650			
43061	12.606770	-5.095639	4.189646	3.679330	0.920826	3.900853	-14.998461	-67.905657	106.382400			
43062	12.609308	-5.551596	5.090403	4.290591	0.017428	4.234186	-13.328485	-68.296325	104.815149			
43063	12.070288	-4.884652	7.072796	3.873517	-2.101253	4.334870	-11.545919	-68.689450	103.321778			
43064	13.335089	-4.222076	7.653308	3.313275	-2.290855	5.614346	-9.825630	-69.228696	102.031486			
43065	13.716658	-2.247968	6.969649	1.501503	-1.684826	5.571700	-8.033674	-69.591252	100.776013			
43066	11.547729	-0.482123	6.902314	0.052978	-2.482361	3.418247	-6.396042	-69.629068	99.642736			
43067	9.376227	0.047632	6.914723	-0.215560	-3.261054	1.369762	-4.990368	-69.657125	98.714897			
43068	8.447100	1.275782	7.167841	-1.261652	-3.915157	0.552529	-3.762076	-69.834094	98.028975			
43069	8.084369	1.924450	6.961181	-1.802876	-3.932780	0.127161	-2.739141	-70.061440	97.441967			
43070	7.936441	2.623694	6.908925	-2.412264	-4.031388	-0.038618	-1.799798	-70.229853	96.831459			
43071	7.731200	3.210537	6.546126	-2.954954	-3.830029	-0.350676	-0.974809	-70.256704	96.109776			
43072	7.511251	3.564305	6.474874	-3.265513	-3.859791	-0.566852	-0.284085	-70.188057	95.342534			
43073	7.297407	3.471529	6.423536	-3.153084	-3.847713	-0.767328	0.330503	-70.118368	94.403660			
43074	7.756662	2.681473	5.639083	-2.428028	-2.867175	-0.591012	0.984338	-70.153229	93.329604			
43075	8.662338	1.644438	4.844057	-1.450474	-1.729494	-0.009112	1.653826	-70.241301	92.203625			
43076	9.136358	0.638962	4.351573	-0.456494	-1.041225	0.263268	2.336673	-70.267120	91.126450			
43077	9.091442	-0.175384	4.373769	0.388066	-1.027764	0.217665	2.930771	-70.228887	90.163903			
43078	9.071186	-0.992961	4.447194	1.232289	-1.062179	0.207448	3.367312	-70.216041	89.403588			
43079	9.934075	-1.124837	4.297151	1.379793	-0.635712	0.962682	3.750574	-70.283512	88.787728			
43080	11.003186	-0.970264	3.896909	1.235076	0.079662	1.834871	4.028064	-70.324044	88.367984			
43081	10.262423	-0.885341	3.746820	1.150142	-0.021378	1.087608	4.141462	-70.138698	88.169336			
43082	8.682052	-0.703332	4.219111	0.974594	-0.972070	-0.232567	4.104291	-69.898636	88.150199			
43083	8.052848	-1.036739	4.590386	1.309451	-1.492766	-0.699414	3.921199	-69.729674	88.251471			
43084	7.564733	-1.530252	4.419787	1.777434	-1.463020	-1.221900	3.636216	-69.598809	88.460374			
43085	6.695730	-2.146049	4.273113	2.360728	-1.592448	-2.093307	3.244147	-69.472827	88.748835			
43086	5.881331	-3.107562	3.796600	3.276229	-1.392585	-3.031232	2.720987	-69.399891	89.142941			
43087	5.992013	-3.364814	3.022882	3.483724	-0.624629	-3.191702	2.136751	-69.449175	89.654761			
43088	6.272900	-3.058945	2.779489	3.145306	-0.315942	-2.998062	1.478237	-69.565260	90.322299			
43089	6.684951	-2.286701	2.807443	2.345446	-0.234656	-2.584753	0.800297	-69.731544	91.116878			
43090	6.833496	-1.751482	2.906860	1.783617	-0.312351	-2.400858	0.093367	-69.954448	92.004699			
43091	7.612162	-1.599540	3.016326	1.596803	-0.187142	-1.626312	-0.572579	-70.303387	92.919888			
43092	8.935821	-1.224153	2.797752	1.161325	0.397875	-0.449593	-1.136298	-70.696355	93.819652			
43093	9.736886	-0.516305	2.854514	0.412350	0.520789	0.325374	-1.557272	-70.977662	94.590854			
43094	9.529894	-0.165143	2.773610	0.043870	0.475338	0.102509	-1.793603	-71.102958	95.183828			
43095	9.171411	0.050598	2.992247	-0.158888	0.120525	-0.167425	-1.903841	-71.192006	95.594311			
43096	9.331518	0.136961	3.090594	-0.245887	0.058017	0.015024	-1.887310	-71.269595	95.858318			
43097	9.454581	0.203999	2.931636	-0.323360	0.230418	0.080116	-1.794207	-71.324501	95.993720			
43098	9.177580	0.011894	2.936058	-0.114694	0.148611	-0.178721	-1.595435	-71.314565	96.026843			
43099	9.063489	-0.292030	2.759809	0.191658	0.308655	-0.340801	-1.285599	-71.269297	95.932531			
43100	8.945823	-0.561327	2.580415	0.465068	0.477356	-0.509077	-0.932087	-71.171675	95.816043			
43101	8.625009	-0.722866	2.484895	0.642592	0.500189	-0.844698	-0.609285	-71.038924	95.713194			
43102	8.196970	-0.796120	2.119958	0.709834	0.732274	-1.370044	-0.334274	-70.958812	95.637666			
43103	8.181820	-0.764210	1.951727	0.672735	0.890949	-1.440766	-0.119934	-70.968187	95.585467			
43104	8.271072	-0.840265	1.770563	0.737119	1.093713	-1.415545	0.080769	-71.053764	95.546999			
43105	8.650925	-0.753219	1.934581	0.662943	1.039279	-1.001966	0.308997	-71.195791	95.506309			
43106	9.081577	-0.887438	1.994593	0.800065	1.115667	-0.573850	0.579731	-71.342718	95.454220			
43107	9.373358	-0.982685	2.077574	0.907920	1.125494	-0.270636	0.921630	-71.436044	95.365465			
43108	9.429869	-0.982649	2.025624	0.916628	1.188805	-0.234708	1.342651	-71.458978	95.238358			
43109	9.339118	-0.849415	1.961522	0.797405	1.210649	-0.342384	1.791211	-71.442321	95.066952			
43110	9.130378	-0.865778	1.701683	0.807643	1.398480	-0.625684	2.262037	-71.435167	94.846899			
43111	9.239660	-0.823056	1.476241	0.755340	1.643582	-0.595525	2.791280	-71.459280	94.553570			
43112	9.385460	-0.710285	1.228108	0.630512	1.911390	-0.536448	3.349589	-71.464839	94.229872			
43113	9.558697	-0.714846	1.096063	0.636821	2.097228	-0.417099	3.953486	-71.436665	93.869902			
43114	10.058856	-0.526834	1.165400	0.472421	2.179058	0.078963	4.551301	-71.362837	93.515000			
43115	10.469703	-0.551684	1.453138	0.553161	2.067414	0.553137	5.125978	-71.210712	93.155460			
43116	10.588820	-0.668094	2.427985	0.828649	1.253846	0.967175	5.663073	-70.927292	92.884350			
43117	10.428430	-0.805934	2.916854	1.064564	0.825679	0.962018	6.197269	-70.621931	92.663322			
43118	10.295386	-0.707207	2.930566	0.996125	0.821804	0.836971	6.712364	-70.282072	92.534653			
43119	9.647315	-0.252423	3.021465	0.593208	0.524063	0.268808	7.157044	-69.857879	92.498830			
43120	8.664656	0.382212	3.062245	0.006269	0.121786	-0.615710	7.497103	-69.423435	92.554063			
43121	8.191460	0.500268	2.956769	-0.109408	0.097186	-1.090814	7.693409	-69.045019	92.661434			
43122	8.179004	0.008175	2.777878	0.347963	0.398551	-1.191053	7.807184	-68.676583	92.820665			
43123	8.412799	-0.326206	2.767079	0.672098	0.608679	-0.997028	7.923254	-68.331484	92.966549			
43124	9.036032	-0.632497	2.501388	0.912526	1.188841	-0.535801	8.059150	-68.052321	93.100433			
43125	9.578003	-0.778483	1.963090	0.943501	1.954576	-0.247795	8.269694	-67.817656	93.203418			
43126	9.792855	-0.868277	2.010702	1.037643	2.051844	-0.044887	8.513471	-67.621497	93.301902			
43127	9.840642	-1.321908	1.732336	1.426922	2.444789	-0.139349	8.772012	-67.496829	93.399465			
43128	10.409021	-1.574211	1.582603	1.629590	2.867890	0.309078	9.029178	-67.503252	93.533613			
43129	10.716209	-1.366354	1.610604	1.421991	2.922183	0.615011	9.217694	-67.562588	93.744870			
43130	10.455577	-0.794011	1.956375	0.935908	2.383329	0.542058	9.228081	-67.673707	94.126233			
43131	10.702782	0.108396	2.717576	0.202733	1.569034	1.116328	8.974524	-67.873313	94.719327			
43132	11.262595	1.077699	3.640077	-0.580721	0.677018	2.038956	8.333586	-68.178945	95.617566			
43133	11.654843	2.087519	4.440381	-1.451764	-0.221792	2.747238	7.204856	-68.616621	96.888178			
43134	12.145782	3.204030	4.307522	-2.684834	-0.321649	3.188296	5.570698	-69.219931	98.525577			
43135	12.507748	3.591622	4.412413	-3.187574	-0.534952	3.542545	3.449059	-69.761971	100.422527			
43136	12.322800	2.905846	5.332792	-2.464352	-1.398561	3.629833	1.062480	-70.078153	102.442279			
43137	11.906045	3.148836	7.260149	-2.430616	-3.451867	3.845699	-1.362102	-70.329366	104.456963			
43138	11.807087	2.655064	7.546108	-2.075602	-3.730271	3.795143	-3.816246	-70.604628	106.358759			
43139	11.513249	1.312458	6.347407	-1.163633	-2.509329	3.106808	-6.047221	-70.765852	107.984633			
43140	10.183604	0.314039	5.507448	-0.362559	-1.990481	1.590883	-7.883627	-70.758519	109.259946			
43141	8.860234	-0.475265	5.767785	0.480737	-2.515432	0.455585	-9.416014	-70.742733	110.227322			
43142	8.210693	-1.663320	5.800240	1.625573	-2.546776	-0.081522	-10.705358	-70.721533	110.996553			
43143	7.979884	-2.520465	6.198564	2.475836	-2.854199	-0.108213	-11.694414	-70.626725	111.639498			
43144	7.776155	-3.237539	6.420797	3.171942	-3.008002	-0.165551	-12.561652	-70.531257	112.283831			
43145	7.689581	-3.713441	6.119465	3.551869	-2.678452	-0.295489	-13.352501	-70.465535	112.996852			
43146	8.491949	-3.363277	5.989692	3.040960	-2.379411	0.404555	-14.137436	-70.415761	113.856797			
43147	8.898999	-2.220096	6.060029	1.835734	-2.529134	0.726687	-14.893583	-70.330855	114.806329			
43148	9.115375	-0.870902	6.020069	0.441211	-2.681213	0.803625	-15.713721	-70.287563	115.860126			
43149	9.788955	-0.183010	5.633872	-0.426318	-2.268334	1.244906	-16.572543	-70.302947	116.930557			
43150	10.595370	0.149724	5.408230	-0.948213	-1.909269	1.891526	-17.353281	-70.306091	117.888224			
43151	11.012411	0.285350	5.055713	-1.239526	-1.504805	2.150333	-17.932538	-70.265062	118.580600			
43152	10.631753	0.050003	4.789392	-1.022652	-1.324169	1.727488	-18.227501	-70.145716	118.935444			
43153	9.187919	-0.148770	4.681862	-0.630083	-1.592641	0.357180	-18.211966	-69.949286	118.962970			
43154	8.725823	-0.186281	4.575872	-0.543655	-1.597811	-0.103687	-18.102867	-69.810760	118.883606			
43155	8.302925	-0.173383	4.087290	-0.566730	-1.250244	-0.658987	-17.932563	-69.679147	118.738303			
43156	7.743307	0.379763	3.923906	-1.035108	-1.359033	-1.293204	-17.637342	-69.553220	118.540904			
43157	6.859518	0.634253	3.678136	-1.165734	-1.432630	-2.225031	-17.227056	-69.433068	118.249992			
43158	6.267499	0.976143	3.709651	-1.377831	-1.698821	-2.797601	-16.687600	-69.370400	117.920957			
43159	5.881812	1.626002	3.433582	-1.966726	-1.690403	-3.308572	-16.038947	-69.358413	117.516009			
43160	5.844573	2.259753	3.120950	-2.600248	-1.546104	-3.499683	-15.356548	-69.409341	117.050901			
43161	6.159016	2.582404	3.111902	-2.934417	-1.512050	-3.225653	-14.705343	-69.530947	116.514798			
43162	6.894513	1.950518	3.178137	-2.391647	-1.213255	-2.447410	-14.190749	-69.741944	115.996080			
43163	7.847322	1.314383	3.358504	-1.852641	-0.963698	-1.432564	-13.795541	-70.025403	115.523642			
43164	8.558938	0.758292	3.467949	-1.364725	-0.755979	-0.679072	-13.573368	-70.335965	115.153388			
43165	8.992060	-0.259125	3.176172	-0.459724	-0.177612	-0.285399	-13.513339	-70.664669	114.917766			
43166	9.014701	-1.055389	2.714454	0.255708	0.378295	-0.350224	-13.554750	-70.979654	114.830064			
43167	8.669738	-1.439477	2.712598	0.694382	0.313160	-0.646758	-13.637334	-71.233861	114.822293			
43168	8.429653	-0.915284	2.936019	0.262532	-0.106305	-0.844036	-13.789361	-71.396876	114.918853			
43169	8.148293	-0.294027	3.195093	-0.265530	-0.575935	-1.078415	-14.089472	-71.436227	115.091877			
43170	8.396841	0.047127	3.425142	-0.611426	-0.797584	-0.799879	-14.571211	-71.426569	115.376086			
43171	8.857002	0.268975	3.333962	-0.933885	-0.631748	-0.412538	-15.159673	-71.412433	115.754870			
43172	9.166746	0.456230	2.937237	-1.256623	-0.218090	-0.260831	-15.870455	-71.413360	116.256609			
43173	9.225808	0.322391	2.776199	-1.195229	-0.036709	-0.247297	-16.613868	-71.398121	116.792285			
43174	9.041568	0.154023	2.525379	-1.079053	0.168223	-0.487536	-17.340810	-71.362287	117.315957			
43175	8.962663	-0.353498	2.488594	-0.612009	0.264808	-0.528152	-18.072377	-71.337889	117.825642			
43176	9.039982	-1.066025	2.380216	0.025824	0.505608	-0.417650	-18.720880	-71.340649	118.300279			
43177	8.922178	-1.220229	2.502958	0.184190	0.373569	-0.475371	-19.237239	-71.286976	118.676936			
43178	8.900928	-1.481887	2.563452	0.426701	0.351341	-0.448488	-19.693317	-71.250468	119.003000			
43179	9.130497	-1.290999	2.506450	0.175208	0.426345	-0.267927	-20.113775	-71.252132	119.345748			
43180	9.256982	-0.834585	2.352085	-0.332493	0.515348	-0.244806	-20.584326	-71.251494	119.743418			
43181	9.827876	-0.851877	2.338056	-0.431702	0.675871	0.293553	-21.143261	-71.268911	120.181494			
43182	9.641269	-0.803699	2.136381	-0.499646	0.795963	0.050420	-21.545427	-71.214785	120.543835			
43183	9.484581	-0.344036	2.182599	-0.940942	0.628582	-0.140105	-21.895585	-71.132695	120.878972			
43184	9.770837	-0.550868	1.984026	-0.836165	0.933121	0.093833	-22.271125	-71.056487	121.204174			
43185	10.109674	-0.567892	1.708220	-0.935188	1.293503	0.331190	-22.535075	-70.969411	121.485347			
43186	10.397695	-0.609298	1.585470	-0.981744	1.504822	0.568481	-22.744095	-70.851826	121.708182			
43187	10.314981	-0.734892	1.654306	-0.858701	1.456198	0.522575	-22.870096	-70.670119	121.810647			
43188	9.638762	-0.694079	1.589547	-0.811829	1.349157	-0.146524	-22.907027	-70.427982	121.818221			
43189	9.020355	-0.448707	1.521647	-0.972737	1.228706	-0.788970	-22.936765	-70.170203	121.785258			
43190	8.491618	-0.371021	1.257714	-1.008539	1.348101	-1.386990	-22.957638	-69.871253	121.692288			
43191	8.296606	-0.308230	1.398683	-1.038383	1.185816	-1.542232	-22.990450	-69.577459	121.587742			
43192	8.621865	-0.230892	1.749779	-1.151741	0.974103	-1.142273	-23.063543	-69.339562	121.514449			
43193	9.127665	-0.385765	2.032290	-1.079710	0.915373	-0.561227	-23.156351	-69.157623	121.455831			
43194	9.857955	-0.404261	2.103747	-1.205293	1.098599	0.142649	-23.199675	-68.992042	121.360457			
43195	10.129617	-0.618227	1.934017	-1.079302	1.406387	0.365173	-23.162466	-68.792429	121.161827			
43196	10.193096	-0.893376	1.884361	-0.838707	1.554940	0.440445	-23.029475	-68.568486	120.896645			
43197	10.035651	-1.054837	1.651339	-0.683238	1.793313	0.230764	-22.789159	-68.319143	120.562861			
43198	9.966514	-0.983632	1.361011	-0.774154	2.080847	0.047424	-22.471438	-68.044064	120.193157			
43199	9.972731	-0.911316	1.352640	-0.848793	2.130358	0.028877	-22.137370	-67.787086	119.802570			
43200	10.318470	-0.665634	2.002350	-1.086922	1.650971	0.532164	-21.733739	-67.552120	119.356030			
43201	10.436381	-0.328579	3.020447	-1.328412	0.739116	0.950117	-21.284629	-67.389456	118.828313			
43202	10.405204	-0.738835	3.614137	-0.841218	0.275335	1.191518	-20.796161	-67.368194	118.213875			
43203	11.020929	-1.331720	3.445022	-0.346316	0.744735	1.781609	-20.193176	-67.484375	117.451779			
43204	11.522398	-2.389278	2.403229	0.574363	2.039069	2.009390	-19.314028	-67.678612	116.479213			
43205	11.986186	-3.097130	2.533743	1.300772	2.182462	2.565701	-18.034961	-67.849132	115.274983			
43206	11.892938	-2.990839	3.897154	1.461584	0.897090	2.940052	-16.427452	-67.933094	113.969430			
43207	11.698972	-2.907065	5.457265	1.701608	-0.588296	3.296677	-14.857000	-68.054315	112.815528			
43208	12.298416	-3.092930	6.692471	2.080069	-1.469850	4.298205	-13.425548	-68.269495	111.899536			
43209	12.753017	-2.948491	6.482696	1.997172	-1.127947	4.612834	-12.089547	-68.469918	111.128720			
43210	12.247330	-2.514891	5.778391	1.676043	-0.697459	3.840689	-10.787859	-68.546755	110.441035			
43211	10.837195	-1.677646	5.679521	1.131940	-1.200084	2.426336	-9.541818	-68.560913	109.853208			
43212	9.887534	-0.141364	5.915372	-0.116929	-2.010837	1.532663	-8.494839	-68.655823	109.494658			
43213	9.490340	1.143873	6.099808	-1.206088	-2.577821	1.163756	-7.750688	-68.770979	109.310303			
43214	8.690854	1.765358	6.206071	-1.630404	-3.090644	0.431929	-7.217941	-68.835997	109.183891			
43215	7.682771	2.347114	6.482535	-1.977505	-3.823424	-0.430368	-6.802883	-68.907771	109.043172			
43216	7.134147	2.906952	6.424029	-2.428613	-4.094408	-0.983639	-6.414503	-69.030805	108.843726			
43217	6.854145	3.688568	6.073985	-3.192149	-4.059376	-1.397838	-6.035729	-69.160185	108.558239			
43218	6.492329	4.350582	5.785582	-3.831249	-4.073275	-1.857764	-5.722582	-69.235423	108.180792			
43219	6.000895	3.921642	5.222435	-3.465934	-3.620498	-2.495371	-5.467485	-69.284984	107.663957			
43220	5.975226	2.738814	4.703811	-2.412642	-2.886464	-2.658825	-5.193656	-69.388321	107.023685			
43221	6.974083	1.203972	4.469129	-1.059326	-2.010420	-1.756849	-4.842436	-69.531478	106.214493			
43222	8.063423	-0.109802	4.605428	0.158371	-1.513938	-0.651701	-4.319793	-69.666844	105.236862			
43223	9.192488	-1.092183	4.800044	1.081935	-1.141008	0.495682	-3.618326	-69.789364	104.118713			
43224	10.061380	-1.816152	4.614620	1.734294	-0.563497	1.255235	-2.837310	-69.902194	102.992854			
43225	10.869611	-2.214775	3.992863	2.019953	0.331745	1.797910	-2.014568	-70.026328	101.930268			
43226	10.582805	-2.283544	3.227570	2.045955	0.948878	1.257134	-1.159475	-70.023519	100.966792			
43227	9.689083	-1.548703	3.403619	1.457000	0.381771	0.463137	-0.409049	-69.842535	100.181867			
43228	8.234202	-1.206447	3.971494	1.329361	-0.657107	-0.711522	0.104126	-69.624802	99.644475			
43229	7.389446	-1.153662	4.600802	1.440600	-1.508551	-1.283260	0.355075	-69.484150	99.321229			
43230	7.296777	-1.277604	4.478078	1.548861	-1.394083	-1.411142	0.304518	-69.429986	99.231665			
43231	7.497287	-1.586912	3.890309	1.738416	-0.732026	-1.427932	0.008793	-69.410981	99.310394			
43232	7.504667	-1.922752	3.472317	1.985005	-0.292923	-1.563573	-0.432467	-69.360464	99.538090			
43233	7.210862	-2.081949	3.332613	2.113265	-0.243670	-1.880977	-0.941603	-69.304041	99.854369			
43234	7.230790	-1.824472	3.238057	1.819075	-0.195269	-1.891147	-1.440741	-69.326856	100.245340			
43235	7.506143	-1.041502	3.503034	1.044094	-0.481168	-1.543683	-1.890612	-69.439953	100.657330			
43236	8.288958	-0.715868	3.518557	0.655225	-0.306840	-0.808473	-2.348901	-69.682721	101.074350			
43237	9.171632	-0.437222	3.368762	0.285244	0.041602	-0.036430	-2.728734	-69.978017	101.419939			
43238	9.476259	-0.508923	2.980942	0.271289	0.464395	0.119837	-3.030590	-70.240892	101.689473			
43239	9.406026	-0.924483	2.940110	0.675115	0.503165	0.049523	-3.201458	-70.412904	101.844333			
43240	9.304223	-1.067137	3.201924	0.858531	0.224710	0.044902	-3.220437	-70.506213	101.912426			
43241	9.297956	-1.119908	3.360589	0.937096	0.072576	0.092681	-3.142299	-70.546211	101.894257			
43242	9.119035	-1.042971	3.195076	0.856909	0.156510	-0.133105	-2.992641	-70.537387	101.819352			
43243	8.866103	-0.760662	2.903149	0.562784	0.308268	-0.474438	-2.777852	-70.502074	101.689177			
43244	8.799763	-0.602610	2.617551	0.380706	0.539898	-0.635864	-2.502492	-70.428907	101.539084			
43245	8.521176	-0.360140	2.329134	0.129161	0.698727	-1.000194	-2.162589	-70.281607	101.353625			
43246	8.087334	-0.307764	2.144121	0.088703	0.748693	-1.474316	-1.817868	-70.070442	101.180696			
43247	7.604954	-0.266983	2.143850	0.088529	0.612839	-1.931113	-1.513605	-69.867244	100.997315			
43248	7.803434	-0.404348	1.959107	0.191040	0.897027	-1.809313	-1.255067	-69.771234	100.787797			
43249	8.173086	-0.693932	1.676313	0.419238	1.345190	-1.560076	-0.990423	-69.721337	100.557712			
43250	8.402815	-0.798858	1.698134	0.524087	1.430448	-1.338712	-0.669243	-69.679923	100.289877			
43251	8.516904	-0.816973	1.740138	0.558035	1.442343	-1.219586	-0.260373	-69.652470	99.968125			
43252	8.697943	-0.875363	1.842703	0.641458	1.428035	-1.016937	0.219328	-69.631330	99.608326			
43253	9.094445	-0.883200	1.707391	0.629373	1.699310	-0.695653	0.798833	-69.613331	99.194549			
43254	9.344658	-0.610808	1.677331	0.370689	1.779850	-0.474391	1.446740	-69.544944	98.752076			
43255	9.319943	-0.447499	1.645567	0.235870	1.792074	-0.512031	2.117833	-69.442546	98.280786			
43256	8.956104	-0.332937	1.743197	0.187593	1.579469	-0.822061	2.759616	-69.315038	97.826589			
43257	8.593246	-0.238351	1.770045	0.143374	1.435985	-1.155261	3.346787	-69.174795	97.410874			
43258	8.597333	-0.490470	1.469554	0.361647	1.780897	-1.267991	3.902092	-69.087652	97.026719			
43259	8.807260	-0.640183	1.086433	0.452179	2.248232	-1.216238	4.415759	-69.044248	96.690692			
43260	8.895110	-0.907947	1.468035	0.800708	1.995809	-1.010527	4.838160	-68.942741	96.435783			
43261	9.054084	-1.146931	1.977011	1.140423	1.652153	-0.692916	5.227029	-68.858871	96.261076			
43262	9.337592	-0.986209	2.335177	1.055949	1.410681	-0.298950	5.598541	-68.836809	96.152157			
43263	9.890513	-0.702893	2.270197	0.757696	1.620924	0.200733	5.903537	-68.833103	96.150799			
43264	10.266451	-0.377030	2.239533	0.424776	1.723303	0.551070	6.069307	-68.829060	96.270915			
43265	10.571811	-0.445686	2.085974	0.447250	1.986786	0.778146	6.108933	-68.861389	96.451801			
43266	10.803197	-0.603735	1.571856	0.479232	2.561349	0.805886	6.133105	-68.951629	96.638281			
43267	11.173932	-0.762633	1.150151	0.523125	3.095963	0.999461	6.192344	-69.047176	96.803386			
43268	11.383034	-0.866926	1.124086	0.604892	3.204669	1.185166	6.285351	-69.108987	96.944281			
43269	11.499533	-1.341220	1.889107	1.226932	2.652799	1.547953	6.385694	-69.126752	97.083112			
43270	11.845853	-1.663315	3.068550	1.788203	1.788013	2.274999	6.521037	-69.092174	97.292230			
43271	12.193650	-1.149429	4.123392	1.516134	0.849312	2.993118	6.612815	-69.118499	97.656750			
43272	12.659975	0.028788	4.467181	0.430306	0.403111	3.599384	6.504869	-69.319044	98.272734			
43273	13.152110	1.547217	4.268625	-1.133057	0.312066	4.051335	6.002546	-69.622084	99.212052			
43274	13.040992	2.483683	4.433042	-2.040563	-0.198839	4.032299	5.052709	-69.852995	100.444241			
43275	12.240241	2.916774	5.876768	-2.115636	-1.966328	3.771272	3.765980	-70.061758	101.834609			
43276	12.151557	3.068455	7.672364	-1.891853	-3.756300	4.267433	2.195015	-70.427230	103.318459			
43277	12.485807	2.906227	7.556845	-1.904307	-3.628757	4.492910	0.434837	-70.882042	104.876976			
43278	12.257557	2.440703	6.113686	-1.914819	-2.386285	3.760039	-1.323667	-71.199288	106.396442			
43279	10.661258	1.593709	5.671625	-1.173035	-2.329088	2.085540	-2.949982	-71.296486	107.656591			
43280	8.662065	-0.211004	5.542252	0.635847	-2.399956	0.168675	-4.342510	-71.350683	108.555998			
43281	7.977926	-1.334648	5.737259	1.758678	-2.552537	-0.392725	-5.482772	-71.483274	109.176255			
43282	8.354271	-2.264782	5.692653	2.548700	-2.227070	-0.021202	-6.402930	-71.595324	109.648191			
43283	8.979528	-3.653676	6.004029	3.844414	-2.047715	0.725655	-7.160461	-71.609230	110.094551			
43284	8.932435	-5.029447	6.118686	5.164234	-1.875814	0.786080	-7.801559	-71.544190	110.580664			
43285	8.160849	-5.521538	5.748696	5.616531	-1.649558	-0.021479	-8.364640	-71.460152	111.214634			
43286	7.724343	-5.325760	5.257121	5.349852	-1.348075	-0.580777	-8.920009	-71.408976	112.066920			
43287	7.702165	-3.519539	4.857289	3.498430	-1.379348	-0.803689	-9.453215	-71.366145	113.155823			
43288	7.635420	-0.840251	4.926076	0.916673	-2.097498	-0.979111	-10.069476	-71.281948	114.403165			
43289	8.158336	0.348624	4.922849	-0.313684	-2.249691	-0.552295	-10.858476	-71.261126	115.691432			
43290	9.414393	0.904512	4.567380	-1.129662	-1.733135	0.484391	-11.725236	-71.295591	116.952258			
43291	10.722236	1.540326	4.345726	-2.017858	-1.365873	1.601631	-12.587822	-71.302550	118.081009			
43292	11.042561	1.488916	3.685134	-2.222474	-0.678750	1.691004	-13.321449	-71.203629	118.932236			
43293	9.712480	1.599547	3.386395	-2.238500	-0.800150	0.321766	-13.643831	-70.910930	119.331815			
43294	8.071218	1.474450	3.653924	-1.826263	-1.441806	-1.137696	-13.795995	-70.589045	119.449201			
43295	7.599038	1.120782	3.955909	-1.364334	-1.723029	-1.456827	-13.911408	-70.392490	119.447641			
43296	7.592189	0.939130	3.898638	-1.221900	-1.597025	-1.465288	-13.902737	-70.219756	119.329792			
43297	7.566004	0.842487	3.766111	-1.168162	-1.430519	-1.522529	-13.743837	-70.043213	119.080536			
43298	7.382288	0.970466	3.672939	-1.284735	-1.407213	-1.731871	-13.395556	-69.882705	118.727921			
43299	6.952158	1.327504	3.547108	-1.578145	-1.493956	-2.199920	-12.921548	-69.746493	118.300936			
43300	6.611042	1.495396	3.608334	-1.656354	-1.676716	-2.504663	-12.428094	-69.653054	117.825998			
43301	6.689517	1.895950	3.592507	-2.043061	-1.732134	-2.459053	-12.003018	-69.635384	117.354061			
43302	7.010274	2.149803	3.462095	-2.358650	-1.570802	-2.215252	-11.727238	-69.632262	116.913657			
43303	7.761404	1.791005	3.503776	-2.119735	-1.267594	-1.468620	-11.645577	-69.675008	116.560796			
43304	8.428817	1.531056	3.364054	-2.005986	-0.860264	-0.871663	-11.680053	-69.752019	116.300325			
43305	9.026465	1.606402	3.451527	-2.154593	-0.776436	-0.287694	-11.844789	-69.830261	116.087740			
43306	9.253746	1.627464	3.460086	-2.218406	-0.718538	-0.075388	-12.080603	-69.880926	115.868925			
43307	9.181608	1.639797	3.373707	-2.255225	-0.655537	-0.176457	-12.347626	-69.872350	115.590993			
43308	9.250059	1.448947	3.268844	-2.124733	-0.469899	-0.137308	-12.615589	-69.794595	115.219877			
43309	9.266892	0.585025	3.230256	-1.323293	-0.197863	-0.072992	-12.876312	-69.623360	114.749618			
43310	9.379268	-0.679926	3.164454	-0.146451	0.209508	0.106046	-13.036989	-69.401391	114.192493			
43311	9.119931	-1.543700	3.137160	0.709298	0.360568	-0.077970	-13.103694	-69.153085	113.588819			
43312	8.933010	-1.979517	2.783634	1.094645	0.738664	-0.340526	-13.094537	-68.918929	112.995843			
43313	8.675988	-2.148417	2.232716	1.210835	1.217896	-0.761497	-13.076351	-68.694209	112.466052			
43314	8.460859	-2.188574	1.817725	1.221656	1.556916	-1.108455	-13.097899	-68.499196	112.057947			
43315	8.428372	-2.061931	1.734606	1.088320	1.617924	-1.181596	-13.182681	-68.326531	111.799585			
43316	8.254851	-1.849605	1.878651	0.913342	1.405368	-1.310708	-13.369994	-68.163760	111.687633			
43317	8.290170	-1.649632	2.116555	0.724656	1.175843	-1.209186	-13.719628	-68.038278	111.733802			
43318	8.515299	-1.300362	2.303871	0.347915	1.032688	-0.962742	-14.185225	-67.920078	111.891569			
43319	8.460426	-1.180246	2.303064	0.207107	1.003424	-1.024852	-14.737895	-67.761350	112.101924			
43320	8.048243	-1.194922	2.179372	0.232872	0.988543	-1.450861	-15.310506	-67.541640	112.324310			
43321	7.702794	-1.090999	2.122471	0.139261	0.919847	-1.802534	-15.886503	-67.332867	112.612113			
43322	7.380048	-1.121787	1.867734	0.160420	1.054932	-2.192108	-16.484523	-67.186699	113.010305			
43323	7.503061	-1.006509	1.796158	-0.011341	1.150603	-2.117815	-17.134858	-67.104432	113.535980			
43324	7.516075	-0.754933	1.998557	-0.280363	0.929391	-2.059427	-17.857767	-67.042399	114.160300			
43325	7.676690	-0.621733	2.270770	-0.456626	0.708441	-1.827454	-18.701736	-66.974374	114.838799			
43326	8.132769	-0.786767	2.479575	-0.401226	0.688161	-1.311249	-19.616670	-66.898662	115.514852			
43327	8.607500	-1.075617	2.728764	-0.232898	0.651089	-0.745508	-20.526414	-66.805093	116.131033			
43328	9.089795	-1.456236	2.748710	0.005952	0.838192	-0.242025	-21.360389	-66.731707	116.633477			
43329	9.880401	-1.789128	2.555069	0.136775	1.322510	0.462711	-22.006779	-66.688316	116.999644			
43330	10.579190	-1.845370	2.202202	0.016998	1.891340	0.985314	-22.404165	-66.664002	117.189440			
43331	10.689517	-1.920098	1.964001	0.043968	2.155834	1.011373	-22.541212	-66.625408	117.165493			
43332	10.652158	-1.976729	1.751850	0.096697	2.349679	0.907133	-22.479033	-66.603752	116.995010			
43333	10.824025	-2.152059	1.336073	0.231935	2.823243	0.936798	-22.261241	-66.584670	116.693374			
43334	11.061200	-2.421146	1.214335	0.471651	3.066063	1.144657	-21.847541	-66.521411	116.225139			
43335	11.095774	-2.474774	1.721922	0.571911	2.642146	1.363066	-21.246484	-66.438628	115.636001			
43336	11.081745	-2.237351	2.487182	0.415295	1.937791	1.592097	-20.535342	-66.379796	114.974238			
43337	10.986067	-2.152186	2.982828	0.421233	1.465194	1.672010	-19.764807	-66.381769	114.252164			
43338	11.102693	-2.239314	3.157385	0.560070	1.369843	1.851910	-18.951472	-66.505373	113.475681			
43339	11.402180	-2.379439	2.906746	0.720217	1.716367	2.047128	-18.023854	-66.778714	112.645137			
43340	11.909874	-2.282768	3.351820	0.673179	1.452954	2.666312	-16.895966	-67.116391	111.722593			
43341	12.231177	-1.839430	4.178784	0.355746	0.728917	3.217591	-15.629710	-67.424343	110.743824			
43342	12.858496	-1.319159	5.475297	-0.030387	-0.329518	4.221158	-14.368384	-67.719351	109.825194			
43343	13.563370	-0.438238	7.178297	-0.724622	-1.793674	5.416902	-13.131301	-68.050873	109.062111			
43344	13.994017	0.842562	7.887047	-1.824477	-2.516869	5.969632	-11.979185	-68.463194	108.448431			
43345	13.837941	1.808487	7.156973	-2.674807	-2.093688	5.498789	-10.949483	-68.790114	107.931582			
43346	12.021051	2.412413	6.639517	-3.004671	-2.371176	3.594668	-10.091495	-68.945137	107.511091			
43347	10.144737	2.240160	6.583810	-2.557931	-2.966348	1.846555	-9.513454	-69.057625	107.293821			
43348	9.165342	2.203143	6.756061	-2.342119	-3.477241	1.000487	-9.129178	-69.153877	107.211578			
43349	8.675489	1.741077	6.890438	-1.782552	-3.710217	0.619491	-8.887320	-69.163616	107.118214			
43350	8.436297	1.338649	6.802779	-1.356764	-3.642277	0.391914	-8.730982	-69.102956	106.954622			
43351	7.556674	1.211645	6.102910	-1.226942	-3.254859	-0.662968	-8.565090	-68.981638	106.639379			
43352	6.540643	1.174232	5.318617	-1.186599	-2.846245	-1.879382	-8.307185	-68.859671	106.141145			
43353	5.678624	1.009616	4.491113	-1.035725	-2.332096	-2.962522	-7.867512	-68.785588	105.433098			
43354	5.429983	1.018959	4.329555	-1.032095	-2.254788	-3.246203	-7.273162	-68.788566	104.551973			
43355	6.180239	0.632546	4.438838	-0.690071	-2.032817	-2.485330	-6.566134	-68.848129	103.520768			
43356	7.407720	-0.082511	4.820829	-0.017929	-1.863919	-1.172843	-5.758336	-68.943853	102.382540			
43357	8.425026	-0.604446	4.725051	0.454437	-1.361986	-0.241336	-4.813154	-69.065503	101.180111			
43358	9.279750	-0.738196	4.743520	0.586089	-1.076938	0.563056	-3.848893	-69.200491	100.009876			
43359	9.795894	-0.993354	4.390436	0.833465	-0.553291	0.921422	-2.968488	-69.300924	98.983387			
43360	9.835605	-0.941043	3.622038	0.760276	0.162733	0.682032	-2.232625	-69.346529	98.137100			
43361	9.493057	-1.059734	3.371693	0.912047	0.290459	0.271617	-1.719174	-69.317935	97.513104			
43362	8.572947	-1.351520	3.673215	1.296697	-0.270550	-0.482099	-1.383611	-69.212540	97.066805			
43363	8.301219	-1.270357	4.281123	1.294527	-0.928734	-0.522171	-1.226274	-69.164772	96.815821			
43364	8.239422	-1.349208	4.279268	1.376280	-0.936323	-0.579610	-1.264697	-69.129222	96.741632			
43365	8.251312	-1.328358	4.127810	1.331137	-0.792580	-0.620986	-1.510567	-69.104266	96.818225			
43366	8.266583	-1.660528	3.777999	1.609888	-0.433755	-0.724944	-1.953062	-69.085509	97.031538			
43367	7.773912	-2.098847	3.470969	2.014934	-0.287003	-1.283673	-2.478595	-69.031977	97.322901			
43368	7.321530	-2.093155	3.421505	1.997677	-0.404659	-1.717116	-2.986302	-68.993564	97.657640			
43369	7.288482	-1.835465	3.242119	1.703980	-0.278638	-1.811376	-3.477258	-69.036491	98.034056			
43370	7.363466	-1.636129	2.888590	1.455222	0.046260	-1.867774	-3.910378	-69.134366	98.415757			
43371	7.575448	-1.446441	2.856643	1.235632	0.114312	-1.682491	-4.286221	-69.291435	98.803371			
43372	8.102145	-1.296652	2.815546	1.041852	0.295199	-1.205676	-4.590530	-69.512341	99.150604			
43373	8.517698	-1.294825	2.914258	1.014425	0.309892	-0.779669	-4.837928	-69.756252	99.469384			
43374	8.868557	-1.205560	3.138967	0.915481	0.176869	-0.374026	-5.002962	-69.948379	99.722342			
43375	9.132269	-0.914473	3.317694	0.620441	0.048031	-0.073364	-5.082824	-70.061084	99.902388			
43376	9.025014	-0.807689	3.216605	0.512506	0.086876	-0.211668	-5.081798	-70.080718	99.981866			
43377	8.912204	-0.519936	3.101204	0.227717	0.132552	-0.365690	-4.942792	-70.056763	99.949540			
43378	8.635606	-0.411315	2.827853	0.124021	0.296164	-0.722225	-4.679662	-69.978865	99.777797			
43379	8.421359	-0.393689	2.591485	0.115004	0.460078	-1.005581	-4.277207	-69.881892	99.483068			
43380	8.210269	-0.162666	2.639094	-0.078906	0.342094	-1.194308	-3.768732	-69.763600	99.098576			
43381	7.768959	-0.207413	2.352784	-0.011020	0.484350	-1.707101	-3.222503	-69.645955	98.639007			
43382	7.983649	-0.161307	2.071997	-0.066950	0.831839	-1.605292	-2.649517	-69.596961	98.146883			
43383	8.245006	-0.171545	1.819305	-0.064163	1.167324	-1.448922	-2.087580	-69.582320	97.602957			
43384	8.243689	-0.068527	1.639376	-0.152916	1.332240	-1.514957	-1.477526	-69.548079	97.005084			
43385	8.513692	0.059283	1.744036	-0.250024	1.323185	-1.226961	-0.840219	-69.533667	96.357566			
43386	8.891877	0.031760	1.719180	-0.203680	1.486841	-0.881295	-0.166127	-69.519293	95.680003			
43387	9.065659	-0.102373	1.642134	-0.044598	1.640779	-0.746323	0.548637	-69.470713	94.981934			
43388	9.275286	-0.311913	1.600770	0.194574	1.786458	-0.568163	1.293102	-69.391580	94.257933			
43389	9.065548	-0.338890	1.621006	0.269390	1.716243	-0.762360	2.029006	-69.259899	93.573150			
43390	8.903056	-0.457064	1.696245	0.435674	1.625712	-0.895422	2.709821	-69.095733	92.921461			
43391	8.952548	-0.696470	1.632309	0.702154	1.748390	-0.882536	3.305472	-68.983820	92.319502			
43392	9.255159	-1.015800	1.420176	1.029425	2.099004	-0.689033	3.875385	-68.911946	91.731394			
43393	9.481242	-1.218195	1.672035	1.284670	1.979226	-0.399620	4.365920	-68.811133	91.230118			
43394	9.718286	-1.639671	2.255235	1.786939	1.581637	0.012019	4.784874	-68.680555	90.793336			
43395	9.636666	-1.758564	2.827248	1.986426	1.056611	0.131596	5.190316	-68.538193	90.469096			
43396	9.961241	-1.460939	3.060549	1.734426	0.955275	0.522048	5.526746	-68.448202	90.275172			
43397	10.249187	-1.246511	2.862030	1.515993	1.243167	0.720455	5.735304	-68.376047	90.237413			
43398	10.566526	-1.027903	2.775619	1.293899	1.434536	0.989166	5.779387	-68.321807	90.359029			
43399	10.925670	-0.932604	2.853182	1.199119	1.494133	1.354691	5.633260	-68.322794	90.623919			
43400	11.284078	-0.751168	2.718902	0.983339	1.727532	1.647493	5.336204	-68.388012	91.006213			
43401	11.375806	-0.509495	2.404689	0.679635	2.010160	1.630578	4.929164	-68.494679	91.465378			
43402	11.329085	-0.721954	2.422202	0.859747	1.975905	1.593142	4.472481	-68.624018	91.952263			
43403	11.136393	-0.701941	2.903615	0.859696	1.434728	1.595436	3.987837	-68.728284	92.475676			
43404	10.936177	-0.657240	3.406103	0.834921	0.869374	1.596974	3.415264	-68.846819	93.073267			
43405	11.066496	-0.352834	3.130397	0.453913	1.106008	1.631157	2.706337	-69.038517	93.847389			
43406	11.294859	0.286070	2.542884	-0.308952	1.607028	1.652180	1.777573	-69.353330	94.870697			
43407	11.658518	0.534827	2.235209	-0.675038	1.920677	1.894470	0.585550	-69.672884	96.116660			
43408	11.784638	0.216344	3.236046	-0.342858	1.003746	2.363946	-0.796922	-69.881612	97.456611			
43409	11.622180	-0.704472	5.311508	0.698153	-0.929836	2.932124	-2.338211	-69.998582	98.830240			
43410	11.602728	-1.052807	6.904441	1.096548	-2.432906	3.464370	-3.854926	-70.147537	100.220865			
43411	11.926826	-0.919225	7.053043	0.850627	-2.539757	3.813184	-5.315541	-70.343457	101.660286			
43412	11.926496	-0.394308	6.114177	0.137818	-1.783177	3.475662	-6.713277	-70.496376	103.119286			
43413	11.011235	-0.029134	5.466281	-0.309974	-1.566279	2.376581	-8.099825	-70.586899	104.533781			
43414	9.880972	-0.354672	5.832064	0.053507	-2.275356	1.438599	-9.580833	-70.659367	105.892951			
43415	9.322627	-0.785327	6.179141	0.475264	-2.765386	1.042539	-11.004047	-70.708096	107.157541			
43416	8.727720	-1.316155	6.092045	0.970350	-2.832921	0.485413	-12.239652	-70.651638	108.278841			
43417	7.717356	-1.680916	5.779897	1.346435	-2.814278	-0.535997	-13.139868	-70.476803	109.219816			
43418	7.199797	-1.945783	5.293467	1.581749	-2.468826	-1.149734	-13.780072	-70.264218	110.043764			
43419	7.128966	-1.847728	4.671507	1.408346	-1.891604	-1.416409	-14.312497	-70.045582	110.847009			
43420	7.422565	-1.564897	4.452766	1.045918	-1.604257	-1.227653	-14.871332	-69.865990	111.688228			
43421	7.418107	-0.872461	4.735439	0.363235	-1.946510	-1.193350	-15.484246	-69.702728	112.618847			
43422	8.145037	-0.548182	4.949087	-0.061137	-1.957697	-0.469284	-16.255228	-69.653964	113.677828			
43423	9.478393	-0.086608	4.930877	-0.738049	-1.604485	0.724945	-17.094803	-69.691002	114.789019			
43424	10.559084	-0.155353	4.783694	-0.883913	-1.143339	1.690068	-17.835315	-69.676812	115.721976			
43425	10.336927	-0.110380	4.488721	-0.968540	-0.949661	1.375378	-18.302327	-69.518261	116.343011			
43426	10.504930	-0.220456	4.348723	-0.937247	-0.739855	1.496055	-18.658342	-69.411539	116.766281			
43427	9.742285	-0.656256	3.478332	-0.511194	-0.084245	0.539758	-18.767713	-69.290571	116.925554			
43428	8.753248	-0.706174	3.612580	-0.298415	-0.494427	-0.334544	-18.657656	-69.155600	116.905958			
43429	8.235253	-0.697632	3.904681	-0.187960	-0.914930	-0.719823	-18.455691	-69.090018	116.807647			
43430	8.154001	-0.591110	3.856181	-0.272828	-0.899797	-0.822517	-18.109519	-69.061807	116.616399			
43431	8.260315	0.114834	3.787591	-0.968071	-0.907860	-0.822114	-17.633114	-69.045365	116.366027			
43432	8.132125	0.431716	3.495840	-1.267680	-0.718894	-1.071129	-17.085035	-69.017267	116.043775			
43433	7.808383	0.595234	3.418201	-1.356989	-0.765345	-1.411380	-16.415547	-68.984621	115.623322			
43434	7.828033	1.007485	3.367787	-1.735703	-0.773712	-1.444672	-15.710650	-68.997177	115.173554			
43435	8.054370	1.323026	3.448341	-2.031419	-0.825423	-1.227454	-15.050003	-69.021839	114.725526			
43436	8.359535	1.182787	3.668922	-1.874780	-0.899140	-0.845053	-14.491019	-69.046460	114.308889			
43437	8.640399	0.734138	3.583887	-1.461078	-0.639954	-0.566318	-14.061702	-69.068661	113.974802			
43438	8.663469	-0.061169	3.377199	-0.695932	-0.286336	-0.544539	-13.759482	-69.068202	113.734207			
43439	8.361465	-0.403794	3.177122	-0.332714	-0.128553	-0.865956	-13.511083	-69.052223	113.566037			
43440	7.971647	-0.406366	2.965834	-0.296320	-0.053104	-1.302821	-13.331231	-69.029167	113.470548			
43441	7.841327	-0.329235	3.021242	-0.338497	-0.154975	-1.411253	-13.184831	-68.994242	113.415354			
43442	7.809793	-0.170133	2.910953	-0.503551	-0.083370	-1.491935	-13.071402	-68.906132	113.376408			
43443	7.577588	-0.051705	2.872891	-0.595219	-0.130511	-1.731558	-13.029524	-68.747165	113.365970			
43444	7.523225	-0.094451	2.776866	-0.570101	-0.030595	-1.813136	-13.094204	-68.573324	113.429889			
43445	7.767348	0.075073	2.716972	-0.794841	0.092664	-1.622519	-13.245203	-68.416267	113.576782			
43446	8.098694	0.032314	2.713314	-0.820780	0.231520	-1.314180	-13.492853	-68.278358	113.793995			
43447	8.186419	-0.487330	2.472581	-0.383268	0.597538	-1.276611	-13.735261	-68.132700	114.026840			
43448	8.035849	-0.601071	2.239884	-0.304264	0.794907	-1.492306	-13.949331	-68.015727	114.312802			
43449	8.056802	-0.857398	2.047340	-0.105556	1.036613	-1.520941	-14.216440	-67.934311	114.663615			
43450	8.312129	-0.829137	2.182077	-0.174263	0.998041	-1.238661	-14.525321	-67.857933	115.090972			
43451	8.453198	-0.735477	2.633709	-0.245259	0.616660	-0.953036	-14.928823	-67.744260	115.536591			
43452	8.737678	-0.568663	2.803961	-0.460197	0.528862	-0.645298	-15.401172	-67.627341	116.006301			
43453	8.935238	-0.286218	2.627438	-0.831368	0.706026	-0.558820	-15.927180	-67.494811	116.460455			
43454	8.757964	-0.233067	2.292531	-0.941507	0.950837	-0.856053	-16.429332	-67.316269	116.856467			
43455	8.320600	-0.246376	1.973726	-0.936408	1.110806	-1.381923	-16.889919	-67.099511	117.173348			
43456	8.043334	-0.359077	1.665762	-0.855801	1.336242	-1.745415	-17.342262	-66.902485	117.470601			
43457	7.988828	-0.502531	1.401624	-0.773860	1.602068	-1.883445	-17.759979	-66.715691	117.738983			
43458	8.054373	-0.458244	1.297882	-0.870797	1.724485	-1.873216	-18.123732	-66.549726	117.991915			
43459	8.457708	-0.296573	1.420509	-1.112486	1.734991	-1.482577	-18.468411	-66.392667	118.203840			
43460	9.268496	-0.504310	1.861675	-1.030537	1.668361	-0.550955	-18.807082	-66.271240	118.362027			
43461	10.269284	-1.078802	2.299077	-0.629266	1.737218	0.603349	-19.138969	-66.200683	118.449798			
43462	11.395238	-1.560052	2.748428	-0.339107	1.816590	1.867384	-19.342532	-66.153086	118.460177			
43463	11.838020	-1.928258	2.657456	-0.084109	2.133298	2.285285	-19.325735	-66.075177	118.297826			
43464	11.726457	-1.796516	2.341358	-0.222701	2.380458	2.040707	-19.070863	-65.984075	118.009012			
43465	11.318726	-1.538514	1.880216	-0.432832	2.638745	1.450765	-18.654213	-65.894279	117.612243			
43466	10.847763	-0.765056	1.960456	-1.063254	2.286770	0.945690	-18.108260	-65.814385	117.166365			
43467	10.535427	0.037168	2.610465	-1.678570	1.463374	0.810490	-17.523394	-65.756116	116.690713			
43468	10.203180	0.673878	3.377302	-2.111272	0.550344	0.732675	-16.980859	-65.729117	116.220217			
43469	10.312511	0.869862	3.784936	-2.237921	0.201977	0.975319	-16.519498	-65.749267	115.717200			
43470	10.717021	0.725801	4.089008	-2.094765	0.111367	1.487788	-16.078513	-65.839759	115.139381			
43471	11.378814	-0.151102	3.867619	-1.330258	0.715174	2.111127	-15.551896	-66.010836	114.374509			
43472	11.942959	-1.910022	3.800590	0.360961	1.284985	2.794645	-14.768608	-66.178062	113.329164			
43473	11.960407	-3.019920	4.717352	1.655068	0.639723	3.274519	-13.563236	-66.336073	112.027382			
43474	12.237445	-3.457101	6.389850	2.372657	-0.715546	4.201352	-12.140437	-66.593298	110.666659			
43475	13.197495	-3.811412	7.445569	2.883063	-1.281858	5.490216	-10.551154	-66.924371	109.264577			
43476	13.451515	-3.156472	7.262412	2.375631	-1.138437	5.572573	-8.829829	-67.171057	107.886877			
43477	12.397763	-1.068903	6.188292	0.479344	-0.880330	4.048595	-7.193927	-67.233583	106.668087			
43478	10.496257	0.603205	5.679418	-0.898238	-1.378333	2.022998	-5.922790	-67.185085	105.765424			
43479	9.582805	1.720087	6.103203	-1.746886	-2.288858	1.311472	-5.049583	-67.243175	105.258728			
43480	9.541898	2.533656	6.729026	-2.371620	-3.040024	1.495727	-4.486862	-67.402458	105.039943			
43481	9.355314	2.832614	7.618573	-2.448187	-4.003556	1.657534	-4.163948	-67.543950	104.882333			
43482	8.743683	2.778110	8.002429	-2.246331	-4.588526	1.237569	-4.047452	-67.645947	104.692791			
43483	8.140075	2.403604	7.291559	-1.945501	-4.102331	0.414278	-4.053765	-67.750240	104.360643			
43484	7.731354	1.920323	5.760394	-1.698089	-2.768286	-0.533859	-4.049815	-67.814114	103.870490			
43485	7.363479	1.647761	5.004434	-1.531775	-2.152294	-1.152345	-3.965331	-67.791616	103.215300			
43486	6.540358	1.043749	4.495811	-0.952283	-1.870865	-2.087987	-3.761615	-67.747842	102.433878			
43487	6.454601	0.306905	4.614449	-0.207043	-1.889977	-2.103322	-3.419126	-67.827713	101.539589			
43488	7.211930	-0.380078	4.520311	0.413807	-1.437477	-1.425081	-2.905226	-68.002780	100.564805			
43489	8.076083	-0.440163	4.472977	0.436291	-1.095108	-0.645650	-2.261684	-68.226602	99.561118			
43490	8.416609	-0.379736	4.480943	0.393426	-1.013711	-0.332192	-1.613600	-68.400539	98.615113			
43491	8.155285	-0.480359	4.529449	0.546011	-1.161294	-0.560201	-1.054234	-68.507853	97.765707			
43492	8.387158	-0.421432	4.739398	0.522754	-1.295918	-0.271662	-0.658254	-68.631663	97.075415			
43493	8.853726	-0.628226	4.728138	0.719170	-1.117849	0.155841	-0.472224	-68.774955	96.521267			
43494	8.335256	-1.031440	4.673105	1.139231	-1.230874	-0.348790	-0.378588	-68.814649	96.083996			
43495	7.847298	-1.332799	4.788119	1.462638	-1.495957	-0.762533	-0.388493	-68.836694	95.725090			
43496	7.904843	-1.714296	4.604596	1.813639	-1.285621	-0.774685	-0.480999	-68.892009	95.452658			
43497	7.687040	-2.121220	4.357859	2.191922	-1.118518	-1.064805	-0.649511	-68.907755	95.221850			
43498	7.572434	-2.537933	4.165528	2.579015	-0.963511	-1.236280	-0.895896	-68.895040	95.092363			
43499	7.384061	-2.636439	3.941027	2.648791	-0.829022	-1.487818	-1.168395	-68.870650	95.037955			
43500	7.266082	-2.457334	3.602149	2.435155	-0.578783	-1.716706	-1.450944	-68.860719	95.069142			
43501	7.461158	-1.925097	3.585091	1.880487	-0.539527	-1.542234	-1.736526	-68.908895	95.164953			
43502	7.587736	-1.590006	3.498534	1.522032	-0.449383	-1.456669	-2.026008	-68.994563	95.317156			
43503	7.873624	-1.441713	3.422438	1.346824	-0.305596	-1.217445	-2.287395	-69.126277	95.470166			
43504	8.148436	-1.224359	3.422450	1.109158	-0.246066	-0.962920	-2.514887	-69.291929	95.618117			
43505	8.309147	-1.382646	3.469690	1.254177	-0.252515	-0.792954	-2.716213	-69.446975	95.715601			
43506	8.531254	-1.387751	3.666389	1.252063	-0.383685	-0.515611	-2.886332	-69.575563	95.804991			
43507	8.641893	-1.293718	3.704579	1.148607	-0.406679	-0.400184	-3.020868	-69.667450	95.853961			
43508	8.643193	-1.084485	3.627029	0.930541	-0.356967	-0.429570	-3.111010	-69.705389	95.879286			
43509	8.645252	-0.833598	3.513048	0.671728	-0.265659	-0.471650	-3.140749	-69.692297	95.863992			
43510	8.695809	-0.631464	3.406754	0.463160	-0.152980	-0.464752	-3.104325	-69.630315	95.804487			
43511	8.774193	-0.567834	3.265486	0.393675	0.014429	-0.441610	-3.008552	-69.555222	95.680334			
43512	8.957511	-0.534225	3.067523	0.351099	0.274876	-0.339923	-2.875997	-69.478319	95.536146			
43513	8.975428	-0.648947	2.596755	0.452698	0.742546	-0.487119	-2.736292	-69.374590	95.376308			
43514	8.935458	-0.352862	2.250709	0.151328	1.054231	-0.653087	-2.604664	-69.279516	95.193925			
43515	8.816367	-0.227839	1.854256	0.021628	1.391773	-0.908701	-2.516659	-69.187775	94.979953			
43516	8.646838	-0.383526	1.551724	0.178761	1.635682	-1.174672	-2.425510	-69.096914	94.719823			
43517	8.745007	-0.365581	1.763535	0.176284	1.483946	-1.010094	-2.251056	-69.029895	94.384433			
43518	8.952268	-0.785844	1.796079	0.607595	1.554737	-0.801575	-1.982655	-68.960402	93.962000			
43519	9.093787	-1.084932	2.110348	0.935002	1.335658	-0.556915	-1.565840	-68.864646	93.441613			
43520	8.794332	-1.290800	2.252902	1.179825	1.120008	-0.788526	-1.029240	-68.733563	92.866350			
43521	8.784126	-1.372178	2.209144	1.293000	1.178012	-0.820225	-0.422571	-68.634550	92.251123			
43522	8.758358	-1.292743	1.939246	1.242063	1.431168	-0.949866	0.221319	-68.560612	91.604098			
43523	8.368215	-1.311100	1.791966	1.296344	1.440821	-1.374646	0.842292	-68.429989	90.930087			
43524	8.258433	-1.604777	2.149143	1.636126	1.094488	-1.355685	1.427608	-68.292398	90.240089			
43525	8.663670	-1.782832	2.486905	1.858674	0.947643	-0.864529	2.007410	-68.206540	89.532616			
43526	9.035240	-1.901759	2.322763	2.010739	1.250022	-0.590881	2.576027	-68.113580	88.885021			
43527	9.298293	-1.847092	2.469614	1.998371	1.226336	-0.301039	3.135214	-67.973945	88.338806			
43528	9.512184	-1.684245	2.783216	1.882103	1.036683	0.008077	3.685951	-67.821421	87.895629			
43529	9.539402	-1.098859	2.845407	1.331950	1.002227	0.062804	4.171015	-67.685542	87.591972			
43530	9.868543	-0.684666	2.766391	0.946201	1.210743	0.343521	4.516774	-67.598755	87.398030			
43531	10.191437	-0.544737	2.567426	0.820439	1.526507	0.567603	4.695876	-67.551849	87.330348			
43532	10.480879	-0.637983	2.325802	0.913228	1.868372	0.739109	4.683058	-67.547569	87.383896			
43533	10.672784	-0.945105	2.160746	1.210091	2.103729	0.844721	4.520359	-67.552268	87.532473			
43534	10.773572	-1.263116	2.409384	1.524691	1.923982	1.024473	4.259089	-67.528124	87.733657			
43535	10.693115	-1.722073	2.543226	1.970229	1.791693	0.989360	4.013748	-67.457910	87.941705			
43536	10.345679	-1.683346	2.747998	1.918190	1.483668	0.748442	3.810792	-67.378604	88.189576			
43537	10.643013	-1.191818	2.746035	1.412627	1.592136	1.036479	3.588959	-67.417039	88.549931			
43538	11.313119	0.110945	3.036952	0.100222	1.517585	1.802333	3.213741	-67.614619	89.142883			
43539	11.958897	0.931803	3.518817	-0.745972	1.238291	2.604038	2.489665	-67.882799	90.009399			
43540	12.339980	1.312073	4.299590	-1.170151	0.584331	3.255267	1.423480	-68.120717	91.172234			
43541	12.740825	2.202555	6.069013	-2.091600	-1.007386	4.280630	0.051720	-68.348446	92.588366			
43542	13.569789	2.868540	7.861773	-2.838234	-2.471626	5.679491	-1.702491	-68.615734	94.252099			
43543	13.894285	2.271783	8.046096	-2.427809	-2.583085	6.010748	-3.736564	-68.881294	96.050408			
43544	12.866579	0.992273	6.309323	-1.358082	-1.343662	4.424179	-5.743347	-69.019215	97.749648			
43545	10.858822	-0.206683	5.725670	-0.239003	-1.491919	2.371541	-7.519443	-68.979017	99.148065			
43546	9.093857	-1.233540	6.138552	0.762894	-2.481165	0.918680	-9.103463	-68.978475	100.270223			
43547	8.423729	-2.008578	5.876300	1.468181	-2.483945	0.247034	-10.488405	-69.107578	101.194447			
43548	8.380888	-2.520278	5.474433	1.898091	-2.152883	0.103075	-11.556575	-69.205535	101.958860			
43549	7.902496	-2.833576	5.422439	2.190101	-2.286232	-0.333347	-12.243029	-69.182178	102.552285			
43550	7.214203	-2.579825	5.736342	1.957982	-2.818111	-0.877905	-12.627614	-69.065026	103.072157			
43551	7.540611	-2.259727	5.516896	1.601359	-2.488432	-0.666833	-12.943229	-68.982620	103.644669			
43552	7.697716	-2.003077	4.993938	1.324465	-1.933563	-0.717983	-13.280427	-68.892167	104.312022			
43553	7.467910	-1.370126	5.089883	0.703943	-2.106491	-0.945842	-13.672740	-68.763145	105.083274			
43554	7.453366	-0.427624	5.557369	-0.243257	-2.574816	-0.872273	-14.229336	-68.659328	106.017606			
43555	7.662664	0.298875	5.665455	-1.008498	-2.640332	-0.706941	-15.024263	-68.606565	107.120517			
43556	8.748331	0.399527	5.398334	-1.271143	-2.038814	0.190414	-16.078737	-68.640442	108.359548			
43557	9.868244	0.213319	5.056016	-1.279823	-1.352366	1.120005	-17.149804	-68.660048	109.554723			
43558	10.173573	-0.048707	4.651743	-1.128939	-0.871959	1.282696	-18.033998	-68.565445	110.503350			
43559	9.805070	-0.736014	4.082510	-0.468760	-0.417256	0.815291	-18.666056	-68.390826	111.150545			
43560	8.880868	-0.756240	3.914109	-0.369447	-0.556415	-0.101057	-18.973879	-68.191794	111.554743			
43561	8.530981	-0.118105	4.366301	-0.966522	-1.122418	-0.343678	-19.112402	-68.040995	111.797546			
43562	8.328083	-0.230555	4.429332	-0.835831	-1.225634	-0.494518	-19.101293	-67.911179	111.877024			
43563	7.832022	-0.135038	4.342417	-0.861906	-1.302918	-0.993682	-18.872017	-67.759050	111.814226			
43564	7.499109	0.032408	4.033345	-0.976522	-1.119428	-1.428252	-18.468546	-67.616787	111.651267			
43565	7.462727	0.192256	3.764833	-1.116413	-0.872541	-1.572819	-17.946430	-67.510279	111.411397			
43566	7.320598	0.154818	3.683361	-1.035814	-0.825729	-1.723964	-17.374926	-67.436754	111.111220			
43567	7.296136	0.012642	3.623059	-0.865166	-0.752763	-1.747635	-16.825661	-67.416475	110.810194			
43568	7.699870	0.196044	3.779995	-1.065448	-0.762949	-1.333451	-16.333083	-67.431190	110.560106			
43569	8.003878	0.387113	3.803688	-1.268082	-0.691048	-1.060868	-15.969418	-67.448864	110.384348			
43570	8.118139	0.195463	3.794880	-1.075257	-0.622005	-0.935727	-15.735451	-67.460506	110.289483			
43571	8.377422	0.075416	3.524679	-0.993013	-0.268433	-0.782066	-15.607683	-67.498525	110.294354			
43572	8.841759	0.071819	3.530143	-1.042192	-0.112801	-0.349872	-15.533543	-67.546689	110.338152			
43573	8.931004	0.425525	3.563400	-1.394438	-0.150905	-0.290372	-15.394419	-67.532887	110.321744			
43574	9.043427	0.384175	4.018940	-1.335392	-0.519457	-0.013202	-15.262669	-67.448462	110.220315			
43575	9.303790	-0.451066	3.776478	-0.555964	-0.091754	0.222659	-15.106409	-67.309940	110.044156			
43576	9.010770	-0.684487	3.277609	-0.315117	0.321616	-0.210482	-14.883678	-67.093601	109.827946			
43577	8.888972	-1.130712	2.971808	0.123138	0.646194	-0.395091	-14.728596	-66.854999	109.617259			
43578	8.617136	-1.355138	2.699824	0.361653	0.860310	-0.729218	-14.572842	-66.607327	109.447390			
43579	8.427572	-1.448650	2.714124	0.476751	0.822804	-0.891666	-14.435948	-66.396985	109.345257			
43580	8.739703	-1.361422	2.206616	0.315732	1.428691	-0.814681	-14.310166	-66.240907	109.352975			
43581	9.219057	-1.067177	2.145684	-0.048473	1.661418	-0.433396	-14.198213	-66.085578	109.451339			
43582	9.472755	-1.061230	2.512344	-0.075558	1.450916	-0.062805	-14.149874	-65.888048	109.616944			
43583	9.565935	-0.786828	2.756098	-0.359500	1.265166	0.086417	-14.175771	-65.665444	109.846494			
43584	9.409602	-0.559427	2.735330	-0.586685	1.232902	-0.093060	-14.291978	-65.396773	110.110705			
43585	8.996237	-0.648530	2.699043	-0.471396	1.155222	-0.480982	-14.487205	-65.088549	110.390256			
43586	8.560908	-0.851723	2.387525	-0.261135	1.331508	-0.988088	-14.700491	-64.796526	110.704759			
43587	8.268984	-0.765863	2.198643	-0.347026	1.409194	-1.345678	-14.932568	-64.533017	111.076269			
43588	7.887868	-0.763672	1.876952	-0.345180	1.575581	-1.830027	-15.172387	-64.287439	111.481129			
43589	7.746416	-0.724857	1.946051	-0.386844	1.474027	-1.938872	-15.432278	-64.064734	111.926697			
43590	7.751994	-0.625784	2.005993	-0.512219	1.428458	-1.925606	-15.705818	-63.853974	112.402099			
43591	7.830296	-0.650868	2.233110	-0.516070	1.276630	-1.761122	-16.048848	-63.649177	112.887039			
43592	8.112480	-0.701270	2.713519	-0.512584	0.981220	-1.301422	-16.442627	-63.473200	113.397672			
43593	8.545285	-0.758627	2.781302	-0.565073	1.115562	-0.881330	-16.849795	-63.334852	113.936659			
43594	8.730283	-0.613913	2.778978	-0.778913	1.179849	-0.739729	-17.212250	-63.174866	114.466857			
43595	9.019449	-0.356190	2.674531	-1.131880	1.360544	-0.566170	-17.550389	-63.028440	114.994935			
43596	9.353747	-0.111940	2.723012	-1.467701	1.420349	-0.286499	-17.869945	-62.902151	115.508987			
43597	9.428787	-0.074382	2.617896	-1.564234	1.543067	-0.276811	-18.162676	-62.767822	115.976938			
43598	9.484086	-0.202718	2.728012	-1.473370	1.494256	-0.167620	-18.402957	-62.640055	116.374522			
43599	9.639850	-0.171978	2.698533	-1.565341	1.583011	-0.051432	-18.586454	-62.559925	116.723739			
43600	9.703148	0.002463	2.393417	-1.798342	1.850784	-0.157633	-18.718235	-62.509969	117.020565			
43601	9.731053	0.113153	2.302622	-1.937024	1.919707	-0.191309	-18.853404	-62.491754	117.241518			
43602	9.781122	-0.095307	2.134879	-1.772303	2.121386	-0.190016	-18.955784	-62.501666	117.384965			
43603	10.040007	-0.032994	1.814528	-1.924152	2.495834	-0.108885	-19.009900	-62.533396	117.446686			
43604	10.182248	0.436940	1.836351	-2.409378	2.446033	-0.042677	-19.031408	-62.548504	117.425164			
43605	10.219653	0.707597	2.398494	-2.625264	1.914440	0.194194	-19.054293	-62.514961	117.315041			
43606	10.383468	0.820895	3.752589	-2.640402	0.760042	0.912181	-19.037872	-62.506884	117.131180			
43607	10.861728	0.521686	4.988165	-2.326300	-0.101841	1.922259	-19.006563	-62.661866	116.899023			
43608	11.444035	-1.109987	4.826294	-0.840256	0.519951	2.617689	-18.879330	-63.012970	116.564518			
43609	12.162761	-3.323286	4.957819	1.250390	1.001473	3.640552	-18.400995	-63.370275	115.974504			
43610	12.109835	-5.002589	5.916815	3.085689	0.353225	4.224237	-17.483713	-63.605914	115.063298			
43611	11.750197	-5.587151	6.940548	3.947570	-0.638929	4.381012	-16.360176	-63.930329	114.040134			
43612	12.609914	-6.071323	8.493660	4.585193	-1.654861	5.815708	-15.053912	-64.415920	112.954755			
43613	13.419156	-5.783345	8.689236	4.414916	-1.587049	6.527672	-13.287322	-64.873268	111.739165			
43614	12.681806	-3.357990	7.677960	2.286439	-1.347320	5.154182	-11.276568	-65.070530	110.466194			
43615	10.302523	-1.126321	6.137257	0.449800	-1.236664	2.159884	-9.509784	-65.068899	109.418398			
43616	8.566375	0.901100	5.789017	-1.202833	-1.958983	0.307677	-8.142964	-65.131326	108.841539			
43617	8.236477	3.121030	6.696320	-3.066201	-3.361954	0.272712	-7.159174	-65.321304	108.675511			
43618	8.226428	4.721506	7.817227	-4.324325	-4.761572	0.661193	-6.573562	-65.547038	108.693236			
43619	8.225776	5.407253	8.359904	-4.815413	-5.455172	0.856998	-6.311477	-65.735804	108.723623			
43620	7.700357	5.920291	8.046865	-5.269181	-5.530963	0.224319	-6.243020	-65.875570	108.672495			
43621	7.265812	5.820926	6.963454	-5.322755	-4.720876	-0.617772	-6.368380	-66.043392	108.514801			
43622	6.805882	4.933967	5.509986	-4.691283	-3.394692	-1.597346	-6.542209	-66.196315	108.208738			
43623	6.090629	3.010924	4.397456	-2.947452	-2.244435	-2.617273	-6.646690	-66.264969	107.699247			
43624	5.658689	0.972059	4.121989	-0.963391	-1.739622	-3.030208	-6.533172	-66.341114	107.007129			
43625	5.757822	-0.205881	4.564922	0.245360	-1.882715	-2.711379	-6.211043	-66.481412	106.137625			
43626	6.619257	-1.325108	5.269293	1.361208	-2.015024	-1.601563	-5.774096	-66.714466	105.120232			
43627	8.217338	-1.906143	5.500138	1.825488	-1.572402	-0.034952	-5.203743	-67.100476	104.012568			
43628	9.474687	-2.279124	4.920446	2.048368	-0.579973	0.894410	-4.429185	-67.454488	102.804958			
43629	10.315308	-2.329732	4.383333	2.030359	0.180924	1.451907	-3.458709	-67.656016	101.558613			
43630	9.845300	-2.285156	3.812693	2.026721	0.511576	0.785365	-2.419162	-67.615041	100.381925			
43631	8.856847	-1.786624	3.826433	1.666318	0.080768	-0.143465	-1.491189	-67.466872	99.423419			
43632	8.192186	-1.516149	4.466211	1.566270	-0.766318	-0.521990	-0.828013	-67.349725	98.722038			
43633	7.661767	-1.538796	4.761786	1.685547	-1.219850	-0.901121	-0.430906	-67.303919	98.282065			
43634	7.914351	-1.372411	4.781083	1.522184	-1.161983	-0.663263	-0.315420	-67.321970	98.060834			
43635	7.724200	-1.653483	4.296513	1.747976	-0.759131	-1.024879	-0.457423	-67.317140	98.007336			
43636	7.245806	-1.826823	3.882281	1.880060	-0.546239	-1.622568	-0.782961	-67.298839	98.103680			
43637	7.163266	-1.641498	3.715480	1.658361	-0.461143	-1.759812	-1.260154	-67.360510	98.362756			
43638	7.386985	-1.280646	3.574266	1.244942	-0.315353	-1.606987	-1.826524	-67.515968	98.739927			
43639	7.996255	-1.019938	3.673438	0.933911	-0.245984	-1.006917	-2.392979	-67.770741	99.145099			
43640	8.786757	-0.937668	3.562980	0.769240	0.090335	-0.316322	-2.861728	-68.076889	99.509655			
43641	9.174699	-0.697609	3.518211	0.486246	0.192183	0.024282	-3.178710	-68.358469	99.780490			
43642	9.154874	-0.649624	3.528950	0.433041	0.123284	0.009958	-3.355359	-68.590323	99.930011			
43643	9.007917	-0.771330	3.500788	0.559451	0.073312	-0.134124	-3.408627	-68.787925	99.945109			
43644	8.999696	-1.085176	3.697351	0.897048	-0.104615	-0.064516	-3.347203	-68.944367	99.855006			
43645	9.158199	-1.178845	4.065634	1.027971	-0.401963	0.215938	-3.207258	-69.061554	99.705957			
43646	9.363523	-1.348591	3.926613	1.182229	-0.195902	0.359651	-3.040521	-69.135644	99.529404			
43647	9.248552	-1.225272	3.927642	1.078429	-0.258202	0.248808	-2.870984	-69.153795	99.378515			
43648	9.045695	-1.160377	3.614693	1.002079	-0.041955	-0.054043	-2.749785	-69.106039	99.285192			
43649	8.634193	-1.433231	3.267274	1.264081	0.181718	-0.558090	-2.688606	-68.997352	99.261490			
43650	7.975690	-1.298224	2.977600	1.136964	0.221507	-1.279146	-2.670886	-68.865269	99.303770			
43651	7.805162	-0.809937	2.623654	0.621474	0.443703	-1.573937	-2.741100	-68.829949	99.414219			
43652	7.934222	-0.615309	2.298567	0.381447	0.765480	-1.573608	-2.875419	-68.888367	99.516679			
43653	8.176900	-0.492080	2.170451	0.226807	0.941088	-1.393806	-3.031990	-69.012081	99.579414			
43654	8.369284	-0.269275	2.212885	-0.003679	0.921532	-1.200777	-3.150198	-69.170105	99.580890			
43655	8.609787	-0.337609	2.226500	0.052568	0.976292	-0.967137	-3.210919	-69.329494	99.509684			
43656	8.703859	-0.318493	2.188492	0.029792	1.020764	-0.890512	-3.156950	-69.451130	99.348702			
43657	8.669079	-0.458768	2.183419	0.180768	1.014738	-0.920650	-3.006013	-69.523380	99.077448			
43658	8.687317	-0.578959	2.124856	0.308864	1.080792	-0.921336	-2.731590	-69.572466	98.688330			
43659	8.559145	-0.610353	2.016185	0.358059	1.136128	-1.078991	-2.337586	-69.613977	98.172414			
43660	8.552242	-0.524090	2.016837	0.300345	1.121289	-1.087118	-1.822462	-69.645230	97.529703			
43661	8.747236	-0.566367	2.198162	0.384347	1.022599	-0.841997	-1.192378	-69.664823	96.755820			
43662	9.089595	-0.771531	2.225841	0.619443	1.136502	-0.512428	-0.415201	-69.665875	95.842813			
43663	9.178518	-1.065662	2.374595	0.973057	1.062512	-0.381701	0.494269	-69.616765	94.814267			
43664	8.973838	-1.442740	2.553787	1.425917	0.873831	-0.520972	1.489320	-69.496130	93.721258			
43665	8.688710	-1.733455	2.648324	1.788075	0.734126	-0.769698	2.545091	-69.335157	92.613986			
43666	8.545027	-1.899068	2.401406	1.992973	0.955363	-1.008958	3.644582	-69.143609	91.532885			
43667	8.391530	-1.813337	2.262164	1.955180	1.053274	-1.216708	4.726449	-68.946549	90.539034			
43668	8.627947	-1.726809	2.214527	1.919697	1.204787	-1.026882	5.737732	-68.777097	89.660112			
43669	8.897700	-1.419566	1.934251	1.639754	1.561311	-0.879669	6.652757	-68.644754	88.917042			
43670	8.897734	-1.566620	1.360858	1.774318	2.128117	-1.106447	7.458036	-68.526199	88.296287			
43671	9.057563	-2.094011	1.105198	2.311749	2.490380	-1.089186	8.187489	-68.448238	87.778314			
43672	9.428223	-2.881307	1.033160	3.123614	2.780779	-0.825422	8.850429	-68.438415	87.350614			
43673	9.697596	-3.690721	1.114136	3.967355	2.890931	-0.603527	9.463560	-68.508600	87.037479			
43674	10.203767	-4.350449	1.582539	4.707032	2.718410	-0.014640	10.019964	-68.589181	86.854606			
43675	10.693541	-4.082493	1.958541	4.510746	2.544584	0.581185	10.517408	-68.613843	86.938438			
43676	11.347244	-3.167378	2.634168	3.709866	2.086860	1.483900	10.860988	-68.668814	87.338942			
43677	12.464124	-1.166804	4.106538	1.958491	0.884547	3.185826	10.924353	-68.864563	88.148178			
43678	13.554923	1.874799	5.710794	-0.799274	-0.697601	4.977092	10.414330	-69.200976	89.450650			
43679	14.432459	4.436103	7.182533	-3.139125	-2.274591	6.451777	9.109208	-69.620668	91.239464			
43680	15.449192	6.523671	8.372225	-5.142249	-3.550809	7.858513	6.991824	-70.181099	93.507321			
43681	16.453069	8.490355	8.976495	-7.235141	-4.345979	8.952102	4.101456	-70.863618	96.285681			
43682	16.094323	7.311674	7.019830	-6.721083	-2.634977	7.783802	0.563341	-71.249522	99.402952			
43683	13.026307	3.969621	5.600157	-3.816842	-1.771528	4.297252	-2.877981	-71.098189	102.285543			
43684	9.734966	1.732464	6.428706	-1.511688	-3.202468	1.436943	-5.805720	-70.853042	104.581756			
43685	8.367122	-0.096451	6.364845	0.201475	-3.300685	0.166870	-8.296248	-70.858767	106.322401			
43686	8.506397	-1.545526	5.468071	1.358638	-2.257298	0.071856	-10.310390	-70.981493	107.571700			
43687	8.546994	-2.899924	4.995667	2.533816	-1.683767	0.044343	-11.718833	-71.068866	108.288708			
43688	8.107921	-3.767659	4.753235	3.345395	-1.535122	-0.379857	-12.462721	-71.087450	108.558814			
43689	7.524490	-4.282170	4.771719	3.884752	-1.697762	-0.882374	-12.629519	-71.051000	108.506023			
43690	6.986847	-4.479054	4.561123	4.114787	-1.636352	-1.441748	-12.322699	-70.954257	108.281092			
43691	6.136902	-4.522446	4.432155	4.250808	-1.737481	-2.284764	-11.767749	-70.776104	108.011294			
43692	5.180314	-4.266936	4.420153	4.119438	-2.005066	-3.210431	-11.201509	-70.600621	107.863621			
43693	4.797368	-3.087227	4.160055	2.993007	-1.981762	-3.732715	-10.744284	-70.464445	107.929947			
43694	4.702958	-1.097294	4.238327	1.068206	-2.316261	-3.915313	-10.507276	-70.261653	108.206434			
43695	4.953976	0.386186	4.563303	-0.370400	-2.728669	-3.653802	-10.609986	-70.039230	108.726725			
43696	6.559328	2.232334	5.391189	-2.260796	-3.263657	-1.982597	-11.083597	-70.010821	109.595004			
43697	9.737599	4.156826	6.466309	-4.395226	-3.619810	1.209594	-12.264249	-70.392069	111.029794			
43698	13.775955	5.296991	6.922869	-6.003919	-3.132676	5.016188	-14.215590	-70.962635	112.949218			
43699	15.805257	5.517584	5.549720	-6.778087	-1.426862	6.406679	-16.143498	-71.155674	114.653265			
43700	13.488683	4.926979	3.573995	-6.264348	-0.154404	3.593473	-17.113708	-70.686988	115.295794			
43701	8.933234	4.137207	3.707343	-4.925753	-1.387653	-0.621813	-17.314788	-69.838262	114.972536			
43702	6.571142	3.066005	5.364383	-3.428386	-3.388835	-2.189202	-17.563504	-69.312680	114.536811			
43703	7.757114	1.303529	5.956772	-1.883408	-3.249917	-0.688792	-17.905671	-69.165823	114.157340			
43704	8.228845	0.051999	5.025011	-0.843581	-2.027234	-0.424085	-17.818217	-68.989964	113.476663			
43705	7.336065	-0.228554	4.745261	-0.474886	-1.993358	-1.316304	-17.386670	-68.881563	112.581744			
43706	6.966184	0.159871	4.240406	-0.831106	-1.670888	-1.872179	-16.786264	-69.002587	111.599632			
43707	7.384343	0.968873	4.299135	-1.656867	-1.676677	-1.542667	-16.185813	-69.315248	110.553567			
43708	7.925838	0.624464	4.193710	-1.356802	-1.391028	-1.036583	-15.653658	-69.707740	109.446070			
43709	8.683020	0.262874	4.051705	-1.054946	-1.017388	-0.339991	-15.093266	-70.108880	108.353250			
