// General information: 
//  MT Manager version: 2022.0.0 
//  XDA version: 2022.0.0 build 7085 rev 119802 built on 2022-11-08
// Device information: 
//  DeviceId: 00B49380
//  ProductCode: MTW2-3A7G6
//  Firmware Version: 4.6.0
//  Hardware Version: 2.0.0
// Device settings: 
//  Filter Profile: human(46.1)
//  Option Flags: Orientation Smoother Disabled, Position/Velocity Smoother Disabled, Continuous Zero Rotation Update Disabled, AHS Disabled, ICC Disabled
// Coordinate system: ENU
PacketCounter	Acc_X	Acc_Y	Acc_Z	FreeAcc_E	FreeAcc_N	FreeAcc_U	Roll	Pitch	Yaw	Vel_E	Vel_N	Vel_U
42709	9.232018	1.920885	2.277985	0.425804	0.529333	-0.135514	53.100731	-73.369776	153.164036			
42710	9.381694	2.002361	2.398129	0.525650	0.538297	0.046855	53.212797	-73.349243	153.128741			
42711	9.499515	2.036098	2.327259	0.446458	0.498380	0.155006	53.293130	-73.326167	153.128680			
42712	9.712087	2.219838	2.379999	0.507940	0.393656	0.410019	53.297160	-73.274537	153.228752			
42713	9.484250	2.322231	2.219498	0.459345	0.205898	0.188139	53.261428	-73.204056	153.388569			
42714	9.146342	2.433474	2.191171	0.556529	0.058124	-0.113951	53.309843	-73.131105	153.474453			
42715	9.028501	2.594420	2.295929	0.738897	-0.039285	-0.170665	53.453394	-73.075101	153.446766			
42716	9.071473	2.610080	2.323454	0.752402	-0.022900	-0.120632	53.605791	-73.019981	153.389854			
42717	9.205566	2.711893	2.524965	0.930700	0.010915	0.066883	53.719973	-72.966167	153.362044			
42718	9.163505	2.741366	2.503938	0.926927	-0.021889	0.030835	53.715789	-72.896021	153.442604			
42719	9.033468	2.839117	2.431325	0.930010	-0.152235	-0.081944	53.698060	-72.830658	153.537189			
42720	8.941772	2.916882	2.382582	0.934287	-0.250316	-0.158433	53.661510	-72.766231	153.653956			
42721	8.973103	2.972420	2.470587	1.015632	-0.249689	-0.098687	53.569772	-72.701893	153.821359			
42722	8.785224	2.856858	2.131900	0.710489	-0.332361	-0.364326	53.429132	-72.625851	154.046935			
42723	8.537097	2.697885	1.955385	0.546232	-0.308959	-0.669914	53.353595	-72.574493	154.177495			
42724	8.402245	2.456797	2.078956	0.577124	-0.057464	-0.833865	53.299084	-72.532128	154.235105			
42725	8.377339	2.187249	2.156540	0.528396	0.211111	-0.908152	53.223204	-72.488087	154.293869			
42726	8.251629	1.953729	1.880044	0.215428	0.267093	-1.133790	53.162551	-72.436316	154.370884			
42727	8.288474	1.700657	1.677153	-0.084272	0.397475	-1.196494	53.144096	-72.398428	154.427759			
42728	8.404922	1.607289	1.813720	-0.044070	0.560728	-1.083465	53.164085	-72.370733	154.469654			
42729	8.569535	1.489989	1.511824	-0.399633	0.545352	-1.010103	53.333031	-72.367042	154.407607			
42730	8.775035	1.504599	1.145465	-0.763256	0.391595	-0.877295	53.529977	-72.355883	154.321677			
42731	9.119772	1.382009	1.190331	-0.871828	0.572573	-0.570981	53.687500	-72.322196	154.290532			
42732	9.521607	1.016787	1.308279	-1.046605	1.005557	-0.257589	53.783629	-72.256754	154.343533			
42733	10.034418	0.799555	1.561061	-1.076682	1.390808	0.220863	53.917488	-72.187642	154.418841			
42734	10.637565	0.567993	1.761462	-1.190456	1.776060	0.770863	54.068390	-72.101088	154.555842			
42735	11.189706	0.566092	1.725075	-1.393397	1.844356	1.285178	54.383207	-72.024360	154.638226			
42736	11.608887	0.962643	1.499446	-1.537274	1.464194	1.738683	54.869634	-71.971947	154.624463			
42737	11.721296	1.581452	1.168312	-1.566913	0.806624	1.940985	55.477455	-71.944946	154.508323			
42738	11.460763	2.237048	0.987160	-1.336347	0.146635	1.828644	56.031164	-71.918844	154.413649			
42739	10.893383	2.581058	1.052399	-0.952224	-0.164633	1.390050	56.447505	-71.892658	154.408337			
42740	10.240800	2.853899	1.385182	-0.354118	-0.289944	0.898426	56.789175	-71.889881	154.419312			
42741	9.742508	3.058534	1.814087	0.256065	-0.283925	0.551470	57.194623	-71.946001	154.299344			
42742	9.312900	3.121385	1.816859	0.434503	-0.375745	0.159475	57.707206	-72.067906	154.004057			
42743	8.930184	2.971729	1.708071	0.415338	-0.344794	-0.262540	58.322721	-72.254439	153.525081			
42744	8.598925	2.656254	1.698415	0.385930	-0.118920	-0.662904	58.978237	-72.471632	152.922575			
42745	8.509008	2.075816	1.861173	0.306504	0.450253	-0.875164	59.649388	-72.719441	152.207107			
42746	8.195170	1.466030	1.829806	0.109272	0.904053	-1.337499	60.235710	-72.960784	151.491594			
42747	8.242341	1.139056	1.861966	0.009346	1.205590	-1.371903	60.811186	-73.190634	150.732939			
42748	8.520078	0.866892	1.859285	-0.151758	1.475407	-1.175551	61.340623	-73.396313	149.977726			
42749	8.785237	0.366216	1.663214	-0.580951	1.835363	-1.073433	61.883334	-73.576381	149.195083			
42750	9.017202	0.170861	1.627123	-0.722195	2.023666	-0.903718	62.396182	-73.709334	148.469002			
42751	9.359867	-0.147829	1.666637	-0.888563	2.375756	-0.649021	62.926339	-73.804290	147.764891			
42752	9.631298	-0.186987	1.619608	-0.980950	2.442267	-0.405618	63.528628	-73.858067	147.052289			
42753	9.780534	-0.242833	1.503665	-1.114642	2.476241	-0.294047	64.231435	-73.868918	146.295030			
42754	9.942636	0.042958	1.406357	-1.079013	2.241090	-0.083926	64.994062	-73.827640	145.524197			
42755	9.939361	0.107013	1.315277	-1.111894	2.176594	-0.088578	65.757991	-73.736939	144.771309			
42756	9.918952	0.162134	1.194409	-1.180363	2.103264	-0.116224	66.407192	-73.592477	144.143654			
42757	9.809052	0.152743	1.230650	-1.133132	2.151935	-0.229349	67.006142	-73.414829	143.580579			
42758	9.880274	0.208439	1.315301	-1.061921	2.200810	-0.147187	67.525936	-73.216286	143.112906			
42759	9.981259	0.387707	1.385623	-0.952924	2.144799	-0.005168	68.024763	-73.017077	142.681704			
42760	9.980657	0.399024	1.409977	-0.942680	2.185200	-0.009786	68.422273	-72.817577	142.354236			
42761	9.810696	0.531777	1.504086	-0.776219	2.127617	-0.134597	68.786808	-72.629300	142.089804			
42762	9.686998	0.668096	1.626495	-0.596104	2.085689	-0.209343	69.070133	-72.454550	141.915362			
42763	9.459368	0.804822	1.774764	-0.367163	2.035751	-0.378812	69.364662	-72.295539	141.734032			
42764	9.269125	0.893087	1.776311	-0.291932	1.952941	-0.540671	69.643523	-72.155466	141.554118			
42765	9.049472	0.897243	1.875578	-0.163619	1.984476	-0.743464	69.937520	-72.029153	141.333280			
42766	8.911414	0.856126	1.908984	-0.130438	2.032061	-0.888331	70.225058	-71.909454	141.094437			
42767	8.872984	0.716362	1.861459	-0.234429	2.138202	-0.976334	70.553039	-71.789356	140.801155			
42768	8.829204	0.541685	1.698889	-0.450811	2.211219	-1.092497	70.892234	-71.658647	140.491542			
42769	8.793521	0.375129	1.680586	-0.544000	2.358017	-1.185124	71.252888	-71.510571	140.167587			
42770	8.811271	0.362168	1.769522	-0.488240	2.446988	-1.171237	71.605045	-71.348700	139.863382			
42771	8.812364	0.457882	1.646875	-0.553329	2.333796	-1.162442	72.019140	-71.178012	139.500035			
42772	8.930343	0.815566	1.632320	-0.430107	2.089800	-0.951069	72.426356	-70.996995	139.143480			
42773	8.988055	1.064266	1.392451	-0.533242	1.806344	-0.851139	72.887140	-70.805401	138.728081			
42774	9.070195	1.280678	1.390318	-0.458627	1.684167	-0.713530	73.351855	-70.604392	138.288333			
42775	9.227021	1.358194	1.321450	-0.523679	1.661302	-0.555555	73.902405	-70.396089	137.757603			
42776	9.441147	1.498672	1.025399	-0.761527	1.483786	-0.344269	74.544345	-70.177972	137.166283			
42777	9.631924	1.428375	0.637828	-1.169272	1.429651	-0.230949	75.257271	-69.958247	136.544131			
42778	9.794074	1.460567	0.563549	-1.257444	1.454662	-0.082462	75.935938	-69.738789	135.978868			
42779	9.931892	1.364305	0.565730	-1.337517	1.618792	0.006386	76.564416	-69.530894	135.453296			
42780	9.967508	1.417411	0.841130	-1.091576	1.780211	0.071993	77.074786	-69.346153	134.993698			
42781	10.246437	1.626654	1.184744	-0.769837	1.911294	0.424170	77.573694	-69.193265	134.494357			
42782	10.589952	2.123816	1.466280	-0.373233	1.789254	0.932862	77.958366	-69.077874	134.061600			
42783	11.541947	2.568873	1.716182	-0.176566	1.843064	1.991245	78.272431	-69.003224	133.680817			
42784	12.442856	2.757760	1.510883	-0.474731	1.831809	2.881082	78.352417	-68.978922	133.533969			
42785	13.023003	2.743453	0.963461	-1.085352	1.699603	3.377716	78.210021	-68.995314	133.646313			
42786	13.347463	2.603878	0.689588	-1.473830	1.726191	3.613350	77.813599	-69.050093	134.023437			
42787	13.814125	2.281297	0.810503	-1.655161	2.136454	3.949113	77.459793	-69.136858	134.375878			
42788	14.404978	2.067711	0.705573	-1.992483	2.367431	4.424653	77.341679	-69.257463	134.547447			
42789	14.770155	2.159134	0.584095	-2.119147	2.297522	4.795221	77.523790	-69.393581	134.486592			
42790	14.630583	2.534772	0.111266	-2.267349	1.686728	4.764877	77.729266	-69.525139	134.473208			
42791	14.157934	3.147007	-0.352230	-2.214020	0.807079	4.502391	77.813448	-69.623608	134.645829			
42792	13.818459	3.399686	-1.127994	-2.644124	0.066411	4.215290	77.643459	-69.688882	135.150951			
42793	13.278423	3.769965	-1.810350	-2.898669	-0.779813	3.781278	77.268362	-69.713202	135.968536			
42794	11.994875	4.539318	-1.550808	-1.996298	-1.612250	2.848375	76.459320	-69.705967	137.252198			
42795	10.920995	5.513735	-0.547590	-0.433606	-2.127951	2.239394	75.393411	-69.672222	138.821494			
42796	9.612535	6.520256	0.275452	1.068224	-2.800718	1.412512	74.193247	-69.638796	140.591060			
42797	8.166617	6.941317	0.637573	1.954721	-3.275103	0.223981	73.135081	-69.625077	142.228565			
42798	7.072978	7.131240	0.857224	2.530662	-3.552490	-0.724676	72.083456	-69.643740	143.767532			
42799	6.573282	7.013990	1.584068	3.180482	-3.159505	-1.163103	70.853550	-69.682866	145.285077			
42800	6.807110	6.833596	2.046736	3.361427	-2.745379	-0.959031	69.378788	-69.754435	146.812708			
42801	7.527893	6.395693	2.150282	2.964918	-2.284431	-0.421864	67.732421	-69.872245	148.285536			
42802	7.529826	6.412422	1.989490	2.807784	-2.495927	-0.449940	65.897999	-70.024661	149.805263			
42803	7.456305	5.910457	1.847464	2.407075	-2.315383	-0.713969	63.909980	-70.202114	151.329251			
42804	7.751223	5.408370	1.889925	2.044701	-1.971348	-0.602086	61.848038	-70.391403	152.804532			
42805	8.149854	4.723663	2.080093	1.679114	-1.381840	-0.414313	59.759368	-70.556628	154.246206			
42806	8.457571	4.165801	2.220051	1.374587	-0.932094	-0.270494	57.804559	-70.687389	155.562958			
42807	8.570112	3.602395	2.065973	0.900071	-0.652307	-0.354579	56.133402	-70.788867	156.635343			
42808	8.688869	2.975179	1.867806	0.369603	-0.316004	-0.453204	54.869927	-70.892694	157.352044			
42809	8.892789	2.591278	1.655103	-0.063328	-0.149667	-0.404758	53.944215	-70.993244	157.781494			
42810	9.303367	2.206169	1.572240	-0.447348	0.130586	-0.134131	53.150999	-71.057847	158.113198			
42811	9.669731	1.748457	1.580526	-0.778013	0.525091	0.095780	52.380482	-71.066041	158.475528			
42812	9.720011	1.454721	1.729635	-0.830665	0.818100	0.098264	51.412872	-70.968072	159.141073			
42813	8.998596	1.329546	1.677971	-0.750905	0.773848	-0.626012	50.386612	-70.779761	160.022859			
42814	8.126794	1.367916	1.751243	-0.447759	0.645446	-1.424274	49.466664	-70.571897	160.926850			
42815	7.680037	1.326668	2.060704	-0.111243	0.763716	-1.788119	48.701518	-70.381284	161.760655			
42816	7.625275	1.404595	2.432299	0.210590	0.858913	-1.734846	47.950894	-70.194414	162.642339			
42817	7.638420	1.516831	2.644039	0.392647	0.850194	-1.642010	47.177356	-69.987678	163.604396			
42818	7.242917	1.807104	2.638251	0.609826	0.537494	-1.937103	46.355538	-69.748785	164.698160			
42819	6.743021	1.994819	2.400530	0.628254	0.185411	-2.411274	45.586598	-69.493552	165.811108			
42820	6.331784	2.264921	2.551400	0.978972	-0.014302	-2.687220	44.931087	-69.235666	166.864471			
42821	5.964179	2.551223	2.970836	1.547479	-0.068076	-2.848018	44.400788	-69.013239	167.739587			
42822	6.186746	2.512684	3.378021	1.746621	0.191823	-2.538564	43.850876	-68.828974	168.469519			
42823	6.225739	2.435092	3.581687	1.830376	0.354469	-2.461364	43.273062	-68.672852	169.107958			
42824	6.384050	2.305908	3.663410	1.754002	0.493627	-2.317783	42.658245	-68.576508	169.615458			
42825	6.534827	2.026385	3.395456	1.339193	0.562261	-2.314043	42.067508	-68.559227	169.984367			
42826	6.786460	1.663623	3.485712	1.146185	0.897865	-2.141060	41.492586	-68.632162	170.239375			
42827	7.223462	1.241335	3.242956	0.607394	1.115257	-1.899205	40.884493	-68.774937	170.455724			
42828	7.649603	0.978728	3.348288	0.438748	1.378396	-1.530618	40.181544	-68.942715	170.719351			
42829	8.013685	0.728189	3.207356	0.107713	1.496586	-1.281280	39.466411	-69.129419	170.985035			
42830	7.987237	0.593501	3.147386	0.037631	1.537124	-1.345702	38.761175	-69.320039	171.248175			
42831	7.849690	0.586272	3.173592	0.138993	1.511629	-1.462330	38.185461	-69.539730	171.407297			
42832	7.736822	0.311264	3.068615	0.006320	1.657918	-1.650413	37.683336	-69.784248	171.466314			
42833	7.668710	0.130647	3.173119	0.080143	1.836328	-1.718486	37.313418	-70.049965	171.393227			
42834	7.553396	-0.086469	3.390084	0.251194	2.102522	-1.808314	37.019167	-70.313202	171.246874			
42835	7.506627	-0.391444	3.843468	0.563798	2.564056	-1.788824	36.770945	-70.577689	171.038817			
42836	7.565620	-0.440686	4.270599	0.938658	2.788835	-1.626614	36.522859	-70.856478	170.811184			
42837	7.945978	-0.423298	4.564661	1.136019	2.903348	-1.185205	36.266105	-71.166035	170.560124			
42838	8.328301	-0.936500	4.401686	0.728602	3.273648	-0.960322	35.918835	-71.459207	170.423017			
42839	8.637667	-0.999550	4.006626	0.325304	3.140140	-0.774163	35.527353	-71.670915	170.499901			
42840	8.978455	-0.666353	3.751800	0.169488	2.719208	-0.447338	35.059233	-71.787667	170.864113			
42841	9.350916	-0.245309	3.667784	0.162853	2.298362	-0.032943	34.603438	-71.825043	171.428469			
42842	9.929069	0.165407	3.939652	0.374454	2.054676	0.664557	34.152128	-71.789818	172.153287			
42843	10.582734	0.737154	4.059585	0.490480	1.609857	1.420550	33.893857	-71.738937	172.804297			
42844	11.372446	1.251839	4.304974	0.650387	1.286000	2.326325	33.749776	-71.704186	173.314236			
42845	11.622561	1.452056	4.321107	0.658316	1.124873	2.603658	33.736648	-71.680511	173.602151			
42846	11.415811	1.018100	4.148817	0.386591	1.426150	2.286345	33.846689	-71.713320	173.612333			
42847	11.224821	-0.193482	4.396704	0.145633	2.615675	1.956001	34.043921	-71.812965	173.382747			
42848	11.096343	-1.578072	5.446595	0.506356	4.327975	1.861928	34.100014	-71.954622	173.182790			
42849	11.514125	-1.933984	6.715379	1.341049	5.234700	2.524695	33.843757	-72.098605	173.307507			
42850	13.013805	-1.373066	6.812444	1.229274	4.793851	4.085564	33.064661	-72.162893	174.079351			
42851	15.225785	-0.983969	5.417658	-0.487868	3.794225	5.919708	31.777327	-72.046261	175.551428			
42852	16.272472	-0.793882	2.665836	-3.141429	2.258243	6.235979	30.574387	-71.767544	177.268584			
42853	14.623611	0.779727	2.181851	-2.430794	0.520163	4.783141	30.114557	-71.488061	178.434489			
42854	13.219435	2.862913	3.099590	-0.343586	-0.913650	4.029428	30.157105	-71.240957	178.978067			
42855	12.589775	5.003973	2.833407	0.565283	-2.901464	3.708847	30.415153	-70.840706	179.249450			
42856	12.224834	6.654348	2.387563	1.005007	-4.527694	3.525842	30.735241	-70.245571	179.430738			
42857	11.131516	7.412065	3.266426	2.349708	-4.698532	2.912108	31.214103	-69.655880	179.387046			
42858	9.562994	7.396551	4.848196	4.084786	-3.826873	1.948843	31.883967	-69.289743	178.951972			
42859	8.877542	7.048657	5.266649	4.457107	-3.255119	1.402032	32.839947	-69.204765	177.984800			
42860	8.546466	6.511360	4.002149	3.294151	-3.393601	0.631876	33.977725	-69.334524	176.549148			
42861	8.382420	5.342804	2.498585	1.597410	-3.110000	-0.177887	35.176145	-69.598278	174.852949			
42862	7.703147	4.124136	2.243616	1.079925	-2.165005	-1.122053	36.164434	-69.852299	173.383706			
42863	6.875230	3.126926	2.379610	1.045233	-1.232342	-2.060418	37.040870	-70.084347	172.220162			
42864	6.620636	2.002726	2.255332	0.548510	-0.301730	-2.564363	37.822831	-70.294182	171.326608			
42865	7.024179	1.359567	1.782704	-0.237425	0.073955	-2.443593	38.673255	-70.481368	170.547041			
42866	7.946819	1.041740	1.392706	-0.984657	0.239358	-1.741144	39.487962	-70.573874	169.890553			
42867	8.703031	0.872684	0.416609	-2.106106	-0.022608	-1.313181	40.328467	-70.544407	169.311303			
42868	9.554646	1.571108	-0.425369	-2.764967	-0.964710	-0.573380	41.094616	-70.386737	168.935258			
42869	10.344477	2.990025	-0.202767	-2.204309	-1.991382	0.539359	41.622030	-70.110408	168.863387			
42870	10.144976	3.669912	0.460825	-1.311224	-2.221201	0.672919	41.910472	-69.763088	169.059079			
42871	9.117007	3.857127	1.348333	-0.186073	-1.959754	-0.017797	42.240313	-69.484726	169.209181			
42872	8.600815	3.570876	2.125631	0.464289	-1.309941	-0.362191	42.690498	-69.357857	169.190720			
42873	8.631341	3.396290	2.552492	0.717550	-0.897058	-0.261230	43.259892	-69.394191	168.998323			
42874	8.509106	3.250204	2.490579	0.662964	-0.783645	-0.425573	43.811952	-69.526922	168.804293			
42875	8.113885	3.180348	2.319695	0.664816	-0.817639	-0.856124	44.333709	-69.735859	168.613973			
42876	7.608142	3.297096	1.665739	0.418051	-1.289648	-1.464562	44.794988	-69.978626	168.455356			
42877	7.026607	3.573301	1.280249	0.491875	-1.756455	-2.037504	45.211911	-70.223180	168.309328			
42878	6.811834	3.869077	1.119344	0.628436	-2.092811	-2.206845	45.569000	-70.451432	168.171424			
42879	6.396707	4.072268	1.191828	0.964620	-2.236299	-2.533261	45.903556	-70.669850	167.996342			
42880	7.120530	4.068403	1.360841	0.897263	-2.078228	-1.813843	46.239410	-70.896375	167.715513			
42881	8.116032	3.693352	1.228768	0.314304	-1.766271	-0.992138	46.578172	-71.102830	167.367414			
42882	8.667008	3.319055	1.102334	-0.124209	-1.482738	-0.585863	46.867464	-71.270444	167.035685			
42883	8.970315	2.781709	1.309406	-0.309562	-0.893161	-0.377360	47.118318	-71.384875	166.723327			
42884	8.716719	2.297575	1.285933	-0.484030	-0.518260	-0.734650	47.358300	-71.464142	166.430612			
42885	8.576496	2.100089	1.372345	-0.459616	-0.307174	-0.893923	47.627854	-71.541330	166.085910			
42886	8.331662	1.629051	1.054326	-0.869837	-0.108497	-1.303069	47.812677	-71.605231	165.804644			
42887	8.563070	1.287671	1.009954	-1.141087	0.172674	-1.171370	47.950048	-71.669400	165.574320			
42888	8.552250	1.212768	1.182307	-1.029081	0.333963	-1.161728	48.008893	-71.716489	165.451183			
42889	8.331206	1.245943	1.308513	-0.832891	0.363728	-1.336394	48.154797	-71.791763	165.219636			
42890	8.460768	1.219997	1.326904	-0.856573	0.413265	-1.214483	48.424388	-71.871862	164.866955			
42891	8.963476	1.430524	1.343006	-0.874436	0.302253	-0.683725	48.752227	-71.896264	164.520635			
42892	9.401427	1.616395	1.380017	-0.875101	0.222717	-0.216409	49.136590	-71.882946	164.171890			
42893	9.378706	1.747548	1.548870	-0.663583	0.228756	-0.173169	49.582898	-71.840631	163.804808			
42894	9.600134	1.678235	1.620494	-0.712750	0.368500	0.034200	49.974850	-71.755838	163.498519			
42895	9.082631	1.463549	1.459789	-0.807621	0.432911	-0.542983	50.372038	-71.636614	163.218772			
42896	8.983998	1.400547	1.610329	-0.702054	0.585663	-0.624056	50.853537	-71.524700	162.840602			
42897	8.489283	1.443843	1.613855	-0.538379	0.533117	-1.084400	51.314149	-71.399457	162.485464			
42898	8.098133	1.646541	1.702883	-0.255597	0.405758	-1.388874	51.768117	-71.271884	162.113991			
42899	7.501100	1.906792	1.879505	0.190966	0.259702	-1.854614	52.196903	-71.134558	161.725714			
42900	7.636840	1.977398	1.969400	0.246780	0.292014	-1.690882	52.683943	-71.013306	161.225678			
42901	7.971401	1.981453	1.631777	-0.130968	0.160298	-1.440760	53.234965	-70.908400	160.641181			
42902	8.035675	2.017241	1.575436	-0.182029	0.136676	-1.382300	53.829217	-70.815073	160.015336			
42903	8.239695	1.803187	1.491907	-0.422414	0.319996	-1.263482	54.480259	-70.745227	159.297592			
42904	8.227211	1.777932	1.499204	-0.423085	0.376751	-1.281883	55.110939	-70.685403	158.564352			
42905	8.353008	1.851194	1.592066	-0.345416	0.417450	-1.127028	55.693641	-70.630147	157.799823			
42906	8.602399	1.861438	1.656992	-0.359260	0.508107	-0.878231	56.252008	-70.580982	157.002979			
42907	9.146713	1.834624	1.688118	-0.506393	0.651248	-0.368256	56.814227	-70.534188	156.148984			
42908	9.544882	1.542144	1.550968	-0.877855	0.901741	-0.101631	57.280147	-70.472308	155.381634			
42909	9.707905	0.967454	1.186189	-1.502196	1.228307	-0.178321	57.676565	-70.412253	154.703067			
42910	9.891420	0.570822	1.380822	-1.586947	1.718171	-0.086326	58.017824	-70.357252	154.136449			
42911	9.873278	0.124541	1.613750	-1.597383	2.239293	-0.193167	58.429616	-70.334307	153.556945			
42912	9.911899	0.009722	1.907127	-1.403241	2.529552	-0.142367	59.039502	-70.361185	152.804787			
42913	10.387483	0.103205	2.129903	-1.276341	2.685143	0.366090	59.942154	-70.465423	151.701651			
42914	10.958849	0.369094	2.342400	-1.076118	2.717402	1.012118	61.016799	-70.630178	150.321058			
42915	11.601494	1.017394	2.758087	-0.523975	2.558965	1.866913	62.152490	-70.800786	148.817734			
42916	12.401374	1.395814	2.725121	-0.508592	2.415672	2.720212	63.285388	-70.960183	147.313568			
42917	13.721387	1.441263	2.139229	-1.256856	2.359538	3.890675	64.254865	-71.076259	146.050560			
42918	14.512838	1.355030	1.626828	-1.877920	2.355120	4.541115	64.842607	-71.145414	145.275315			
42919	14.718408	1.193650	1.586623	-1.995590	2.537403	4.683959	65.278416	-71.218956	144.758515			
42920	14.932460	0.850839	1.477648	-2.258067	2.826238	4.774945	65.845517	-71.347607	144.320621			
42921	15.035139	0.747926	0.717637	-2.920323	2.552254	4.750526	66.710078	-71.537639	143.891417			
42922	14.675064	2.202397	0.370163	-2.370177	1.094818	4.799920	67.590223	-71.742765	143.754248			
42923	13.609135	3.545973	-0.611844	-2.199293	-0.741551	4.071456	68.364108	-71.930837	143.846405			
42924	13.122517	4.446357	-1.816738	-2.542323	-2.243828	3.743566	69.003940	-72.118632	144.141311			
42925	11.784011	5.350243	-2.063686	-1.857517	-3.389717	2.709512	69.144787	-72.270425	144.953824			
42926	10.721504	5.948735	-1.663316	-0.872203	-3.873051	1.906647	68.761311	-72.384359	146.314058			
42927	9.278716	6.948236	-0.757287	0.831058	-4.416672	0.899356	68.030235	-72.462244	148.090156			
42928	8.113306	7.820515	0.104397	2.366457	-4.786827	0.111163	67.204016	-72.540311	149.847843			
42929	7.402189	8.381098	0.509290	3.245339	-5.087669	-0.385189	66.222059	-72.619549	151.486258			
42930	6.226337	8.584105	1.447346	4.426601	-4.851022	-1.361557	64.803385	-72.681901	153.183263			
42931	6.015313	8.585440	2.534452	5.316710	-4.255235	-1.449540	63.278036	-72.808586	154.564749			
42932	7.302423	7.943831	2.547902	4.589908	-3.685736	-0.417563	61.757040	-73.036760	155.537304			
42933	7.209757	6.875354	2.143906	3.655990	-3.241122	-0.869843	59.845750	-73.265245	156.673347			
42934	6.769357	5.445972	2.078572	2.878442	-2.337160	-1.685330	57.679669	-73.468813	157.984824			
42935	6.661066	3.799121	1.884525	1.816963	-1.264004	-2.232809	55.625255	-73.657296	159.230251			
42936	7.378247	2.654347	1.698602	0.850677	-0.465007	-1.848457	54.027016	-73.864002	160.157881			
42937	8.417079	1.946411	1.418855	-0.015101	-0.015205	-1.057795	52.876503	-74.079149	160.744802			
42938	9.767788	1.296520	1.194602	-0.867702	0.468278	0.063817	52.133183	-74.286894	160.998448			
42939	10.685465	1.062681	1.143736	-1.241838	0.682532	0.892847	51.600115	-74.430406	161.171559			
42940	11.194919	1.362789	0.932139	-1.374401	0.337398	1.414486	51.214266	-74.521683	161.337037			
42941	11.176697	2.493355	0.721114	-0.963387	-0.742385	1.596786	50.759500	-74.522373	161.680650			
42942	11.141904	3.201403	0.844523	-0.514769	-1.294565	1.726948	50.054869	-74.399839	162.325701			
42943	10.802387	3.435722	1.124559	-0.128184	-1.399366	1.491526	49.008491	-74.145523	163.349876			
42944	10.177093	3.214736	1.709963	0.332170	-0.986579	0.945909	47.796366	-73.800204	164.567779			
42945	9.063925	2.935157	2.363943	0.947068	-0.521374	-0.056218	46.543702	-73.413525	165.851016			
42946	8.119794	2.693595	2.792000	1.361271	-0.190935	-0.919334	45.353029	-73.030116	167.070122			
42947	7.679380	2.444352	3.144830	1.580264	0.145502	-1.308641	44.206360	-72.655877	168.264814			
42948	6.915032	2.154842	3.018540	1.491004	0.240632	-2.112610	43.085089	-72.263353	169.509414			
42949	6.519529	1.983244	2.917890	1.384818	0.281286	-2.535705	42.142442	-71.909836	170.647233			
42950	6.771343	1.681151	3.059393	1.220203	0.602650	-2.317025	41.384921	-71.636049	171.641432			
42951	7.111273	1.434233	3.130375	1.005357	0.844232	-2.021483	40.734214	-71.429571	172.551450			
42952	7.361872	1.487701	3.333590	1.083118	0.901351	-1.717161	40.047237	-71.278905	173.448218			
42953	7.437849	1.526092	3.334340	1.055854	0.845591	-1.631098	39.296213	-71.184486	174.263806			
42954	7.442378	1.440351	3.231185	0.910699	0.823530	-1.664287	38.388586	-71.098397	175.114577			
42955	7.291173	1.448429	3.051253	0.807530	0.670079	-1.846006	37.398025	-71.030754	175.968569			
42956	7.530053	1.655988	3.274205	1.004801	0.578674	-1.516922	36.398533	-70.998814	176.768031			
42957	7.598013	1.500499	3.189696	0.831803	0.614730	-1.500920	35.425139	-70.988731	177.517221			
42958	7.347806	1.644798	3.051447	0.875317	0.368426	-1.743929	34.512925	-70.981354	178.223249			
42959	7.379800	1.420117	2.872312	0.609714	0.422075	-1.801548	33.827540	-71.017062	178.730463			
42960	7.510316	1.333890	3.056864	0.678603	0.568127	-1.642913	33.408747	-71.090019	179.020767			
42961	7.592056	1.103356	3.149779	0.622025	0.797710	-1.581373	33.216128	-71.177199	179.127432			
42962	7.578148	0.857862	3.288347	0.625758	1.074229	-1.600992	33.239040	-71.256188	179.067257			
42963	7.575765	0.769445	3.187095	0.513790	1.100782	-1.647755	33.496482	-71.346960	178.800291			
42964	7.675336	0.626666	3.047195	0.309014	1.161652	-1.618548	33.897593	-71.408880	178.409325			
42965	7.538926	0.628958	2.981657	0.309214	1.144901	-1.768136	34.450452	-71.449392	177.894605			
42966	7.553196	0.489412	2.930494	0.199816	1.260687	-1.797154	35.054863	-71.488967	177.279200			
42967	7.586648	0.579470	3.047142	0.337243	1.275141	-1.723293	35.692494	-71.536673	176.603638			
42968	7.596587	0.471935	3.265490	0.465128	1.508939	-1.682437	36.259353	-71.574759	175.945543			
42969	7.526618	0.341382	3.483921	0.609749	1.758643	-1.723216	36.834254	-71.634115	175.275992			
42970	7.671500	0.353109	3.751736	0.802609	1.918775	-1.522563	37.402939	-71.723821	174.612405			
42971	8.012661	0.527915	4.143510	1.122024	2.013170	-1.075512	37.959517	-71.841083	173.973613			
42972	8.483827	0.858955	4.113520	1.142043	1.754885	-0.579585	38.484456	-71.978173	173.410061			
42973	8.887142	1.280623	4.014101	1.177634	1.382531	-0.146460	39.009838	-72.149413	172.866847			
42974	9.495971	1.580296	3.958197	1.130087	1.142478	0.471069	39.431077	-72.323567	172.405192			
42975	10.168507	1.800566	3.566953	0.750143	0.787212	1.058433	39.619200	-72.449911	172.137900			
42976	10.565310	1.754311	3.175111	0.307254	0.634349	1.335761	39.546094	-72.499356	172.114406			
42977	10.549318	1.573785	3.125016	0.185172	0.750821	1.274810	39.316565	-72.485474	172.264875			
42978	10.371242	1.013416	3.315895	0.113629	1.304243	1.044146	39.011937	-72.471716	172.446089			
42979	10.331965	0.227723	3.810010	0.149298	2.215289	0.975626	38.812656	-72.534649	172.471224			
42980	10.458240	-0.582331	4.159704	0.028152	3.080584	1.028259	38.694173	-72.680340	172.351598			
42981	10.663591	-0.955481	4.369600	0.006547	3.505787	1.206735	38.593264	-72.891615	172.154592			
42982	11.186813	-0.740797	5.077057	0.598228	3.685043	1.914729	38.164211	-73.076400	172.219048			
42983	11.664055	-0.463518	4.797277	0.404662	3.276856	2.368321	37.284002	-73.172833	172.779901			
42984	12.535668	0.607423	4.814043	0.679903	2.316427	3.410702	35.844699	-73.103770	174.068493			
42985	14.258210	1.375661	3.312331	-0.756221	0.839998	4.846138	34.098241	-72.831623	175.855233			
42986	15.424507	2.027050	1.980969	-2.000159	-0.489647	5.734199	32.685958	-72.377988	177.540268			
42987	15.979776	3.110258	3.169644	-0.797048	-0.906239	6.728634	31.989521	-71.924979	178.489977			
42988	15.113229	4.413066	2.192341	-0.818524	-2.563622	5.854098	31.987023	-71.509004	178.745908			
42989	14.512592	7.294425	1.731319	0.282830	-5.256321	5.650537	32.454005	-71.009426	178.540183			
42990	13.890581	7.652582	1.305871	0.171430	-5.754567	5.022022	32.664017	-70.344408	178.336314			
42991	10.869059	7.303597	2.973508	2.209644	-4.604981	2.606273	32.855539	-69.728354	178.046638			
42992	8.517324	6.530867	4.196839	3.527079	-3.333246	0.640019	33.153319	-69.386546	177.421618			
42993	7.256777	5.798824	3.982433	3.394584	-2.833600	-0.724543	33.669948	-69.339801	176.433709			
42994	6.649624	4.817248	3.574335	2.807118	-2.208234	-1.600317	34.242631	-69.534123	175.279624			
42995	6.580982	3.455455	2.861859	1.646501	-1.381316	-2.143228	34.820024	-69.881334	174.207841			
42996	6.785411	2.044101	2.465095	0.657481	-0.328281	-2.345657	35.390151	-70.279914	173.359276			
42997	7.194788	0.839366	1.983300	-0.363098	0.523694	-2.329601	36.023949	-70.686151	172.663297			
42998	7.636762	0.186265	1.493521	-1.153642	0.899383	-2.167731	36.864585	-71.048737	171.944865			
42999	8.787475	0.505850	0.844710	-1.869521	0.391611	-1.179014	38.013833	-71.339172	171.081626			
43000	9.507710	1.661772	-0.281768	-2.468291	-1.089630	-0.541366	39.203638	-71.454354	170.277448			
43001	10.337184	2.451297	-0.790399	-2.765184	-1.940654	0.290700	40.177399	-71.387763	169.721980			
43002	10.062059	3.159447	-0.260650	-1.917037	-2.267723	0.310424	40.690463	-71.137425	169.644049			
43003	9.098522	3.686073	1.042335	-0.316234	-2.084431	-0.168429	40.983879	-70.841740	169.805553			
43004	8.689267	3.664452	2.078458	0.627897	-1.527451	-0.298272	41.286894	-70.638865	169.912099			
43005	8.828628	3.659989	2.654484	1.039262	-1.184233	-0.019632	41.679042	-70.572356	169.899164			
43006	8.640947	3.622965	2.736874	1.160490	-1.090280	-0.182176	42.134274	-70.643239	169.808402			
43007	8.274086	3.496079	2.448431	1.017844	-1.130255	-0.627689	42.676731	-70.837883	169.637602			
43008	7.832345	3.270899	2.069876	0.790100	-1.145019	-1.187539	43.294081	-71.101615	169.372398			
43009	7.611972	2.977446	1.219842	0.083166	-1.351758	-1.660336	44.028631	-71.401243	168.979523			
43010	7.429724	3.134648	0.712071	-0.130628	-1.747243	-1.909296	44.892614	-71.711002	168.437730			
43011	7.604509	3.416561	0.578009	-0.088693	-2.015162	-1.703036	45.805442	-72.008326	167.796029			
43012	8.143676	3.339024	0.521850	-0.281082	-1.917972	-1.211355	46.664448	-72.290897	167.111519			
43013	8.894789	3.108487	0.401461	-0.666959	-1.717482	-0.563564	47.441238	-72.542442	166.494479			
43014	9.485084	3.180224	0.456662	-0.710554	-1.679704	0.034276	48.069448	-72.731289	166.007440			
43015	9.753598	2.963402	0.459124	-0.864761	-1.462620	0.249026	48.499996	-72.845047	165.718964			
43016	9.560580	2.787443	0.538640	-0.821062	-1.277188	0.044255	48.670142	-72.868917	165.701441			
43017	9.228082	2.605250	0.722259	-0.674613	-1.046084	-0.277643	48.617115	-72.818764	165.920409			
43018	8.357804	2.416555	0.958655	-0.346882	-0.822596	-1.105527	48.462712	-72.737308	166.235257			
43019	7.896019	2.213716	1.338806	-0.028892	-0.474194	-1.517245	48.391089	-72.698611	166.461806			
43020	7.354117	2.128563	1.631972	0.313112	-0.273545	-1.995764	48.419783	-72.720178	166.531429			
43021	7.365360	1.991844	1.868727	0.430926	-0.023486	-1.969101	48.505099	-72.800458	166.466140			
43022	7.482942	1.817154	1.784244	0.251328	0.079129	-1.912653	48.687671	-72.934043	166.236050			
43023	7.808259	1.850654	1.683361	0.118634	0.019598	-1.614332	48.921492	-73.086459	165.949492			
43024	8.533283	1.972557	1.755713	0.062697	0.018085	-0.880381	49.181300	-73.251338	165.585596			
43025	9.412020	1.969550	1.679997	-0.215238	0.047272	-0.053640	49.524125	-73.407324	165.158674			
43026	9.803917	2.117821	1.505383	-0.356663	-0.133417	0.322552	49.902191	-73.510038	164.735347			
43027	10.135531	2.243127	1.601264	-0.286102	-0.140295	0.686031	50.269338	-73.550484	164.378773			
43028	10.170195	2.068826	1.435611	-0.517126	-0.077195	0.651561	50.465857	-73.517331	164.202795			
43029	9.697224	1.974395	1.428879	-0.451935	-0.032774	0.175843	50.489897	-73.438480	164.209564			
43030	9.077740	1.982684	1.762149	-0.027366	0.107842	-0.355988	50.429243	-73.333809	164.286208			
43031	8.445647	2.015689	1.873742	0.236982	0.097428	-0.933657	50.333639	-73.231173	164.405693			
43032	8.197069	2.044868	1.828658	0.272354	0.029980	-1.173108	50.337045	-73.160379	164.386733			
43033	8.045907	2.117980	2.016933	0.496908	0.072710	-1.266445	50.486530	-73.123200	164.226578			
43034	8.161701	2.352169	2.204447	0.739670	0.010969	-1.068638	50.863800	-73.119136	163.791811			
43035	8.391940	2.493118	1.841775	0.472095	-0.273324	-0.883255	51.537301	-73.167959	163.006579			
43036	8.570076	2.448162	1.463113	0.113607	-0.409368	-0.790504	52.404463	-73.230449	161.921924			
43037	8.465941	2.081148	1.209366	-0.237387	-0.230236	-1.017438	53.251456	-73.281277	160.759829			
43038	8.473209	1.796967	1.290058	-0.308818	0.081198	-1.061312	53.952719	-73.296834	159.636796			
43039	8.545880	1.510205	1.416908	-0.362947	0.425228	-1.037279	54.572799	-73.279530	158.567654			
43040	8.871828	1.198911	1.626103	-0.429247	0.861079	-0.764752	55.081817	-73.241295	157.550949			
43041	9.034482	0.889318	1.665972	-0.588690	1.184107	-0.678166	55.455731	-73.163331	156.707878			
43042	9.378301	0.362450	1.674427	-0.931534	1.692388	-0.476970	55.734706	-73.070598	155.988773			
43043	9.867760	-0.003595	1.669609	-1.243042	2.078972	-0.102231	55.957432	-72.967542	155.417485			
43044	9.996676	-0.282171	1.417465	-1.620993	2.220799	-0.093494	56.234792	-72.871354	154.871244			
43045	9.953537	-0.281955	1.315645	-1.691806	2.190327	-0.157455	56.647807	-72.785693	154.280638			
43046	9.916199	-0.082345	1.283484	-1.607835	2.034225	-0.155472	57.215912	-72.706196	153.567651			
43047	9.913575	0.295522	1.400777	-1.321368	1.815679	-0.051252	57.933829	-72.624144	152.760882			
43048	9.891418	0.720662	1.617677	-0.924143	1.610385	0.062982	58.674043	-72.526804	151.935100			
43049	9.923898	0.968161	1.680744	-0.755972	1.484647	0.160784	59.485156	-72.423440	151.074461			
43050	9.821790	1.161478	1.718950	-0.597959	1.374326	0.113282	60.318340	-72.320629	150.191376			
43051	10.059258	1.362047	1.998145	-0.320652	1.434254	0.428227	61.159203	-72.235275	149.278282			
43052	9.984076	1.415496	2.000833	-0.259304	1.424188	0.365378	61.920315	-72.165357	148.359202			
43053	10.001885	1.189952	1.878643	-0.455772	1.592896	0.298584	62.550904	-72.117438	147.492054			
43054	9.895853	1.238271	1.893766	-0.374686	1.573883	0.208789	63.040968	-72.083669	146.705300			
43055	9.709786	1.043394	1.933979	-0.363619	1.751322	-0.019349	63.415627	-72.067492	145.994249			
43056	9.763736	0.955775	2.251985	-0.119593	2.013413	0.048715	63.869187	-72.103882	145.158769			
43057	9.267088	1.414408	2.799433	0.719814	1.822767	-0.227516	64.476480	-72.204583	144.160906			
43058	9.785028	1.947978	3.199525	1.226196	1.665850	0.458604	65.250951	-72.364442	142.980839			
43059	10.948058	2.079559	2.960401	0.858806	1.654346	1.565966	65.901638	-72.557562	141.966350			
43060	11.759183	1.675417	1.553177	-0.676643	1.471093	2.056416	66.017995	-72.738684	141.463393			
43061	12.570606	1.448715	1.099794	-1.324698	1.579332	2.720437	65.700025	-72.903860	141.499415			
43062	13.613577	1.465631	1.016685	-1.609126	1.678275	3.718947	65.367406	-73.083625	141.794075			
43063	14.514980	1.802757	0.023651	-2.509487	1.039109	4.559421	65.399817	-73.321577	142.043008			
43064	14.126850	1.844367	-1.095218	-3.333952	0.354805	4.077145	65.557302	-73.571312	142.394868			
43065	12.949673	2.180374	-1.978325	-3.635702	-0.621093	2.944943	65.823685	-73.802794	142.839089			
43066	12.570681	3.310924	-2.239821	-3.201184	-1.840881	2.850797	66.127398	-74.018624	143.343785			
43067	12.213034	4.302131	-2.741438	-3.010845	-3.052591	2.709195	66.342325	-74.222391	143.994166			
43068	11.188723	6.029382	-2.424994	-1.599490	-4.568709	2.186856	66.093630	-74.370731	145.224986			
43069	10.257684	7.102145	-1.943389	-0.367761	-5.403434	1.593632	65.468499	-74.462152	146.800205			
43070	8.478547	7.305293	-1.042117	0.961672	-5.379159	0.009657	64.560461	-74.523095	148.524630			
43071	7.375590	7.239407	0.257958	2.302717	-4.779797	-0.939935	63.624612	-74.601444	149.990935			
43072	8.451199	7.850998	1.831539	3.690064	-4.276675	0.410269	62.782221	-74.705465	151.000705			
43073	8.634168	8.446527	2.442813	4.456733	-4.445235	0.781506	61.613392	-74.808857	151.977432			
43074	8.700151	8.151610	2.445481	4.251920	-4.283915	0.755651	60.152380	-74.920713	152.896954			
43075	8.386647	7.484251	2.014608	3.560509	-4.126865	0.222171	58.294912	-75.009216	153.969643			
43076	7.708768	6.235600	1.995397	2.991785	-3.301829	-0.733333	56.123827	-75.074325	155.239631			
43077	7.709178	4.540803	2.477025	2.496458	-1.740582	-1.042122	54.167316	-75.180652	156.290132			
43078	8.625411	2.722476	2.380875	1.301944	-0.246537	-0.554084	52.723430	-75.354263	156.906020			
43079	9.742194	1.828799	1.941675	0.255862	0.342008	0.279004	51.745400	-75.539816	157.195574			
43080	10.562368	1.336347	1.342637	-0.657365	0.508900	0.885952	51.049705	-75.671743	157.303113			
43081	11.007313	1.123284	0.770812	-1.338026	0.437456	1.188910	50.569952	-75.729139	157.300343			
43082	11.018799	1.389483	0.450256	-1.504006	0.044693	1.200182	50.221727	-75.688143	157.286347			
43083	10.505220	1.632202	0.365188	-1.373417	-0.256507	0.732689	49.972090	-75.569354	157.254777			
43084	10.164734	1.737671	0.782428	-0.918029	-0.184141	0.486667	49.639764	-75.380646	157.333951			
43085	9.990392	1.441261	1.256679	-0.638988	0.277815	0.335152	48.991995	-75.095298	157.805663			
43086	9.207038	0.970542	1.689099	-0.338622	0.806422	-0.442566	48.116817	-74.742449	158.620513			
43087	8.473500	0.151053	1.998925	-0.305729	1.588089	-1.256824	47.181032	-74.363146	159.640973			
43088	8.036665	-0.162533	2.510836	0.043919	2.045276	-1.643653	46.291291	-73.967964	160.783552			
43089	7.594170	0.025889	2.706794	0.331917	1.918432	-1.989151	45.445058	-73.552700	162.070453			
43090	7.483494	0.541282	2.900078	0.672541	1.540798	-1.946351	44.727831	-73.144583	163.363371			
43091	7.253695	0.872311	2.920608	0.827134	1.241240	-2.087291	44.132419	-72.783905	164.621784			
43092	7.349771	1.213698	3.036197	0.986899	1.009671	-1.893282	43.569018	-72.468109	165.871540			
43093	7.304484	1.791189	3.014811	1.194082	0.498588	-1.814043	43.041675	-72.200687	167.078157			
43094	7.269339	2.384081	3.282577	1.663674	0.125494	-1.656784	42.496938	-71.987249	168.214067			
43095	7.521879	2.642554	3.267308	1.667399	-0.091416	-1.359971	41.879736	-71.841828	169.259664			
43096	7.729064	2.567081	3.066920	1.380345	-0.136878	-1.221403	41.169778	-71.744457	170.234986			
43097	8.038511	2.259260	2.693545	0.812715	-0.082641	-1.077146	40.453521	-71.681809	171.097242			
43098	7.994654	2.265840	2.500025	0.658810	-0.224431	-1.163170	39.701129	-71.638642	171.886355			
43099	7.941771	2.095416	2.411298	0.510994	-0.162895	-1.269321	38.978579	-71.632062	172.552325			
43100	7.839049	1.952199	2.273270	0.357094	-0.150648	-1.429416	38.324847	-71.652093	173.135341			
43101	8.024917	1.673913	2.683781	0.499189	0.278459	-1.205879	37.709017	-71.714827	173.661283			
43102	8.295482	1.343081	3.162098	0.650756	0.789417	-0.892429	37.102318	-71.805823	174.217399			
43103	8.461940	1.012031	3.554199	0.770237	1.251635	-0.696712	36.531259	-71.932853	174.807913			
43104	8.537320	0.615128	3.474028	0.504926	1.521725	-0.715304	36.015949	-72.092587	175.408107			
43105	8.593137	0.350251	3.296624	0.232790	1.629214	-0.750470	35.498965	-72.254775	176.048099			
43106	8.418823	0.124147	3.002343	-0.050230	1.636846	-1.024957	34.968674	-72.375855	176.737868			
43107	8.245105	0.157996	3.083599	0.093016	1.622616	-1.159728	34.426085	-72.448142	177.466153			
43108	7.786120	0.103519	3.023940	0.157040	1.607781	-1.617021	33.919083	-72.491332	178.157653			
43109	7.396385	0.013747	3.178559	0.355845	1.744093	-1.961481	33.532649	-72.560589	178.692195			
43110	7.248995	0.096427	3.611767	0.799159	1.890810	-1.977622	33.213837	-72.657316	179.081909			
43111	7.194584	-0.057841	3.618074	0.754818	2.014147	-2.051935	32.987522	-72.794604	179.364358			
43112	7.381942	-0.043060	3.745291	0.828342	2.062450	-1.838840	32.808410	-72.953116	179.569837			
43113	7.510311	-0.097397	3.648544	0.703650	2.052027	-1.749179	32.714643	-73.101769	179.754122			
43114	7.432675	0.085906	3.536290	0.745620	1.837933	-1.823731	32.788470	-73.238268	179.844661			
43115	7.360376	0.254471	3.399576	0.754186	1.633518	-1.903213	33.130800	-73.357314	179.800152			
43116	7.646075	0.666146	3.332847	0.841059	1.275268	-1.585883	33.732512	-73.462940	179.557938			
43117	8.315004	0.464373	3.177858	0.428377	1.394801	-1.019246	34.586982	-73.562295	179.056292			
43118	9.232377	0.489633	3.160707	0.177474	1.413591	-0.146424	35.648116	-73.651436	178.298506			
43119	9.920621	0.233656	2.645711	-0.552667	1.398256	0.346655	36.878564	-73.735277	177.336003			
43120	10.283951	0.142119	2.434378	-0.859234	1.421402	0.625080	38.240125	-73.810759	176.214983			
43121	10.352362	0.264584	2.449859	-0.787841	1.395667	0.707497	39.558631	-73.863079	175.116934			
43122	10.210658	0.571891	2.585999	-0.467620	1.277366	0.647781	40.656782	-73.858019	174.198257			
43123	10.234363	1.089122	3.033628	0.157154	1.157971	0.853406	41.345823	-73.793539	173.685387			
43124	10.385882	1.380426	3.492324	0.620127	1.216282	1.146532	41.586746	-73.683780	173.568034			
43125	10.817107	1.465488	4.160220	1.049721	1.556203	1.717324	41.519361	-73.583344	173.757561			
43126	11.357349	1.285947	4.753937	1.248018	2.059737	2.329919	41.330748	-73.555746	174.061711			
43127	12.067021	0.712175	4.964889	0.892188	2.659351	2.950625	41.097701	-73.609469	174.463375			
43128	12.452167	0.240420	4.934449	0.501126	3.019938	3.229240	40.842979	-73.695823	174.987510			
43129	12.840443	-0.091259	5.065753	0.311317	3.357679	3.572983	40.546550	-73.783151	175.586284			
43130	13.225518	0.246022	5.203236	0.492163	3.151788	4.039115	40.095531	-73.793347	176.359510			
43131	13.182275	1.190102	4.256071	0.278652	1.800102	3.970803	39.593870	-73.695977	177.318800			
43132	14.047573	2.764029	3.570234	0.358663	0.113150	4.937866	39.134121	-73.435035	178.408492			
43133	15.164977	3.910092	2.573131	-0.128707	-1.418732	5.994156	38.842506	-73.059468	179.317325			
43134	14.687692	4.864107	2.889965	0.719559	-1.984866	5.784796	38.794934	-72.653306	179.772188			
43135	12.664886	5.951417	2.249900	1.404677	-3.221659	3.917861	39.109720	-72.293521	179.606100			
43136	11.101561	7.130128	1.000033	1.569374	-4.898806	2.378352	39.578914	-71.911533	179.075710			
43137	10.636251	7.693297	0.276842	1.409284	-5.768639	1.897516	39.920548	-71.453305	178.532217			
43138	9.938886	7.478368	1.501444	2.295202	-4.839801	1.512897	39.915832	-70.971350	178.203348			
43139	8.658886	6.822072	3.201593	3.485694	-3.309832	0.611379	39.694712	-70.573728	177.962248			
43140	7.716618	6.000758	3.710977	3.629830	-2.397446	-0.304647	39.629871	-70.368681	177.477073			
43141	7.400820	5.720726	3.444676	3.336326	-2.373591	-0.724260	39.834048	-70.393132	176.589804			
43142	7.295319	5.165523	2.216833	2.109819	-2.687559	-1.260244	40.093735	-70.560825	175.495263			
43143	7.934827	3.916285	1.192415	0.423558	-2.266696	-1.186952	40.351242	-70.814868	174.390643			
43144	8.329630	2.520892	0.948516	-0.628324	-1.245440	-1.170271	40.493941	-71.048549	173.561187			
43145	8.769666	1.190331	0.856714	-1.516446	-0.172442	-1.053209	40.562408	-71.242535	173.025916			
43146	9.299201	0.713474	0.833588	-1.929203	0.240487	-0.653027	40.603716	-71.336854	172.763119			
43147	9.370627	0.949958	-0.105080	-2.569889	-0.466689	-0.762827	40.743991	-71.309694	172.644958			
43148	9.252490	1.716248	-0.831491	-2.722475	-1.504054	-0.892408	41.001403	-71.193883	172.549470			
43149	9.338039	2.061360	-0.969357	-2.695388	-1.853501	-0.774590	41.334279	-71.026751	172.418671			
43150	9.533643	2.166262	-0.782908	-2.576430	-1.814461	-0.524755	41.733577	-70.824700	172.291379			
43151	9.684110	2.529354	0.019104	-1.824900	-1.636869	-0.108549	42.180809	-70.626919	172.178460			
43152	9.522561	2.907067	0.845806	-0.941445	-1.460129	0.027396	42.674078	-70.483792	172.046358			
43153	9.488198	3.406552	1.577588	-0.097542	-1.418672	0.291620	43.239410	-70.437508	171.832966			
43154	9.387812	3.581274	1.661632	0.105515	-1.484258	0.262197	43.781108	-70.467780	171.627054			
43155	8.815267	3.660326	1.524106	0.255283	-1.626852	-0.288094	44.313817	-70.571448	171.432637			
43156	7.993259	3.749457	1.361698	0.483554	-1.808314	-1.077653	44.865308	-70.745536	171.194333			
43157	7.191634	3.718011	1.235534	0.673110	-1.874105	-1.868873	45.440784	-70.997587	170.865687			
43158	6.652855	3.796201	1.075240	0.812177	-2.040720	-2.396260	45.934468	-71.289582	170.548679			
43159	6.390559	3.728808	1.049035	0.880880	-2.005827	-2.668158	46.204061	-71.593161	170.332543			
43160	6.400961	3.735351	1.041848	0.913542	-2.015076	-2.663184	46.255944	-71.895417	170.220392			
43161	6.969650	3.656364	1.307396	0.934619	-1.772656	-2.090100	46.121468	-72.193544	170.202283			
43162	7.755800	3.312024	1.426995	0.630293	-1.400884	-1.398509	45.921422	-72.450746	170.200593			
43163	8.347213	3.016888	1.200585	0.143382	-1.284759	-0.949971	45.725243	-72.663193	170.180309			
43164	8.781882	2.576124	0.983767	-0.373622	-1.047156	-0.675429	45.659386	-72.828744	170.045454			
43165	9.104032	2.162714	0.737905	-0.866726	-0.844291	-0.504564	45.722425	-72.966789	169.791147			
43166	9.613181	1.626686	0.472106	-1.497465	-0.535854	-0.181869	45.845004	-73.085774	169.490220			
43167	10.036461	1.278662	0.289058	-1.937028	-0.333545	0.116347	45.846018	-73.165863	169.341816			
43168	10.185128	1.174011	0.419393	-1.929616	-0.168522	0.263978	45.588451	-73.157570	169.506437			
43169	9.843796	1.628069	0.981545	-1.152615	-0.243587	0.143539	45.139252	-73.075748	169.892447			
43170	9.293190	1.868791	1.349007	-0.592634	-0.272166	-0.260189	44.732212	-72.985058	170.221098			
43171	8.994988	2.123322	1.340309	-0.390622	-0.511403	-0.496004	44.513733	-72.925822	170.328436			
43172	8.768867	2.156867	1.673749	-0.054985	-0.364264	-0.636042	44.366524	-72.875518	170.309852			
43173	8.863800	1.879103	1.689423	-0.227781	-0.127767	-0.599441	44.265650	-72.843486	170.199398			
43174	9.254439	1.570785	1.614760	-0.567899	0.102964	-0.305514	44.335816	-72.849926	169.906391			
43175	9.147207	1.369620	1.938041	-0.382399	0.452881	-0.381255	44.477817	-72.870092	169.549274			
43176	9.068302	1.095451	1.859128	-0.560726	0.638486	-0.529995	44.667333	-72.895478	169.193535			
43177	9.039132	0.982791	1.815493	-0.638275	0.714912	-0.590470	44.864634	-72.928072	168.875368			
43178	8.826072	0.858813	1.823038	-0.628965	0.817998	-0.818476	45.018974	-72.946552	168.627370			
43179	8.633675	0.851567	1.672220	-0.692551	0.737028	-1.035502	45.230421	-72.964745	168.337664			
43180	8.670879	0.894269	1.680720	-0.667793	0.720695	-0.989801	45.539017	-72.984011	167.936554			
43181	8.684030	0.959468	1.604952	-0.692196	0.640904	-0.979856	45.894291	-72.987289	167.473727			
43182	8.806515	0.841796	1.612987	-0.777940	0.768528	-0.886927	46.259668	-72.968636	166.983981			
43183	8.746125	0.822077	1.655737	-0.735440	0.823458	-0.941780	46.609270	-72.924156	166.507509			
43184	8.688687	0.637693	1.759696	-0.730798	1.050827	-1.017341	47.036926	-72.872514	165.945335			
43185	8.926130	0.484985	1.764361	-0.872483	1.222999	-0.825644	47.588979	-72.820998	165.279504			
43186	9.116590	0.393145	1.691406	-1.033077	1.305750	-0.682776	48.267882	-72.744280	164.543515			
43187	9.217749	0.175252	1.481617	-1.345397	1.417885	-0.681851	49.068363	-72.653752	163.758001			
43188	9.131753	0.183462	1.556084	-1.259927	1.486923	-0.754793	49.924951	-72.550602	162.953120			
43189	8.828941	0.349712	1.662193	-1.006459	1.424148	-0.992593	50.792640	-72.442174	162.134028			
43190	8.646939	0.635804	1.684491	-0.793406	1.226251	-1.101891	51.683424	-72.338873	161.269126			
43191	8.800363	1.066615	1.864458	-0.474048	1.028780	-0.825085	52.537897	-72.227906	160.405682			
43192	8.916207	1.494982	2.175972	-0.042859	0.899394	-0.557542	53.144323	-72.085279	159.724546			
43193	9.067304	1.396859	2.147464	-0.171341	1.012986	-0.446619	53.537217	-71.927630	159.196680			
43194	8.910717	1.312645	2.024276	-0.284235	1.023918	-0.642500	53.854145	-71.762667	158.766422			
43195	8.779365	1.125181	1.809922	-0.528231	1.073164	-0.857894	54.283999	-71.620593	158.253020			
43196	9.099375	0.749050	1.657968	-0.939453	1.371373	-0.683328	54.916524	-71.520268	157.551120			
43197	9.213585	0.611557	1.648757	-1.047260	1.532406	-0.618265	55.609278	-71.434018	156.799924			
43198	9.426571	0.512524	1.699503	-1.112917	1.709263	-0.439805	56.315895	-71.350615	156.023149			
43199	9.370817	0.513280	1.904423	-0.921185	1.855590	-0.463327	57.064134	-71.275034	155.183307			
43200	9.472302	0.803502	2.056942	-0.669512	1.757570	-0.269961	57.927170	-71.222219	154.192276			
43201	10.035337	1.269829	2.500402	-0.219640	1.739499	0.458542	58.775416	-71.187399	153.188959			
43202	10.302419	1.530096	2.404550	-0.226694	1.556885	0.760270	59.560936	-71.159112	152.285980			
43203	10.845646	1.754159	2.741090	0.024466	1.676796	1.385808	60.217816	-71.129704	151.544569			
43204	11.483362	1.132135	2.262824	-0.840468	2.063507	1.733100	60.540161	-71.098667	151.097997			
43205	12.376739	0.503911	1.963092	-1.634499	2.581485	2.351014	60.728774	-71.107398	150.812920			
43206	13.092492	0.425681	1.783090	-2.009375	2.672926	2.977614	60.947866	-71.159635	150.639485			
43207	13.596651	0.551336	0.993369	-2.723040	2.231147	3.369370	61.406263	-71.266391	150.459005			
43208	13.264153	1.008662	0.459747	-2.820160	1.515466	3.106930	61.975197	-71.371699	150.379060			
43209	13.339222	1.537313	-0.080946	-2.995650	0.801269	3.252101	62.689317	-71.429905	150.304995			
43210	13.546248	2.584875	-0.939907	-3.191708	-0.487527	3.627588	63.545863	-71.452727	150.163466			
43211	13.601947	3.924594	-1.844685	-3.208536	-2.062023	3.944908	64.224440	-71.424566	150.212615			
43212	13.150526	5.302173	-2.277365	-2.668478	-3.488992	3.859979	64.420850	-71.329738	150.828061			
43213	12.344879	6.717518	-1.931786	-1.372183	-4.554656	3.552376	64.128104	-71.198276	152.061220			
43214	11.731802	7.704122	-1.378771	-0.177418	-5.117927	3.327508	63.514328	-71.071719	153.729240			
43215	10.990738	8.921041	-0.873663	1.167092	-5.884549	3.038546	62.559273	-70.933296	155.756107			
43216	9.756222	9.235407	-0.234026	2.250733	-5.916268	2.039026	61.230788	-70.777763	158.009625			
43217	8.408435	9.252379	1.180823	3.759337	-5.211046	0.976889	59.886479	-70.642457	160.034167			
43218	7.186278	9.244861	2.158494	4.866795	-4.731119	-0.030056	58.735090	-70.595974	161.470389			
43219	5.642889	8.669700	2.529490	5.272263	-4.267453	-1.603188	57.529318	-70.642296	162.522852			
43220	5.881999	7.444600	2.739064	4.599350	-3.267854	-1.707834	56.306106	-70.807612	163.223446			
43221	6.177380	6.307046	2.780569	3.844763	-2.459134	-1.760383	54.851127	-71.035597	163.921501			
43222	6.035528	4.738274	2.737507	2.929203	-1.414117	-2.343310	53.143968	-71.292311	164.744081			
43223	6.265712	3.363091	2.684323	2.030641	-0.469612	-2.503094	51.429274	-71.568851	165.566330			
43224	7.082456	2.415533	2.607806	1.203859	0.196463	-1.982745	49.791849	-71.839540	166.360842			
43225	8.227322	1.923035	2.380429	0.432492	0.450460	-1.056961	48.319886	-72.092041	167.073398			
43226	9.161806	1.631222	2.003847	-0.276995	0.454728	-0.308422	47.038756	-72.287147	167.681804			
43227	10.362621	1.703167	1.815599	-0.723574	0.305573	0.815760	46.079857	-72.438731	168.093466			
43228	10.736870	1.901576	1.414157	-1.036902	-0.106105	1.133073	45.364753	-72.512716	168.368903			
43229	10.746588	2.088002	1.185027	-1.128531	-0.418937	1.132816	44.789682	-72.501387	168.610307			
43230	10.528684	2.007992	1.187987	-1.122524	-0.389377	0.905742	44.180813	-72.399543	168.938730			
43231	10.081953	2.009996	1.516622	-0.759998	-0.264752	0.547720	43.380963	-72.202912	169.500414			
43232	9.537226	1.760558	2.019325	-0.369544	0.150272	0.085612	42.369705	-71.918556	170.352581			
43233	8.931500	1.535235	2.483633	0.014543	0.515749	-0.430240	41.273959	-71.578237	171.420709			
43234	8.262573	1.402146	2.822775	0.364690	0.735188	-1.007565	40.181267	-71.222535	172.609383			
43235	7.740106	1.589520	2.932100	0.653605	0.576798	-1.429803	39.244250	-70.881312	173.762449			
43236	7.333281	1.560529	2.964259	0.745310	0.575190	-1.805657	38.570417	-70.599481	174.715515			
43237	7.243397	1.568894	2.815877	0.621577	0.465579	-1.922558	38.149829	-70.375619	175.462403			
43238	7.580210	1.446681	2.973777	0.536479	0.654437	-1.585924	37.913662	-70.190377	176.032035			
43239	8.019441	1.443303	3.161652	0.501708	0.769526	-1.120931	37.804839	-70.012083	176.480822			
43240	7.960005	1.466626	3.275047	0.590421	0.814231	-1.139341	37.763068	-69.829959	176.835894			
43241	7.791991	1.307700	3.100588	0.398504	0.844626	-1.376659	37.751432	-69.662646	177.119776			
43242	7.867911	1.210137	3.121035	0.309158	0.939828	-1.319725	37.745935	-69.521827	177.351875			
43243	7.614632	1.286004	2.974886	0.303816	0.789719	-1.580411	37.684435	-69.400141	177.592113			
43244	7.684775	1.173189	2.851299	0.108150	0.807830	-1.572679	37.573904	-69.335318	177.796181			
43245	7.566411	1.164356	2.862278	0.144179	0.812890	-1.681430	37.390621	-69.289198	178.037543			
43246	7.191543	1.025601	2.805004	0.149965	0.880085	-2.076981	37.234975	-69.245717	178.304630			
43247	7.150311	1.278568	3.015367	0.458820	0.793221	-2.001515	37.212330	-69.271231	178.468150			
43248	7.133893	1.151971	3.221297	0.559085	1.017031	-1.986496	37.240705	-69.369611	178.521655			
43249	7.318264	1.040748	3.491392	0.655144	1.268794	-1.763410	37.277957	-69.520085	178.520439			
43250	7.396283	0.687859	3.451072	0.426253	1.532670	-1.777935	37.293419	-69.691743	178.519921			
43251	7.353969	0.418996	3.315455	0.214827	1.671610	-1.912803	37.345885	-69.876059	178.491287			
43252	7.426938	0.133242	3.384424	0.110360	1.946381	-1.886095	37.415663	-70.060723	178.447534			
43253	7.566605	-0.023565	3.710433	0.251112	2.268753	-1.700288	37.488841	-70.248363	178.378656			
43254	7.914991	-0.069326	3.922447	0.299836	2.435621	-1.326509	37.540108	-70.448379	178.255535			
43255	8.410357	-0.048950	3.909990	0.171172	2.417256	-0.859924	37.557191	-70.652016	178.099841			
43256	8.944645	-0.133621	3.689785	-0.181747	2.360430	-0.430031	37.477172	-70.850296	177.952426			
43257	9.306142	-0.489330	3.386228	-0.686818	2.470515	-0.234851	37.263080	-71.033299	177.885856			
43258	9.362744	-0.867767	3.419984	-0.846250	2.788343	-0.240897	36.981408	-71.182138	177.933515			
43259	9.279959	-0.966508	3.604816	-0.697778	2.960081	-0.283919	36.672058	-71.312217	178.095685			
43260	9.397753	-0.737609	3.692966	-0.515318	2.807672	-0.099236	36.366705	-71.463473	178.311972			
43261	9.689750	-0.575262	3.716440	-0.474816	2.672845	0.220481	36.044181	-71.618607	178.625435			
43262	10.036678	-0.274030	3.729762	-0.391074	2.414647	0.615045	35.665876	-71.729222	179.105015			
43263	10.399319	0.147726	3.387570	-0.535535	1.849359	0.954684	35.222208	-71.775863	179.742604			
43264	10.488545	0.566939	3.409623	-0.320941	1.491308	1.124838	34.809633	-71.777407	-179.586397			
43265	10.421634	0.646698	3.542164	-0.157358	1.483464	1.112063	34.610303	-71.806865	-179.136678			
43266	10.304963	0.299522	3.917028	-0.016739	1.980684	1.036353	34.703353	-71.914335	-179.017411			
43267	10.212901	-0.334962	4.427433	0.075478	2.806628	0.963896	35.013946	-72.114675	-179.181860			
43268	10.319802	-1.128548	5.092016	0.150634	3.856378	1.087130	35.298493	-72.365765	-179.420021			
43269	10.822373	-1.240334	5.933678	0.628360	4.446939	1.750205	35.280454	-72.573782	-179.378368			
43270	11.970310	-0.725980	6.372821	0.929262	4.266016	3.046771	34.717135	-72.610796	-178.652938			
43271	13.235984	-0.303195	4.228270	-0.894871	2.602972	3.810254	33.876111	-72.455359	-177.366999			
43272	14.619284	0.706511	2.125684	-2.399539	0.462382	4.773920	33.654257	-72.278028	-176.345953			
43273	15.353260	2.568540	3.029002	-0.904838	-0.504450	6.012023	34.140739	-72.119013	-176.018625			
43274	15.488236	5.032945	3.119699	0.536680	-2.344178	6.593552	34.990633	-71.912814	-176.229627			
43275	14.678646	7.455882	0.702991	0.401324	-5.652797	5.660873	35.893125	-71.573815	-176.684804			
43276	13.464320	8.759014	0.880820	1.609277	-6.469653	4.827542	36.509826	-70.996692	-177.038402			
43277	12.551221	8.827123	1.935776	2.578060	-5.802150	4.289975	36.853670	-70.354562	-177.282832			
43278	10.514111	8.432858	3.657377	4.137300	-4.358377	2.793741	37.037002	-69.844935	-177.518089			
43279	8.824366	7.835952	4.649377	4.985128	-3.243429	1.390727	37.274745	-69.565270	-177.972417			
43280	7.945420	7.676982	4.262526	4.871842	-3.359704	0.444621	37.748936	-69.582897	-178.833195			
43281	7.455156	6.860171	3.266882	3.825082	-3.353974	-0.462105	38.188798	-69.794159	-179.827130			
43282	6.763880	5.272515	3.030449	2.976319	-2.269005	-1.522562	38.546030	-70.120557	179.218780			
43283	6.279607	3.425252	3.574093	2.520472	-0.489134	-2.239864	38.948195	-70.549934	178.311349			
43284	6.692886	1.699995	3.593688	1.476579	0.901533	-2.222839	39.532319	-71.035068	177.393893			
43285	7.580209	0.149525	2.733199	-0.269760	1.656944	-1.930204	40.367707	-71.505440	176.411201			
43286	8.147940	-0.543829	1.514345	-1.705177	1.529269	-1.829506	41.490548	-71.888803	175.321276			
43287	8.689943	-0.192445	0.347043	-2.518113	0.607467	-1.508329	42.766452	-72.114989	174.202991			
43288	9.599463	0.994401	-0.901897	-3.054151	-1.020642	-0.670353	43.742563	-72.089122	173.469876			
43289	10.996797	2.070125	-1.043086	-2.991062	-1.885183	0.855137	44.126960	-71.811307	173.398838			
43290	10.703783	3.084531	-0.436806	-1.912479	-2.322472	0.921568	44.101293	-71.327476	173.941765			
43291	9.459487	3.967774	0.849556	-0.098795	-2.256949	0.229378	44.207766	-70.925311	174.343225			
43292	8.079432	4.518285	1.390036	1.041416	-2.366746	-0.816124	44.668987	-70.690097	174.387462			
43293	7.908193	4.608197	1.442330	1.185768	-2.367819	-0.933357	45.379813	-70.610297	174.097942			
43294	7.593649	4.230173	1.322934	0.991647	-2.120007	-1.337428	46.178251	-70.649796	173.677512			
43295	7.152426	4.549420	2.257288	2.033779	-1.736127	-1.458096	46.904643	-70.773860	173.124113			
43296	6.857243	3.848350	1.750691	1.365807	-1.507081	-2.017841	47.697671	-70.937479	172.425999			
43297	6.350352	3.930116	1.319275	1.293656	-1.838800	-2.569871	48.517095	-71.120049	171.690055			
43298	5.903416	3.928079	1.196088	1.375249	-1.907831	-3.017139	49.441814	-71.343752	170.776167			
43299	6.405953	4.083041	0.798340	1.052430	-2.225228	-2.581826	50.553686	-71.591873	169.605153			
43300	6.974684	4.341755	0.582402	0.906933	-2.492477	-2.015183	51.647779	-71.818977	168.382758			
43301	7.723911	4.504451	0.570686	0.799620	-2.538171	-1.257418	52.751212	-72.043597	167.077981			
43302	8.326590	4.386381	0.362531	0.425197	-2.500660	-0.742431	53.855791	-72.241172	165.760647			
43303	8.760510	4.178571	0.334116	0.180667	-2.285111	-0.375314	54.919897	-72.402966	164.451140			
43304	8.974422	3.824611	0.025510	-0.300126	-2.151907	-0.302294	55.910728	-72.516289	163.183425			
43305	9.081471	3.957489	0.134467	-0.154459	-2.131714	-0.138769	56.833731	-72.586184	161.928018			
43306	9.016709	3.794333	0.083139	-0.265495	-2.004856	-0.241122	57.619864	-72.608953	160.716161			
43307	8.677701	3.599153	0.436359	-0.017209	-1.631932	-0.550763	58.266427	-72.608196	159.559011			
43308	8.728023	3.280677	0.792959	0.056101	-1.129421	-0.523381	58.891460	-72.619493	158.330296			
43309	8.732307	2.765346	1.118446	0.018883	-0.500734	-0.598562	59.489427	-72.653227	157.026480			
43310	9.142750	2.255441	1.348519	-0.187574	0.111287	-0.302284	59.949560	-72.670671	155.821800			
43311	9.377511	1.707992	1.449875	-0.456778	0.657759	-0.204580	60.312452	-72.670582	154.722634			
43312	9.401812	1.185571	1.535831	-0.656710	1.156250	-0.305315	60.792817	-72.660311	153.579575			
43313	9.900651	0.915404	1.581531	-0.868295	1.501733	0.104607	61.465599	-72.664427	152.324135			
43314	10.174573	0.609396	1.467566	-1.159018	1.765480	0.266328	62.165673	-72.665411	151.098105			
43315	10.364626	0.519059	1.324721	-1.342054	1.827295	0.400515	62.681529	-72.637275	150.126430			
43316	10.378518	0.379024	1.588713	-1.182427	2.121136	0.409049	62.896271	-72.567294	149.513597			
43317	10.507816	0.160436	1.664918	-1.260729	2.379978	0.480909	62.756394	-72.458594	149.322930			
43318	10.078144	0.161053	1.426307	-1.361052	2.190157	0.035154	62.400237	-72.321155	149.433022			
43319	9.315850	0.131946	1.340278	-1.274038	2.049659	-0.714641	61.904231	-72.136020	149.761147			
43320	8.969872	0.003710	1.369589	-1.255043	2.115662	-1.078666	61.386775	-71.924578	150.152675			
43321	8.557216	-0.000925	1.431400	-1.133453	2.085939	-1.467698	60.839463	-71.681879	150.619421			
43322	8.340911	0.094631	1.406890	-1.089370	1.958184	-1.655620	60.357480	-71.428867	151.036722			
43323	8.248865	0.245252	1.457052	-0.988912	1.846426	-1.698530	59.967450	-71.176723	151.357834			
43324	8.077154	0.481331	1.442136	-0.877992	1.618754	-1.802663	59.602788	-70.913043	151.639614			
43325	7.964456	0.825432	1.662833	-0.534921	1.437955	-1.779945	59.352232	-70.657470	151.802186			
43326	8.016567	1.294449	1.894352	-0.169476	1.186234	-1.560806	59.151469	-70.416719	151.890933			
43327	8.169906	1.708607	2.084343	0.105566	0.973515	-1.265629	58.952321	-70.188625	151.967435			
43328	8.359833	1.973873	2.317002	0.334083	0.910011	-0.968952	58.700649	-69.984868	152.068884			
43329	8.480983	2.079403	2.515024	0.482441	0.946528	-0.787854	58.469562	-69.822153	152.133974			
43330	8.677294	1.736058	2.584176	0.301802	1.300948	-0.691079	58.330656	-69.729517	152.089844			
43331	8.675455	1.145243	2.785161	0.193251	1.899667	-0.830141	58.295649	-69.707569	151.929065			
43332	8.801356	0.457553	2.972610	0.009273	2.593830	-0.880636	58.385885	-69.774424	151.613248			
43333	8.805510	-0.270290	2.907438	-0.348094	3.172048	-1.101770	58.540700	-69.912591	151.230506			
43334	9.040458	-0.639394	3.025810	-0.445465	3.579814	-0.965058	58.722264	-70.103807	150.819370			
43335	9.398349	-0.828848	2.850534	-0.735616	3.707192	-0.710113	59.013925	-70.337113	150.356431			
43336	9.848872	-0.237441	2.948685	-0.466420	3.329694	-0.094316	59.434882	-70.594499	149.866102			
43337	10.666874	0.360203	2.750684	-0.540746	2.863012	0.816922	60.069709	-70.883990	149.243558			
43338	11.762582	1.022561	2.361211	-0.809391	2.297717	1.979011	60.853915	-71.192423	148.560823			
43339	12.334244	1.362975	1.342627	-1.600029	1.601633	2.462007	61.617700	-71.477951	147.965132			
43340	13.366046	1.708420	0.836844	-2.078247	1.232652	3.470056	62.271828	-71.717702	147.570528			
43341	13.870487	2.253719	0.682831	-2.032776	0.778393	4.086867	62.742627	-71.889179	147.458190			
43342	14.900336	2.618611	0.162384	-2.523840	0.369680	5.100289	63.213647	-72.027416	147.468159			
43343	15.457016	3.267475	-0.636719	-2.986102	-0.504734	5.705991	63.723014	-72.113186	147.551278			
43344	15.332439	4.287137	-1.361374	-3.030523	-1.763858	5.776451	64.055641	-72.083059	147.875925			
43345	15.092398	4.933220	-2.079597	-3.229032	-2.732945	5.632253	64.158202	-71.966197	148.403902			
43346	14.567902	5.257296	-2.458431	-3.244281	-3.311328	5.167849	63.918028	-71.788864	149.246079			
43347	13.183483	5.475418	-2.495008	-2.812220	-3.767583	3.895192	63.275728	-71.572446	150.491253			
43348	11.284369	5.915986	-1.889193	-1.589223	-4.120401	2.286958	62.550409	-71.363956	151.913191			
43349	10.044496	6.564911	-1.051524	-0.225953	-4.376967	1.407237	61.907788	-71.200030	153.266888			
43350	8.826868	7.214550	-0.708775	0.756665	-4.890633	0.481719	61.156919	-71.051379	154.666068			
43351	7.608918	7.668679	0.177403	2.066633	-4.908605	-0.412139	60.180718	-70.905449	156.114455			
43352	6.360829	7.531247	1.542819	3.422857	-4.165405	-1.416648	58.988629	-70.779959	157.540926			
43353	5.300386	7.440966	2.688239	4.564376	-3.570024	-2.255580	57.671555	-70.719774	158.841444			
43354	5.660338	7.196404	3.146530	4.650525	-3.119604	-1.915321	56.423140	-70.813351	159.752782			
43355	6.031368	6.252414	2.673611	3.631226	-2.703460	-1.930879	55.117240	-71.015676	160.459536			
43356	6.283683	5.188523	2.562988	2.875512	-1.993768	-2.019762	53.607836	-71.236632	161.238007			
43357	6.922966	3.941327	2.551808	1.998212	-1.033468	-1.755928	51.943814	-71.456645	162.085547			
43358	7.766404	3.000631	2.497207	1.206022	-0.316630	-1.210287	50.296928	-71.651865	162.931877			
43359	8.807206	2.354246	2.371648	0.464034	0.150053	-0.405478	48.791625	-71.809698	163.715105			
43360	9.607102	2.005451	2.068945	-0.192856	0.265837	0.211806	47.493127	-71.925107	164.365843			
43361	10.500078	1.745679	1.721169	-0.867514	0.311452	0.930295	46.564209	-72.022633	164.746169			
43362	10.930964	1.900712	1.299426	-1.266006	-0.049191	1.286047	45.851997	-72.065634	165.016673			
43363	11.021817	2.102904	1.024100	-1.433576	-0.388135	1.356267	45.219070	-72.038481	165.293054			
43364	10.743325	2.187714	0.962904	-1.386787	-0.542398	1.092117	44.503231	-71.920062	165.754919			
43365	10.402602	2.239902	1.585779	-0.784698	-0.327319	0.912180	43.662354	-71.717968	166.452336			
43366	9.589243	2.079403	2.475331	0.073834	0.165754	0.305189	42.735349	-71.463446	167.305029			
43367	9.087838	1.948589	3.077842	0.614414	0.510822	-0.054607	41.860003	-71.220402	168.169272			
43368	8.424329	1.620952	3.040067	0.591188	0.693576	-0.756861	41.024050	-70.985325	169.051155			
43369	7.766377	1.495868	3.192349	0.824073	0.806437	-1.361909	40.233590	-70.744394	169.945616			
43370	7.569558	1.388535	3.299172	0.882560	0.913886	-1.536429	39.493415	-70.508319	170.808992			
43371	7.698226	1.269947	3.228043	0.684005	0.960053	-1.451710	38.813086	-70.272827	171.656994			
43372	7.236534	1.190114	3.046593	0.607577	0.889177	-1.944682	38.161376	-69.990490	172.562950			
43373	7.247893	1.243573	3.049590	0.584526	0.826186	-1.916235	37.624420	-69.706965	173.415346			
43374	7.028318	1.379649	2.806348	0.483719	0.558200	-2.155631	37.127921	-69.429360	174.246641			
43375	6.468931	1.565763	2.866793	0.777604	0.401146	-2.618838	36.798760	-69.165374	174.956998			
43376	6.515455	1.704538	3.091089	0.975661	0.401046	-2.477933	36.623794	-68.978065	175.455428			
43377	6.512076	1.740071	3.112943	0.987077	0.384616	-2.464007	36.567230	-68.820336	175.814105			
43378	6.491919	1.626422	2.805115	0.676524	0.318622	-2.594674	36.614071	-68.718784	176.000152			
43379	6.192849	1.563197	2.656359	0.626198	0.290185	-2.929747	36.742061	-68.672117	176.053771			
43380	6.513503	1.336587	2.686353	0.419036	0.511902	-2.671886	36.897688	-68.707757	175.965442			
43381	7.115629	1.133212	2.855281	0.240499	0.795679	-2.106974	37.013323	-68.800421	175.820869			
43382	7.445048	1.006339	3.156595	0.309087	1.077077	-1.741138	37.026453	-68.897913	175.741336			
43383	7.722651	1.136696	3.433286	0.506359	1.122676	-1.374556	36.935800	-68.976001	175.761875			
43384	7.581076	1.181216	3.421189	0.580900	1.066971	-1.500249	36.770238	-69.042623	175.859587			
43385	7.300336	1.170940	3.258588	0.561441	0.972009	-1.811165	36.681556	-69.162828	175.878723			
43386	7.260787	1.100445	3.373347	0.654865	1.088655	-1.831748	36.721591	-69.366660	175.740475			
43387	7.569247	0.975129	3.624184	0.718898	1.336987	-1.501574	36.815100	-69.626514	175.489897			
43388	7.824153	0.727768	3.897933	0.773045	1.698500	-1.241914	36.914237	-69.935582	175.138575			
43389	8.214801	0.415991	4.182916	0.774792	2.122792	-0.865853	37.034473	-70.290239	174.665774			
43390	8.786401	0.100770	4.311234	0.606565	2.470210	-0.361374	37.090227	-70.662743	174.152335			
43391	9.264089	-0.292957	4.136817	0.198768	2.722011	-0.036543	37.075026	-71.014954	173.695763			
43392	9.529664	-0.441447	4.103549	0.091517	2.831262	0.178490	36.992574	-71.319441	173.374477			
43393	9.738978	-0.380446	4.228898	0.222028	2.837507	0.423277	36.840844	-71.567134	173.206104			
43394	10.032590	-0.318222	4.185991	0.174560	2.757164	0.706060	36.630307	-71.757939	173.194640			
43395	10.414236	-0.030518	4.075836	0.133258	2.450719	1.098125	36.395996	-71.876025	173.335419			
43396	10.848387	0.269102	3.838112	-0.042854	2.071038	1.509855	36.124999	-71.920337	173.604212			
43397	11.044832	0.284301	3.277582	-0.561460	1.769280	1.561234	35.928081	-71.901024	173.877475			
43398	11.294311	0.497330	3.311191	-0.526308	1.602593	1.846104	35.882324	-71.813214	174.086143			
43399	11.672427	0.766855	3.831726	-0.117106	1.647757	2.385132	35.978167	-71.659427	174.201539			
43400	11.686930	0.928067	4.113013	0.146093	1.667453	2.498307	36.238465	-71.477903	174.135740			
43401	11.479098	0.810264	4.563208	0.488995	2.020184	2.390945	36.694677	-71.337773	173.829938			
43402	11.739422	1.207998	5.531843	1.359806	2.217335	2.958718	37.071290	-71.207027	173.533785			
43403	12.565438	1.833846	5.834515	1.606083	1.882480	3.941271	37.007894	-71.030784	173.612744			
43404	14.164592	2.347370	6.087938	1.473809	1.602143	5.629749	36.248978	-70.718404	174.370873			
43405	15.174375	1.608300	4.508205	-0.603342	1.377868	6.027375	35.047238	-70.328481	175.551083			
43406	14.637272	0.270098	3.461441	-2.006628	1.887731	4.976270	34.190847	-70.077189	176.460980			
43407	11.983874	0.620522	3.823446	-0.694024	1.667391	2.651463	33.855992	-69.979337	176.943647			
43408	10.373546	2.386179	3.348998	0.294997	-0.134101	1.341462	33.780821	-69.888824	177.227036			
43409	9.470728	4.086168	2.043037	0.352433	-2.277554	0.446648	33.821469	-69.704379	177.557075			
43410	9.460886	4.908660	2.612013	1.187893	-2.671536	0.764535	33.888385	-69.454286	177.834857			
43411	10.648356	5.159950	3.570739	1.622680	-2.346791	2.213202	34.006689	-69.185291	178.023570			
43412	10.620441	5.622772	3.907985	2.086406	-2.533961	2.390074	34.271591	-68.933794	178.048521			
43413	9.482548	5.957340	3.570283	2.366867	-2.966512	1.311744	34.964463	-68.793848	177.596107			
43414	9.015252	6.147505	2.501480	1.784727	-3.648057	0.619473	36.025238	-68.814953	176.594844			
43415	8.285497	5.759187	1.625302	1.170608	-3.747110	-0.376175	37.172688	-68.920263	175.286896			
43416	7.468037	4.812995	1.704763	1.061564	-2.880611	-1.302828	38.144101	-69.035481	174.010336			
43417	6.736373	3.834778	2.355982	1.363707	-1.699759	-2.009741	38.859433	-69.131033	172.994931			
43418	6.407611	2.902553	2.720668	1.326427	-0.711817	-2.422275	39.370377	-69.224681	172.268879			
43419	6.656477	2.183208	2.567398	0.782272	-0.155696	-2.394441	39.853363	-69.329201	171.706807			
43420	7.295374	1.746354	1.924221	-0.151981	-0.074524	-2.070198	40.363437	-69.427294	171.204514			
43421	7.959434	1.812197	1.066528	-1.024913	-0.525013	-1.661125	40.975025	-69.489059	170.692200			
43422	9.037985	2.397297	0.619184	-1.464351	-1.167255	-0.630710	41.571664	-69.477908	170.245217			
43423	10.047427	2.882683	0.492632	-1.678960	-1.553975	0.398558	42.087920	-69.383112	169.939201			
43424	10.696130	3.274495	0.665766	-1.584597	-1.721553	1.146236	42.531176	-69.237508	169.771008			
43425	10.457229	3.124914	0.817425	-1.467671	-1.504855	0.928272	42.889592	-69.099311	169.730740			
43426	9.846260	3.133083	1.302902	-0.873780	-1.265796	0.487645	43.190348	-68.996680	169.787638			
43427	9.570503	3.053005	1.723250	-0.483848	-0.967002	0.322190	43.511605	-68.983130	169.841338			
43428	9.243319	2.971764	1.857190	-0.290146	-0.830335	0.033418	43.796730	-69.055278	169.925427			
43429	8.837444	2.868082	1.917802	-0.128399	-0.726583	-0.354368	43.974944	-69.187730	170.115852			
43430	8.550009	3.025101	2.025345	0.168340	-0.806430	-0.556493	44.131077	-69.363400	170.317144			
43431	7.255758	3.404540	1.797977	0.676442	-1.313592	-1.732689	44.472284	-69.587095	170.295478			
43432	6.610599	3.347904	1.789425	0.901269	-1.292892	-2.354370	44.957714	-69.817192	170.068187			
43433	6.483860	3.318786	1.734271	0.923057	-1.289118	-2.495005	45.469776	-70.041806	169.731719			
43434	6.830966	3.098768	1.569767	0.598803	-1.165340	-2.262067	46.104686	-70.303750	169.164127			
43435	7.389164	3.181166	1.506570	0.453125	-1.208715	-1.730438	46.895397	-70.607505	168.364665			
43436	7.790503	2.914307	1.314769	0.079656	-1.048146	-1.457540	47.799533	-70.919962	167.380238			
43437	8.250988	2.486339	1.233767	-0.309556	-0.681520	-1.139612	48.763992	-71.195813	166.318704			
43438	8.463591	1.981309	1.035873	-0.755722	-0.334087	-1.097873	49.716965	-71.415368	165.263745			
43439	8.638694	1.443607	0.819854	-1.226274	0.030196	-1.101874	50.722476	-71.592599	164.178028			
43440	8.564572	1.305436	0.736596	-1.306033	0.130823	-1.217600	51.782691	-71.740846	163.045024			
43441	8.713693	1.214804	0.695129	-1.399153	0.237802	-1.102177	52.781589	-71.842540	161.976771			
43442	8.923818	1.263130	0.618068	-1.471928	0.215024	-0.902072	53.595976	-71.893180	161.083786			
43443	9.212816	1.323489	0.702150	-1.442360	0.278118	-0.595162	54.198522	-71.895876	160.426039			
43444	9.485620	1.533313	0.976656	-1.190219	0.320338	-0.233406	54.499607	-71.823353	160.102646			
43445	9.247633	1.602807	0.762112	-1.266591	0.132137	-0.482802	54.669981	-71.682177	159.992349			
43446	9.004279	1.778558	0.933928	-0.986497	0.078554	-0.640277	54.834014	-71.504190	159.953599			
43447	9.002840	1.899487	1.425790	-0.557041	0.283107	-0.522826	55.005862	-71.312629	159.925183			
43448	8.898480	1.918354	1.704800	-0.319859	0.438767	-0.567447	55.265308	-71.136066	159.824972			
43449	8.871414	2.049178	1.859987	-0.140540	0.445048	-0.531375	55.604206	-70.975865	159.652233			
43450	8.815291	2.168254	1.959060	0.000887	0.428244	-0.535558	56.003550	-70.831229	159.399580			
43451	8.715679	2.278291	2.022519	0.126312	0.394946	-0.589226	56.434891	-70.696410	159.087639			
43452	8.539640	2.368494	1.969217	0.173523	0.298934	-0.741112	56.816556	-70.551165	158.791921			
43453	8.177614	2.561795	2.068675	0.451538	0.185361	-1.010570	57.092906	-70.389060	158.549470			
43454	8.038192	2.397535	2.100803	0.414693	0.338871	-1.182089	57.337131	-70.237362	158.263789			
43455	7.756460	2.092322	2.203914	0.406335	0.625292	-1.515604	57.561281	-70.107677	157.914061			
43456	7.845652	1.690197	2.258965	0.199103	1.005384	-1.538421	57.823637	-70.016012	157.445404			
43457	7.841246	1.144724	2.162764	-0.162842	1.399699	-1.720260	58.146317	-69.970062	156.873119			
43458	7.835175	0.811898	2.320864	-0.199055	1.775709	-1.797531	58.557518	-69.974718	156.174667			
43459	7.962073	0.616252	2.417547	-0.241835	2.025425	-1.722076	59.024570	-70.020187	155.403335			
43460	8.179359	0.708021	2.370976	-0.270732	1.975921	-1.503231	59.551671	-70.082754	154.609492			
43461	8.711436	0.794333	2.124704	-0.556420	1.867859	-1.024297	60.216705	-70.147100	153.749123			
43462	9.122797	0.806995	1.736083	-0.956011	1.730599	-0.703267	61.009861	-70.194123	152.836458			
43463	9.602204	0.643286	1.452036	-1.382049	1.816226	-0.351421	61.905937	-70.220766	151.886064			
43464	9.931407	0.443954	1.333954	-1.646577	2.010679	-0.124807	62.923991	-70.228715	150.874454			
43465	10.223714	0.263246	1.179649	-1.916088	2.172110	0.066348	64.102085	-70.240711	149.751572			
43466	10.438235	0.411986	1.061646	-1.958083	2.083020	0.290779	65.390577	-70.268869	148.537109			
43467	10.400804	0.663507	0.895332	-1.906535	1.844124	0.305730	66.739634	-70.306435	147.248801			
43468	10.683091	1.293200	1.364215	-1.234492	1.724276	0.825182	67.990126	-70.332053	146.010124			
43469	10.732640	1.818721	1.243297	-1.026543	1.308300	1.016769	69.222690	-70.357771	144.778413			
43470	11.094099	2.668178	1.396854	-0.511343	0.850341	1.640011	70.413829	-70.399021	143.562019			
43471	11.345697	3.474979	1.423169	-0.087914	0.329988	2.133384	71.485495	-70.448395	142.432547			
43472	12.021911	3.845879	1.435255	-0.009971	0.230067	2.888634	72.482508	-70.524078	141.366426			
43473	12.853057	3.906031	1.525293	-0.059535	0.450132	3.699457	73.396199	-70.631200	140.418861			
43474	13.675506	3.799002	1.099129	-0.601483	0.503664	4.401528	74.323876	-70.789945	139.561208			
43475	14.566450	3.819298	0.304923	-1.376559	0.256698	5.183973	75.340829	-70.994280	138.793162			
43476	15.197781	3.904295	-0.987680	-2.441463	-0.393812	5.713895	76.354902	-71.221333	138.179678			
43477	15.186416	4.659070	-2.267294	-2.969194	-1.725075	5.861546	77.318644	-71.452142	137.759539			
43478	14.959076	5.347182	-2.856564	-2.914720	-2.674866	5.835790	77.857834	-71.666775	137.766371			
43479	13.856149	5.922735	-2.799004	-2.220638	-3.369563	4.973126	77.664345	-71.847019	138.466923			
43480	12.809675	6.628750	-2.358411	-1.191287	-3.937258	4.211167	76.997732	-71.978436	139.667983			
43481	11.061159	7.558469	-1.631511	0.340142	-4.634743	2.857929	75.803978	-72.044990	141.444689			
43482	9.928387	8.344400	-0.780775	1.730999	-4.999363	2.054119	74.254792	-72.060391	143.490243			
43483	8.513312	8.576567	0.239839	2.989631	-4.868336	0.838716	72.363542	-72.044034	145.647675			
43484	7.207718	8.326774	1.767517	4.321085	-4.023825	-0.349768	70.392671	-72.044255	147.619005			
43485	7.080748	8.043325	2.698341	4.863263	-3.336454	-0.467700	68.636863	-72.133376	149.057885			
43486	6.836774	7.377143	2.138677	4.064801	-3.320894	-0.970442	66.955169	-72.312566	150.148803			
43487	6.436024	6.180633	1.251160	2.757045	-3.109109	-1.817749	65.269744	-72.535261	151.152662			
43488	6.420017	5.138187	1.143034	2.059596	-2.459440	-2.155504	63.568096	-72.759778	152.189949			
43489	6.640863	4.077926	1.305025	1.521000	-1.584837	-2.222711	61.784727	-72.966298	153.302997			
43490	7.139546	3.117455	1.412496	0.937265	-0.772702	-1.988962	60.075325	-73.140771	154.362705			
43491	7.846078	2.623948	1.467356	0.519846	-0.330331	-1.432988	58.531098	-73.280784	155.297935			
43492	8.611031	2.359056	1.299906	0.034258	-0.182898	-0.792165	57.273814	-73.387795	155.982176			
43493	9.267523	2.296805	0.862589	-0.535739	-0.350470	-0.247315	56.289184	-73.467949	156.411263			
43494	9.693264	2.444647	0.409983	-0.958188	-0.711818	0.121033	55.387151	-73.487008	156.794514			
43495	9.800964	2.594758	0.499485	-0.864694	-0.811540	0.268713	54.375547	-73.436184	157.309499			
43496	9.639167	2.629135	0.708257	-0.675007	-0.785932	0.149933	53.147105	-73.297282	158.077256			
43497	9.493407	2.458141	1.245595	-0.327581	-0.419455	0.058229	51.788754	-73.099229	159.035044			
43498	8.749563	2.175962	1.709394	0.067669	-0.063933	-0.636492	50.420754	-72.874574	160.080881			
43499	8.259565	1.944062	2.373456	0.593137	0.380368	-1.029967	49.104307	-72.639647	161.155288			
43500	7.330741	1.840933	2.723380	1.049411	0.515698	-1.864224	47.888325	-72.397976	162.216691			
43501	6.873737	1.820687	3.062916	1.411808	0.628875	-2.226140	46.873092	-72.174664	163.130434			
43502	7.037108	1.858391	3.206041	1.463770	0.655587	-2.022910	46.065183	-71.981959	163.880177			
43503	7.229021	1.931340	3.084839	1.305295	0.524469	-1.842364	45.360728	-71.790030	164.580060			
43504	7.515255	2.046802	2.998604	1.165932	0.386794	-1.557329	44.771965	-71.589151	165.247481			
43505	7.965238	2.150198	2.792873	0.869820	0.214036	-1.148625	44.236462	-71.389040	165.911926			
43506	7.899729	2.338157	2.638378	0.814681	-0.044345	-1.200605	43.775203	-71.191676	166.531395			
43507	8.167582	2.442610	2.690592	0.791539	-0.099889	-0.908845	43.341038	-71.034326	167.036971			
43508	8.160833	2.374904	2.637464	0.691204	-0.085391	-0.940797	42.905489	-70.900588	167.460884			
43509	8.150616	2.376857	2.633625	0.667253	-0.108130	-0.949225	42.429676	-70.769712	167.854454			
43510	8.159016	2.143602	2.708842	0.592771	0.108839	-0.973057	41.899645	-70.645565	168.237007			
43511	7.725022	1.976963	2.887918	0.781033	0.289570	-1.372873	41.358353	-70.530562	168.588716			
43512	7.563081	1.716167	3.136692	0.901048	0.604247	-1.517677	40.845115	-70.453819	168.872588			
43513	7.417551	1.617702	3.305398	1.033268	0.739359	-1.630491	40.370457	-70.423003	169.104186			
43514	7.355382	1.373815	3.487634	1.091387	1.011484	-1.692446	39.913368	-70.435706	169.297096			
43515	7.478229	1.218882	3.514590	1.009826	1.142225	-1.600657	39.557090	-70.502904	169.401730			
43516	7.549946	1.156650	3.573105	1.020693	1.209018	-1.529994	39.305701	-70.603610	169.428096			
43517	7.504821	1.185426	3.294656	0.834732	1.031379	-1.638229	39.232705	-70.734775	169.341610			
43518	7.378151	1.083547	3.176177	0.755804	1.048695	-1.810924	39.312749	-70.911187	169.098070			
43519	7.522986	0.834949	3.251510	0.695281	1.308894	-1.709106	39.478760	-71.132353	168.720669			
43520	7.765739	0.658104	3.544900	0.827344	1.617485	-1.445776	39.634318	-71.368366	168.293693			
43521	7.895146	0.417805	3.809572	0.951033	1.955767	-1.310274	39.701017	-71.611261	167.886630			
43522	7.959936	0.146725	3.927166	0.963406	2.241745	-1.277412	39.704205	-71.864553	167.506758			
43523	8.262370	0.305492	4.316954	1.320072	2.285988	-0.866871	39.587275	-72.086248	167.286745			
43524	8.247387	0.434846	4.196339	1.315988	2.090226	-0.884266	39.251576	-72.262448	167.298111			
43525	8.333357	0.372066	4.029716	1.151363	2.045676	-0.851029	38.778850	-72.405872	167.504375			
43526	8.456525	0.433548	3.739677	0.911511	1.835812	-0.785795	38.202263	-72.509271	167.868935			
43527	8.782670	0.313002	3.318535	0.416581	1.745145	-0.591690	37.688887	-72.591694	168.239777			
43528	9.280306	0.152380	3.247976	0.154275	1.865385	-0.159027	37.399563	-72.656809	168.471043			
43529	9.783784	0.164054	3.288228	0.055636	1.894539	0.334697	37.433325	-72.704844	168.453278			
43530	10.229849	0.255346	3.271885	-0.042954	1.840463	0.771786	37.762644	-72.734407	168.164206			
43531	10.444146	0.068141	3.183596	-0.248935	2.006174	0.917332	38.374732	-72.751435	167.577376			
43532	10.687733	-0.139620	3.633305	-0.005753	2.446654	1.208279	39.193299	-72.744201	166.768672			
43533	10.878310	0.013402	4.288713	0.578099	2.661241	1.558956	39.984982	-72.711878	165.946384			
43534	11.293250	0.383815	5.441629	1.612917	2.911749	2.279305	40.453529	-72.661713	165.400845			
43535	11.767397	0.841577	6.046016	2.180261	2.818245	2.955951	40.324105	-72.583914	165.435793			
43536	12.499332	0.807749	5.902540	1.808276	2.814160	3.623686	39.629370	-72.500989	166.055218			
43537	13.164382	0.676880	4.420184	0.244348	2.270486	3.901607	38.658073	-72.418354	166.995757			
43538	13.874066	0.411441	3.315128	-1.060553	2.013347	4.275267	37.997972	-72.365647	167.730518			
43539	14.701282	1.179699	3.604048	-0.772352	1.475402	5.278208	37.766197	-72.282838	168.150827			
43540	14.592503	2.662962	2.892831	-0.781252	-0.172109	5.279060	37.936585	-72.125037	168.258484			
43541	13.762472	5.187081	1.527634	-0.702734	-3.051434	4.638598	38.492627	-71.870503	168.010058			
43542	13.845062	6.723182	0.525437	-1.004307	-4.804950	4.784091	39.157094	-71.461828	167.574184			
43543	13.516001	6.834981	0.408126	-1.047954	-4.907677	4.483494	39.755772	-70.935190	167.085655			
43544	11.915641	6.669928	2.097161	0.724568	-4.026469	3.383135	40.383897	-70.439465	166.492691			
43545	9.834754	6.550941	3.056523	2.084842	-3.574541	1.670122	41.105528	-70.090929	165.671615			
43546	8.756835	6.430187	3.059939	2.344420	-3.507209	0.656104	41.884282	-69.942877	164.621214			
43547	7.876861	5.669248	3.104749	2.341757	-2.865321	-0.318961	42.522465	-69.952503	163.574381			
43548	7.129114	4.568919	3.055814	2.104719	-1.978292	-1.286621	42.958989	-70.103241	162.663242			
43549	6.721577	3.460571	2.810346	1.611330	-1.147307	-1.993454	43.368102	-70.371743	161.861856			
43550	6.776153	2.739785	2.459513	1.047408	-0.656166	-2.200585	43.746649	-70.681654	161.237936			
43551	6.985147	1.933138	2.006821	0.321167	-0.109540	-2.299944	44.170542	-70.996535	160.692245			
43552	7.423216	1.268520	1.294908	-0.645293	0.231289	-2.202168	44.752986	-71.266777	160.082769			
43553	7.931202	1.230908	0.437403	-1.519329	-0.032910	-1.919602	45.590481	-71.482867	159.322732			
43554	8.634594	1.705672	-0.283320	-2.138975	-0.664382	-1.296290	46.494617	-71.575793	158.580143			
43555	9.678431	2.351288	-0.988152	-2.789398	-1.397085	-0.302464	47.233084	-71.532245	158.042337			
43556	9.884612	2.768057	-1.310294	-2.968878	-1.858781	-0.075377	47.679771	-71.335127	157.860168			
43557	9.637346	3.089791	-0.820014	-2.363646	-1.935452	-0.129467	47.950092	-71.046310	157.918670			
43558	8.461145	3.250963	0.334777	-0.975642	-1.682152	-0.953219	48.121668	-70.736043	158.076243			
43559	8.337242	3.210069	1.090528	-0.328051	-1.294117	-0.912072	48.418782	-70.512589	158.089293			
43560	8.467860	3.272042	1.316673	-0.162079	-1.202063	-0.720204	48.811088	-70.372934	158.026901			
43561	8.150750	3.407560	1.647235	0.274190	-1.181176	-0.908241	49.189800	-70.298901	157.987196			
43562	8.209093	3.343720	1.923308	0.474790	-0.963653	-0.806319	49.654506	-70.311505	157.845045			
43563	7.761412	3.258148	1.555846	0.289021	-1.095805	-1.327922	50.299526	-70.406348	157.536113			
43564	7.653488	3.417783	1.328802	0.229603	-1.331000	-1.434239	50.990156	-70.507348	157.185888			
43565	7.344312	3.420273	1.177017	0.228845	-1.421566	-1.753579	51.639624	-70.597184	156.828474			
43566	7.409733	3.275664	1.136354	0.141805	-1.283801	-1.734505	52.343912	-70.699208	156.379533			
43567	7.630643	3.267713	0.894500	-0.101395	-1.342879	-1.573085	53.046585	-70.807435	155.903710			
43568	8.062048	3.265545	0.807195	-0.273576	-1.302189	-1.178958	53.753872	-70.904833	155.423191			
43569	8.398384	3.437034	0.815756	-0.258234	-1.373660	-0.809479	54.431265	-70.987665	154.966186			
43570	8.572071	3.254831	0.954286	-0.247361	-1.100295	-0.663203	55.023973	-71.047600	154.547450			
43571	8.329944	3.103399	0.973868	-0.204999	-0.971904	-0.925575	55.634406	-71.099732	154.074573			
43572	8.281509	2.958965	1.044132	-0.175714	-0.795990	-0.994269	56.271314	-71.150817	153.507662			
43573	8.232990	2.850795	1.050579	-0.184102	-0.682806	-1.065536	56.930301	-71.201594	152.870580			
43574	8.384324	2.707807	1.201547	-0.143262	-0.436442	-0.932276	57.620169	-71.263875	152.139122			
43575	8.586470	2.301118	1.258759	-0.311568	-0.004785	-0.839960	58.395442	-71.342611	151.288249			
43576	9.056779	1.806622	1.115029	-0.758649	0.444856	-0.552083	59.260618	-71.426310	150.358631			
43577	9.525974	1.400307	1.104878	-1.047946	0.892567	-0.219423	60.125388	-71.491982	149.461165			
43578	9.802084	1.187860	1.121474	-1.174831	1.161577	-0.013712	60.972963	-71.526654	148.650487			
43579	9.857223	1.023010	1.167752	-1.201801	1.368529	-0.001585	61.710645	-71.519905	148.008855			
43580	9.953877	1.053320	1.232282	-1.144237	1.425297	0.105318	62.393354	-71.480838	147.473564			
43581	9.744255	1.089785	1.246811	-1.052323	1.397129	-0.084725	62.937130	-71.406804	147.103905			
43582	9.806627	1.115531	1.280507	-1.032853	1.430962	-0.017814	63.335813	-71.288094	146.920187			
43583	9.805949	1.198113	1.483997	-0.836997	1.492103	0.029433	63.641868	-71.136640	146.876633			
43584	9.672862	1.118402	1.475556	-0.867298	1.555487	-0.126589	63.918879	-70.959612	146.911736			
43585	9.572929	1.039506	1.641254	-0.764391	1.716887	-0.227119	64.240217	-70.763128	146.932935			
43586	9.199426	1.014712	1.643223	-0.697836	1.701440	-0.594377	64.634104	-70.559008	146.865194			
43587	9.171694	1.007615	1.694272	-0.673199	1.764554	-0.623628	65.157098	-70.358202	146.627657			
43588	8.993775	0.839326	1.477565	-0.901919	1.790314	-0.882019	65.700984	-70.166602	146.329988			
43589	8.767166	1.075677	1.445568	-0.766387	1.572125	-1.034823	66.156592	-69.972465	146.130198			
43590	8.421936	1.020887	1.609938	-0.577718	1.671260	-1.360696	66.503495	-69.789976	146.021983			
43591	8.408866	1.149483	1.712168	-0.444261	1.646674	-1.324291	66.815490	-69.635171	145.947016			
43592	8.649441	1.237400	1.662873	-0.524323	1.619543	-1.082783	67.190811	-69.515383	145.841290			
43593	8.638247	1.472325	1.593996	-0.469394	1.413426	-1.031473	67.580296	-69.422185	145.743857			
43594	9.033604	1.550153	1.284097	-0.801226	1.277619	-0.681227	68.028582	-69.360057	145.581100			
43595	8.990409	1.770349	1.034038	-0.879488	0.973544	-0.685283	68.489020	-69.304558	145.442832			
43596	8.963421	1.895853	1.015421	-0.819525	0.880116	-0.673651	68.963506	-69.251802	145.255194			
43597	8.931726	1.865744	1.103630	-0.748845	0.972422	-0.703993	69.470226	-69.205596	144.987531			
43598	8.970699	1.847044	1.056710	-0.800075	0.993671	-0.681746	70.005479	-69.159548	144.664432			
43599	9.209846	1.846589	1.081638	-0.839455	1.085654	-0.457599	70.595507	-69.121548	144.267451			
43600	9.319354	1.908274	1.092375	-0.816974	1.096369	-0.335579	71.220165	-69.090710	143.820704			
43601	9.297249	1.897262	1.381431	-0.569748	1.299147	-0.329316	71.780377	-69.071729	143.396437			
43602	9.660438	2.011229	1.491441	-0.508036	1.380461	0.057957	72.387908	-69.075239	142.912276			
43603	9.934533	1.974021	1.321937	-0.718269	1.395395	0.280681	72.955741	-69.104612	142.400976			
43604	10.088247	2.063196	1.284045	-0.717241	1.360199	0.449554	73.488946	-69.161607	141.856817			
43605	10.392593	2.180690	1.303824	-0.688267	1.368749	0.775702	74.097652	-69.260599	141.164536			
43606	10.403755	2.497709	1.466563	-0.345639	1.241639	0.909536	74.814470	-69.399722	140.368077			
43607	10.538411	2.956472	1.380530	-0.151655	0.885132	1.182670	75.612231	-69.570701	139.508923			
43608	11.040391	3.003717	1.306016	-0.260350	0.933185	1.662474	76.234901	-69.754068	138.812246			
43609	11.351857	2.767496	1.137182	-0.549214	1.092350	1.863005	76.630873	-69.944248	138.351523			
43610	11.717380	2.579218	1.591100	-0.329990	1.576291	2.182612	76.838717	-70.148019	138.155812			
43611	12.279602	2.160539	0.630852	-1.421409	1.456724	2.504446	77.336622	-70.385685	137.854408			
43612	13.160165	3.105934	-0.363634	-1.867424	0.324380	3.580441	78.097156	-70.659345	137.559118			
43613	14.377579	4.147078	-1.719207	-2.599729	-1.036953	4.987108	78.685603	-70.928790	137.617161			
43614	14.350931	4.929004	-3.224338	-3.270747	-2.606129	5.125510	78.771978	-71.178866	138.281350			
43615	13.362445	5.357628	-4.026129	-3.343954	-3.728831	4.272097	78.366360	-71.410749	139.474257			
43616	12.324281	5.706106	-3.401074	-2.333774	-3.929144	3.420936	77.624711	-71.623076	141.081447			
43617	11.980102	6.205796	-2.550323	-1.235816	-3.933938	3.284439	76.815929	-71.789412	142.844598			
43618	11.099184	7.239133	-2.551432	-0.328500	-4.941822	2.740256	76.056691	-71.892318	144.593247			
43619	9.684212	8.164618	-2.551233	0.665503	-5.924725	1.650643	75.112940	-71.932170	146.341082			
43620	8.803295	8.596527	-2.059075	1.570374	-6.096480	0.957861	74.103725	-71.918354	147.889921			
43621	8.306672	9.279226	-0.230807	3.477605	-5.460975	0.828838	73.075418	-71.862219	149.185983			
43622	7.401021	9.423107	1.203320	4.823393	-4.776619	0.133985	71.776219	-71.792730	150.345415			
43623	6.512285	8.514388	1.549682	4.683420	-4.106488	-0.952255	70.213004	-71.766395	151.401421			
43624	5.368601	7.239218	1.547558	4.134605	-3.458485	-2.425830	68.574332	-71.823241	152.307760			
43625	4.594108	5.635492	1.664395	3.398096	-2.420249	-3.629717	66.992995	-71.977884	153.030661			
43626	4.594341	4.091941	1.718031	2.478404	-1.327314	-4.076948	65.651592	-72.224063	153.473390			
43627	5.496400	2.864364	1.575427	1.392283	-0.444627	-3.586903	64.468524	-72.536771	153.737568			
43628	6.936878	2.080260	1.233540	0.297745	0.067193	-2.472670	63.276222	-72.846051	154.061722			
43629	8.414701	1.820702	1.138948	-0.302315	0.336155	-1.140055	61.880551	-73.089293	154.691522			
43630	9.285077	1.575241	0.951755	-0.810756	0.456997	-0.392851	60.406019	-73.254585	155.511429			
43631	9.871536	1.492359	0.867887	-1.081659	0.479200	0.138576	59.023392	-73.345493	156.368486			
43632	10.377261	1.689268	0.695712	-1.255772	0.223948	0.646656	57.907574	-73.390990	157.051758			
43633	10.769104	1.792156	0.404329	-1.552641	-0.026930	1.001070	57.019439	-73.388062	157.599923			
43634	10.679026	2.044648	0.531700	-1.314181	-0.199919	0.991836	56.266367	-73.329243	158.116913			
43635	10.430699	2.214344	0.966931	-0.836954	-0.142246	0.860498	55.565252	-73.227958	158.662444			
43636	9.994283	2.290937	1.535471	-0.254568	0.048572	0.551889	54.871949	-73.104194	159.268025			
43637	9.297572	2.367915	2.006986	0.320869	0.157651	-0.017183	54.166824	-72.968573	159.947163			
43638	8.713251	2.556818	2.476263	0.923856	0.187465	-0.447799	53.420618	-72.819422	160.708977			
43639	8.193665	2.747488	2.902700	1.475614	0.198449	-0.818605	52.588812	-72.658151	161.574913			
43640	7.858826	2.523466	2.966556	1.468999	0.359228	-1.173108	51.759726	-72.519556	162.437350			
43641	7.770951	2.487256	3.076302	1.534237	0.417673	-1.238930	51.035456	-72.413791	163.216750			
43642	7.991757	2.492719	3.125795	1.489636	0.437192	-1.012563	50.398042	-72.333592	163.896040			
43643	8.533470	2.537105	3.068604	1.289185	0.388581	-0.492803	49.744635	-72.262791	164.546147			
43644	8.735769	2.635133	3.277698	1.423850	0.411799	-0.231259	48.894443	-72.155240	165.321669			
43645	9.086301	2.560343	2.932774	0.972052	0.259578	0.021172	47.837105	-71.998566	166.212783			
43646	8.532673	2.471500	2.357003	0.590360	-0.083525	-0.641296	46.728823	-71.787426	167.137273			
43647	8.193013	2.280200	2.065503	0.316752	-0.157779	-1.068229	45.745700	-71.559988	167.959163			
43648	7.881981	2.123348	1.902979	0.162914	-0.173895	-1.434226	45.017864	-71.373849	168.553482			
43649	7.877799	1.648646	2.105008	0.053359	0.306530	-1.499329	44.489778	-71.266587	168.940429			
43650	7.921192	1.226730	2.347962	0.003789	0.776489	-1.496431	44.170999	-71.238073	169.143333			
43651	7.928249	1.309728	2.664412	0.295329	0.871840	-1.396971	43.958418	-71.263169	169.284706			
43652	7.788701	1.346071	2.957336	0.596816	0.985756	-1.452443	43.787628	-71.318188	169.405557			
43653	7.589027	1.509950	3.039167	0.818425	0.874468	-1.586188	43.668757	-71.406702	169.503863			
43654	7.382501	1.706001	2.876833	0.868024	0.603202	-1.777105	43.621487	-71.534104	169.554617			
43655	7.308738	1.730022	2.819773	0.878498	0.542840	-1.856856	43.641037	-71.711288	169.522723			
43656	7.188076	1.840989	2.859327	1.029799	0.463178	-1.941324	43.725186	-71.903377	169.444894			
43657	7.150011	1.868971	3.108855	1.283000	0.575066	-1.919409	43.836554	-72.099875	169.334358			
43658	7.029831	1.872471	3.166428	1.396603	0.595590	-2.025157	43.947705	-72.321123	169.155279			
43659	6.951328	1.644714	3.205848	1.369968	0.798076	-2.145247	44.093913	-72.592717	168.834844			
43660	7.029576	1.455226	3.448172	1.488566	1.085860	-2.064952	44.220631	-72.899859	168.436954			
43661	7.083178	1.221114	3.421023	1.381127	1.257612	-2.074690	44.313172	-73.223873	167.989546			
43662	7.027403	0.865923	3.203660	1.093494	1.421588	-2.250892	44.451326	-73.565839	167.446582			
43663	7.053137	0.674120	3.104611	0.966596	1.520405	-2.289819	44.659658	-73.925245	166.805257			
43664	7.182423	0.452191	2.897729	0.712418	1.599157	-2.254689	44.992898	-74.300825	166.031882			
43665	7.587870	0.309929	2.813166	0.530908	1.699058	-1.912262	45.423245	-74.671818	165.191205			
43666	8.250452	0.126842	2.796571	0.324152	1.891475	-1.314231	45.852079	-75.003853	164.394896			
43667	8.723136	-0.169602	2.843187	0.165879	2.204293	-0.906575	46.279394	-75.290927	163.640946			
43668	9.151880	-0.396584	3.114387	0.243841	2.572349	-0.488695	46.814235	-75.552054	162.785804			
43669	9.365800	-0.989318	3.217945	0.071714	3.162102	-0.376186	47.581668	-75.847138	161.621186			
43670	9.891527	-1.858330	3.488778	-0.134951	4.107276	0.014746	48.611151	-76.185807	160.179022			
43671	10.722688	-2.593634	3.709329	-0.367002	4.942851	0.717964	49.599808	-76.524426	158.814368			
43672	11.560676	-3.255405	3.562801	-0.874540	5.537850	1.390304	50.426451	-76.845953	157.742694			
43673	12.075926	-3.473744	3.747070	-0.836291	5.871091	1.882007	51.090370	-77.156319	157.057408			
43674	12.801802	-2.643555	4.076876	-0.271103	5.359721	2.784743	51.209497	-77.397863	157.187913			
43675	13.815118	-1.648693	3.305415	-0.682250	4.172132	3.848535	50.555724	-77.550712	158.375239			
43676	15.690534	-0.855745	2.499977	-1.426723	3.161439	5.716108	49.103710	-77.570075	160.626044			
43677	17.339588	0.181720	2.149032	-1.659389	2.089702	7.455476	47.161035	-77.417606	163.544228			
43678	18.037836	2.032525	2.312057	-0.888122	0.511712	8.457146	45.387297	-77.073594	166.402630			
43679	19.501883	5.303344	2.201935	0.223967	-2.310692	10.384000	44.346916	-76.587533	168.553616			
43680	20.625783	9.554495	0.148786	0.372321	-6.952278	11.826604	43.802913	-75.899136	170.082948			
43681	19.845558	11.875509	-2.087430	-0.155484	-10.137416	11.078400	43.701637	-75.134095	170.820803			
43682	15.739659	11.961133	-1.496949	1.225273	-10.005181	7.258874	43.523314	-74.296833	171.312063			
43683	11.547497	10.975216	0.244224	2.994644	-8.352979	3.420454	43.076370	-73.437090	171.741593			
43684	7.941337	9.682241	1.590095	4.189129	-6.688277	0.038936	42.254035	-72.621796	172.309042			
43685	6.129600	8.601304	2.975083	5.091191	-5.133878	-1.558789	41.308496	-72.021571	172.820531			
43686	4.876618	7.453628	4.240151	5.771360	-3.593427	-2.664640	40.502417	-71.763988	173.058486			
43687	3.831389	5.592303	4.228698	5.076497	-2.172883	-4.038387	39.999152	-71.881048	172.893884			
43688	3.269576	3.459043	3.498768	3.576653	-0.875784	-5.193521	39.683307	-72.289400	172.509378			
43689	3.180053	1.617669	2.915185	2.237369	0.313419	-5.797274	39.514067	-72.869276	172.024524			
43690	3.667999	-0.233125	2.323558	0.744993	1.568203	-5.826095	39.582013	-73.498915	171.429769			
43691	4.085086	-1.356577	1.926732	-0.193157	2.333932	-5.719311	40.059025	-74.083104	170.683373			
43692	4.640011	-2.048321	1.340402	-1.119568	2.655971	-5.429283	40.912895	-74.548001	169.800247			
43693	5.545185	-1.709770	0.245671	-2.068942	1.859602	-4.714255	42.096236	-74.859381	168.788431			
43694	6.765196	-0.773592	-1.121005	-3.039166	0.432567	-3.632131	43.405797	-74.949628	167.788448			
43695	8.178242	0.963334	-2.282945	-3.494831	-1.553080	-2.170859	44.764108	-74.798147	166.920794			
43696	9.820539	3.178386	-2.915536	-3.327010	-3.631127	-0.284244	46.212463	-74.471363	166.077716			
43697	12.345515	5.216234	-3.058712	-3.089777	-5.199043	2.532318	47.350219	-74.010532	165.329241			
43698	13.222881	7.050763	-2.248485	-1.805820	-6.159321	3.913702	47.806264	-73.393101	165.039616			
43699	11.465781	7.669168	-0.591329	0.214252	-5.842610	2.695157	47.863843	-72.787756	164.859490			
43700	10.633659	6.844352	0.256645	0.601665	-4.725123	1.904652	47.937226	-72.397298	164.496259			
43701	9.859766	5.970514	0.318253	0.361353	-4.010959	0.992159	47.896724	-72.215221	164.260242			
43702	8.420643	6.143030	0.644361	1.100845	-4.099233	-0.271008	47.816769	-72.206243	164.113753			
43703	8.269470	6.662441	0.971848	1.663523	-4.379944	-0.233256	47.926258	-72.351759	163.755891			
43704	8.110756	6.180787	0.607750	1.187937	-4.189667	-0.571946	48.193734	-72.610068	163.203533			
43705	8.505063	5.596955	0.330401	0.586877	-3.815347	-0.385610	48.467864	-72.907559	162.622365			
43706	8.376451	5.212944	0.297181	0.438325	-3.524608	-0.603292	48.706585	-73.207559	162.055947			
43707	8.241833	4.727049	0.249509	0.227530	-3.156678	-0.850621	48.869548	-73.503009	161.476458			
43708	8.150097	3.919721	0.106625	-0.231377	-2.557565	-1.140608	48.977032	-73.775447	160.855377			
43709	8.145738	3.205006	0.192931	-0.474671	-1.905284	-1.279992	49.162984	-74.042744	160.041773			
