// General information: 
//  MT Manager version: 2022.0.0 
//  XDA version: 2022.0.0 build 7085 rev 119802 built on 2022-11-08
// Device information: 
//  DeviceId: 00B4938D
//  ProductCode: MTW2-3A7G6
//  Firmware Version: 4.6.0
//  Hardware Version: 2.0.0
// Device settings: 
//  Filter Profile: human(46.1)
//  Option Flags: Orientation Smoother Disabled, Position/Velocity Smoother Disabled, Continuous Zero Rotation Update Disabled, AHS Disabled, ICC Disabled
// Coordinate system: ENU
PacketCounter	Acc_X	Acc_Y	Acc_Z	FreeAcc_E	FreeAcc_N	FreeAcc_U	Roll	Pitch	Yaw	Vel_E	Vel_N	Vel_U
42709	9.475115	-2.236380	1.273956	0.209059	0.127402	0.002721	-59.472193	-73.374888	40.094337			
42710	9.465750	-2.194941	1.331980	0.172662	0.185234	-0.008187	-59.391594	-73.339590	40.087046			
42711	9.400905	-2.178363	1.358168	0.147292	0.197782	-0.070712	-59.276282	-73.302960	40.049677			
42712	9.313238	-2.118761	1.389874	0.123682	0.247900	-0.164862	-59.184824	-73.266264	40.035811			
42713	9.310075	-2.107199	1.499379	0.033363	0.295481	-0.154660	-59.062792	-73.225951	39.986811			
42714	9.347594	-2.118491	1.519221	0.026717	0.299355	-0.113037	-58.989081	-73.193638	39.979125			
42715	9.466403	-2.130157	1.434610	0.135200	0.282594	-0.009101	-58.911195	-73.158453	39.961914			
42716	9.547394	-2.102243	1.308724	0.284513	0.282599	0.042469	-58.854470	-73.120873	39.949240			
42717	9.450031	-2.084449	1.164146	0.410275	0.234472	-0.077188	-58.797485	-73.072207	39.919652			
42718	9.387800	-2.054148	1.058537	0.510493	0.219599	-0.160642	-58.781106	-73.020033	39.921540			
42719	9.410414	-2.112128	1.135565	0.435231	0.201171	-0.113379	-58.745293	-72.963866	39.908643			
42720	9.512576	-2.155383	1.212706	0.381722	0.211114	0.006434	-58.691692	-72.911392	39.877272			
42721	9.561288	-2.277194	1.262629	0.321544	0.126681	0.090778	-58.543378	-72.855046	39.742817			
42722	9.699623	-2.522324	1.372327	0.192916	-0.037337	0.301137	-58.302302	-72.794111	39.497153			
42723	9.789995	-2.882933	1.330615	0.166779	-0.372779	0.471233	-57.909706	-72.721862	39.063778			
42724	9.694921	-3.251349	1.251066	0.134274	-0.765710	0.459777	-57.460742	-72.635801	38.524830			
42725	9.321730	-3.566858	1.129476	0.093736	-1.177316	0.162177	-56.949480	-72.534986	37.877960			
42726	8.941232	-3.749726	1.026862	0.069178	-1.461316	-0.173173	-56.447755	-72.440770	37.227535			
42727	8.600639	-4.034877	1.298470	-0.324451	-1.705354	-0.382752	-55.863376	-72.363004	36.534283			
42728	8.350298	-4.197887	1.691392	-0.773201	-1.782886	-0.515703	-55.153134	-72.315994	35.778956			
42729	8.311660	-4.314429	2.000387	-1.074386	-1.818737	-0.472599	-54.203651	-72.284603	34.856506			
42730	8.315497	-4.475311	2.259084	-1.327371	-1.918642	-0.387405	-53.007402	-72.279381	33.736605			
42731	8.624017	-4.700068	2.421134	-1.427011	-2.076148	-0.015804	-51.549575	-72.298314	32.407137			
42732	9.204972	-4.760606	1.953656	-0.823952	-2.271479	0.452420	-49.933253	-72.339839	30.969927			
42733	9.881147	-4.559394	2.068170	-0.645056	-2.026495	1.058318	-48.185824	-72.367495	29.507774			
42734	10.169216	-3.700974	2.270540	-0.455301	-1.207982	1.169029	-46.509981	-72.390872	28.265185			
42735	10.332644	-2.095645	2.547316	-0.172328	0.320018	1.027579	-45.044272	-72.439696	27.344343			
42736	10.395764	-0.309321	3.292165	-0.339852	2.163403	0.874203	-43.734690	-72.524664	26.650953			
42737	10.436783	1.031795	4.120098	-0.749091	3.609226	0.835223	-42.423910	-72.608871	25.974762			
42738	10.437836	1.706115	4.505595	-0.951560	4.282132	0.813548	-41.079341	-72.660053	25.205733			
42739	10.633209	1.883138	4.522111	-0.878569	4.402467	0.999652	-39.762790	-72.670784	24.358737			
42740	11.164496	1.741128	4.481457	-0.726334	4.250833	1.552319	-38.562505	-72.647674	23.499281			
42741	11.171265	1.673863	4.726570	-0.946889	4.193135	1.652917	-37.468093	-72.559701	22.603071			
42742	11.162351	1.664198	4.366303	-0.579536	4.037364	1.580107	-36.562966	-72.432201	21.764159			
42743	11.114850	1.354114	3.916587	-0.195321	3.579598	1.494885	-35.819761	-72.251060	20.957245			
42744	10.820555	0.968908	3.769068	-0.173570	3.116138	1.254755	-35.215928	-72.039024	20.221905			
42745	10.299472	0.572172	3.269304	0.109905	2.530028	0.707835	-34.719142	-71.779039	19.537593			
42746	9.561817	0.379406	2.935149	0.220001	2.169804	-0.043828	-34.342822	-71.483127	18.931096			
42747	8.855279	0.231496	2.782717	0.176712	1.910899	-0.728085	-34.017523	-71.167757	18.340664			
42748	8.520225	0.021007	2.654045	0.200546	1.640607	-1.043049	-33.773821	-70.863064	17.808929			
42749	8.256218	0.027063	2.701043	0.132180	1.634693	-1.282062	-33.529841	-70.567731	17.291542			
42750	8.021028	-0.060780	2.848997	-0.050294	1.573019	-1.447266	-33.320171	-70.308637	16.839080			
42751	7.883650	-0.141890	3.145418	-0.341945	1.570607	-1.477109	-33.068768	-70.084677	16.409072			
42752	7.768427	-0.346931	3.573333	-0.783283	1.492401	-1.422418	-32.812450	-69.873187	16.031107			
42753	7.336248	-0.154370	3.230626	-0.529984	1.527543	-1.959856	-32.560469	-69.665176	15.692786			
42754	7.103294	0.018260	3.150086	-0.460092	1.643633	-2.231996	-32.394335	-69.482481	15.443229			
42755	7.105397	0.079473	3.386162	-0.631573	1.774137	-2.169875	-32.285220	-69.336765	15.267310			
42756	7.192029	0.189896	3.595413	-0.745200	1.953137	-2.046204	-32.263191	-69.248221	15.210858			
42757	7.514556	0.153670	3.676070	-0.707251	1.975965	-1.713242	-32.285337	-69.203403	15.228107			
42758	7.670289	0.243117	3.714220	-0.663084	2.091123	-1.574035	-32.384004	-69.197925	15.333677			
42759	7.945748	0.229269	3.613860	-0.485791	2.077876	-1.345463	-32.526448	-69.230330	15.504703			
42760	8.252046	0.263321	3.621366	-0.390510	2.148067	-1.065506	-32.714306	-69.293044	15.735056			
42761	8.296201	0.170586	3.660870	-0.449272	2.082082	-0.996732	-32.875130	-69.361188	15.958470			
42762	8.328220	0.152244	3.466596	-0.285258	2.014461	-1.022906	-33.081507	-69.455364	16.232416			
42763	8.720913	-0.075525	3.406222	-0.176602	1.824392	-0.631035	-33.277034	-69.554659	16.498758			
42764	8.410678	0.020930	3.508166	-0.366571	1.921886	-0.912174	-33.438572	-69.613174	16.749473			
42765	8.137865	0.158847	3.174942	-0.135330	1.931179	-1.293149	-33.688384	-69.685851	17.067723			
42766	8.152449	0.351330	2.951233	0.099432	2.059696	-1.383967	-34.085413	-69.811539	17.515319			
42767	8.330150	0.584746	2.983326	0.157197	2.323312	-1.256348	-34.550993	-69.979396	18.054358			
42768	8.432144	0.773416	3.151589	0.043533	2.580343	-1.154080	-35.116737	-70.192296	18.718691			
42769	8.677925	0.730703	3.112341	0.099053	2.572590	-0.930195	-35.732265	-70.426125	19.464573			
42770	8.895853	0.526608	2.941438	0.218865	2.374493	-0.736391	-36.461961	-70.670380	20.325140			
42771	8.951080	0.595578	3.068921	0.081765	2.506154	-0.668999	-37.150415	-70.880695	21.167828			
42772	9.224672	0.533919	2.991217	0.169051	2.482241	-0.424576	-37.907197	-71.072875	22.063840			
42773	9.614470	0.564649	3.101092	0.142362	2.617505	-0.040187	-38.663737	-71.234851	22.940519			
42774	9.997319	0.531553	3.550561	-0.214474	2.793004	0.433692	-39.411397	-71.356016	23.793106			
42775	10.341774	0.556843	3.803343	-0.380835	2.963120	0.808163	-40.090556	-71.432255	24.549804			
42776	10.736630	0.495698	3.986171	-0.481169	3.040883	1.229589	-40.717606	-71.464984	25.206251			
42777	11.177985	0.515387	4.028295	-0.406812	3.161620	1.645004	-41.227915	-71.450030	25.706272			
42778	11.495741	0.381466	4.080700	-0.401877	3.123756	1.978422	-41.618103	-71.386431	26.058587			
42779	11.316154	0.533407	3.925699	-0.264233	3.222763	1.732653	-41.821412	-71.279174	26.210228			
42780	10.915324	0.622488	3.895177	-0.310274	3.262224	1.321303	-41.933368	-71.146299	26.231075			
42781	10.904453	0.230655	4.548880	-0.981967	3.092933	1.550499	-41.891999	-70.996322	26.047208			
42782	11.563092	-0.118460	5.043783	-1.291155	3.012408	2.369965	-41.723342	-70.841905	25.682667			
42783	12.963068	-0.884461	4.973518	-0.942521	2.470610	3.846254	-41.396773	-70.659184	25.034786			
42784	14.518942	-1.666257	4.154519	0.153534	1.708023	5.283496	-41.149458	-70.451568	24.314495			
42785	14.800384	-2.168330	2.617818	1.592601	0.803882	5.267863	-41.079726	-70.212179	23.707363			
42786	13.671223	-3.192925	1.833408	1.750188	-0.543063	4.226547	-41.263056	-69.919437	23.351497			
42787	11.371868	-4.000051	2.049372	0.659972	-1.510717	2.303484	-41.477685	-69.619204	23.214622			
42788	9.540110	-3.944508	2.819986	-0.569854	-1.420486	0.778934	-41.650535	-69.353967	23.250096			
42789	7.856866	-3.338641	4.204186	-2.170063	-0.603912	-0.567251	-41.776969	-69.189023	23.379785			
42790	7.089535	-3.102430	5.240559	-3.287331	-0.131762	-1.064767	-42.097815	-69.218450	23.782609			
42791	7.787200	-3.222888	5.736677	-3.568267	0.025567	-0.262629	-42.580253	-69.409656	24.414613			
42792	9.423203	-3.484698	5.468359	-2.930242	-0.063223	1.244076	-43.340677	-69.712768	25.370340			
42793	10.915105	-3.536084	4.621256	-1.789319	-0.150701	2.425539	-44.341418	-70.042312	26.625599			
42794	11.695200	-3.695361	3.639005	-0.787945	-0.463303	2.948169	-45.446797	-70.309757	28.023086			
42795	11.524821	-3.816749	2.831285	-0.200733	-0.819691	2.624861	-46.377479	-70.459925	29.234893			
42796	10.656920	-3.898575	2.267891	0.001730	-1.172027	1.699841	-47.151892	-70.497253	30.265922			
42797	9.834437	-3.630750	1.959244	0.098220	-1.116471	0.793011	-47.835155	-70.482859	31.197996			
42798	9.461602	-3.465242	1.828213	0.137745	-1.024611	0.375698	-48.650337	-70.464257	32.218195			
42799	9.503923	-3.362043	1.640673	0.329989	-0.932569	0.352984	-49.525212	-70.440328	33.262727			
42800	9.145581	-3.202670	1.020275	0.825368	-0.986759	-0.154295	-50.404066	-70.380522	34.253759			
42801	9.027369	-3.099870	0.801445	1.006921	-0.929707	-0.332897	-51.246917	-70.290442	35.172585			
42802	8.982603	-2.888782	0.886346	0.954223	-0.667803	-0.407309	-52.015073	-70.187534	35.960998			
42803	8.767378	-2.720460	1.412492	0.437697	-0.355454	-0.542040	-52.637652	-70.074773	36.514505			
42804	8.273180	-2.568182	1.743543	0.022461	-0.177669	-0.978163	-53.265036	-69.986174	36.956994			
42805	7.993985	-2.647449	1.752088	-0.095280	-0.274510	-1.216290	-53.948927	-69.967323	37.374343			
42806	8.009522	-2.537989	1.957769	-0.282106	-0.076862	-1.190562	-54.743045	-70.027785	37.852627			
42807	7.963052	-2.601690	1.857482	-0.254232	-0.151591	-1.237059	-55.582376	-70.152178	38.333295			
42808	8.017664	-2.825713	1.706291	-0.205408	-0.372578	-1.152564	-56.516247	-70.340012	38.904539			
42809	7.895745	-3.177820	1.150857	0.130360	-0.886272	-1.270847	-57.381934	-70.554124	39.454806			
42810	7.317610	-3.535537	0.763145	0.193319	-1.453385	-1.782747	-58.104258	-70.730887	39.935092			
42811	7.635539	-4.359236	0.722184	0.040493	-2.150167	-1.256933	-58.714332	-70.910689	40.392952			
42812	7.493033	-4.234275	0.418285	0.282383	-2.164211	-1.476864	-59.135687	-71.085254	40.759667			
42813	6.947873	-3.942566	0.628308	0.006833	-1.944869	-2.039083	-59.430979	-71.242705	41.048712			
42814	7.169932	-3.712808	0.809201	-0.066975	-1.629957	-1.863701	-59.764051	-71.400001	41.463809			
42815	7.657895	-3.310972	1.098574	-0.130311	-1.064494	-1.466277	-60.121844	-71.543023	41.915637			
42816	8.217242	-3.142163	1.319662	-0.185744	-0.716947	-0.947634	-60.627555	-71.686926	42.497809			
42817	8.405014	-2.946304	1.346088	-0.143649	-0.484376	-0.819269	-61.163719	-71.814846	43.114693			
42818	8.842966	-2.967725	1.194613	0.058180	-0.451585	-0.419865	-61.786933	-71.925551	43.820730			
42819	9.380169	-2.900664	0.897169	0.443148	-0.360118	0.030085	-62.343078	-72.010476	44.460737			
42820	9.551275	-2.601397	0.585035	0.829820	-0.135981	0.068064	-62.746756	-72.052969	44.939351			
42821	9.537970	-2.100427	0.617685	0.919426	0.342632	-0.075981	-62.971576	-72.065277	45.234860			
42822	9.233060	-1.633941	0.684953	0.910727	0.734822	-0.484293	-63.077016	-72.057704	45.398285			
42823	8.969458	-1.212618	0.875965	0.787952	1.129494	-0.824233	-63.074759	-72.052569	45.462639			
42824	8.914269	-0.954408	1.006319	0.722541	1.398281	-0.929529	-63.073484	-72.055457	45.516565			
42825	9.129803	-0.811351	1.153662	0.669296	1.623601	-0.743041	-63.054395	-72.059042	45.501841			
42826	9.309375	-0.790571	1.274119	0.603780	1.718903	-0.561003	-62.957501	-72.048891	45.340065			
42827	9.174282	-0.834876	1.101090	0.734797	1.588120	-0.701441	-62.753834	-72.029836	45.014495			
42828	9.198272	-0.798366	1.158234	0.712097	1.639473	-0.680759	-62.512844	-71.986450	44.585283			
42829	9.222428	-0.730458	1.424900	0.508467	1.787265	-0.638583	-62.228350	-71.928311	44.084438			
42830	8.929578	-0.580687	1.513332	0.427055	1.886740	-0.945753	-61.961796	-71.855139	43.561717			
42831	8.666328	-0.601046	1.522765	0.378811	1.811796	-1.189512	-61.741027	-71.776930	43.058547			
42832	8.438281	-0.728420	1.392757	0.433901	1.604194	-1.391689	-61.644658	-71.683294	42.663856			
42833	8.469774	-0.883606	1.377898	0.429607	1.469304	-1.323107	-61.655864	-71.583848	42.387340			
42834	8.455904	-1.312587	1.151239	0.524766	1.007596	-1.253489	-61.794435	-71.463084	42.216514			
42835	8.810008	-1.566571	0.919102	0.759191	0.786554	-0.884079	-62.035483	-71.327471	42.181501			
42836	8.918544	-1.262053	0.490806	1.283572	0.955518	-0.934992	-62.367225	-71.175939	42.225550			
42837	8.588013	-1.249966	0.265396	1.427684	0.835308	-1.289147	-62.711082	-71.000334	42.263960			
42838	8.481789	-1.739467	0.101352	1.410207	0.335361	-1.275971	-63.122257	-70.800880	42.399382			
42839	8.678793	-2.132018	0.062923	1.379148	0.040264	-0.982787	-63.502123	-70.597009	42.584989			
42840	8.939005	-2.582759	0.054689	1.318700	-0.276966	-0.605970	-63.789968	-70.376796	42.776575			
42841	9.262233	-2.849500	0.287523	1.120013	-0.324604	-0.188168	-63.869082	-70.155448	42.865774			
42842	9.531150	-3.049606	0.472331	0.983628	-0.346850	0.151150	-63.716770	-69.929323	42.803438			
42843	9.999035	-2.986443	0.634387	1.014753	-0.106231	0.592157	-63.276052	-69.720231	42.518090			
42844	10.256838	-2.636010	1.032307	0.878828	0.418539	0.783025	-62.571282	-69.512350	41.957870			
42845	10.209161	-2.127759	1.329627	0.811294	0.961799	0.624681	-61.725429	-69.333701	41.227084			
42846	10.130212	-1.578534	1.480252	0.875977	1.473685	0.403221	-60.939772	-69.201788	40.499754			
42847	10.008515	-1.283913	1.607919	0.857949	1.735603	0.220044	-60.339859	-69.142005	39.941485			
42848	9.970992	-1.135649	1.462817	1.045642	1.790683	0.114562	-60.097898	-69.145954	39.712872			
42849	9.945024	-1.660462	1.070548	1.234571	1.159928	0.184167	-60.197912	-69.209326	39.856048			
42850	10.152122	-2.209192	1.479749	0.727800	0.866951	0.620643	-60.563782	-69.311721	40.338829			
42851	10.854992	-2.654401	1.980547	0.286551	0.815641	1.503306	-60.985661	-69.452259	41.047436			
42852	11.948590	-2.572547	2.524922	0.053957	1.340667	2.595437	-61.306981	-69.598652	41.771700			
42853	12.915702	-3.045984	2.331334	0.299830	1.058478	3.615569	-61.421418	-69.750890	42.293127			
42854	13.321388	-3.469004	2.400182	0.181546	0.773106	4.138063	-61.410367	-69.910928	42.643475			
42855	13.315227	-3.209482	2.220122	0.384529	0.916560	4.026996	-61.385915	-70.110978	42.887124			
42856	12.892298	-3.128939	1.711743	0.727991	0.688993	3.526228	-61.482700	-70.368383	43.155624			
42857	12.809895	-2.933495	1.104102	1.270623	0.610036	3.299551	-61.627006	-70.680757	43.438073			
42858	12.627632	-2.783245	0.552864	1.719574	0.484053	3.005951	-61.743465	-71.020904	43.635522			
42859	12.372516	-3.421286	0.057505	1.893188	-0.375824	2.878324	-61.514548	-71.352189	43.368915			
42860	11.566303	-4.411455	0.235959	1.233541	-1.475328	2.418305	-60.827061	-71.632182	42.455350			
42861	9.977049	-5.569672	0.621927	0.160192	-2.828774	1.274305	-59.824882	-71.863027	41.013939			
42862	8.422687	-6.093276	0.554540	-0.322403	-3.716200	-0.093497	-58.968757	-72.100699	39.629108			
42863	7.705487	-6.451372	-0.384273	0.222351	-4.564054	-0.853787	-58.349845	-72.332612	38.480082			
42864	6.842640	-7.023750	-0.486197	-0.116418	-5.328070	-1.567146	-57.868617	-72.547128	37.632937			
42865	7.232318	-8.064185	0.474509	-1.272001	-5.898008	-0.803918	-57.422731	-72.789098	37.103093			
42866	8.873694	-8.686732	1.425343	-1.961864	-5.887037	1.037502	-56.622456	-73.058017	36.631723			
42867	9.068230	-8.133466	2.253387	-2.465133	-5.145851	1.183022	-55.166570	-73.273583	35.794323			
42868	8.755023	-7.067384	2.573037	-2.439528	-4.222567	0.648460	-53.445258	-73.464188	34.872373			
42869	8.038828	-5.061613	3.204985	-2.544426	-2.390168	-0.414491	-51.698473	-73.679979	34.028162			
42870	8.036351	-3.289066	3.430483	-2.237089	-0.774138	-0.781388	-50.442860	-73.977865	33.607133			
42871	8.588585	-2.018829	3.121476	-1.503914	0.322263	-0.581390	-49.842826	-74.367101	33.722432			
42872	9.562866	-1.415490	2.641199	-0.739430	0.837194	0.146209	-49.933402	-74.818836	34.418126			
42873	10.828156	-1.155600	1.931010	0.182130	1.033968	1.196856	-50.473297	-75.279558	35.486578			
42874	11.349573	-1.260769	1.542612	0.538069	0.884571	1.663779	-51.147037	-75.684218	36.610928			
42875	11.556962	-1.554439	1.189730	0.765497	0.527609	1.871931	-51.657927	-76.003762	37.552915			
42876	11.648231	-1.708801	1.217012	0.664687	0.386430	1.997948	-51.826278	-76.219009	38.128609			
42877	11.551766	-1.821438	1.864975	-0.020157	0.401736	2.022734	-51.330110	-76.300230	38.029510			
42878	11.050543	-1.564661	2.556373	-0.702058	0.707209	1.593644	-50.135508	-76.229205	37.176149			
42879	9.982096	-1.336732	2.904376	-1.132719	0.814368	0.575654	-48.394963	-76.006214	35.624970			
42880	8.898885	-0.947958	3.416898	-1.675046	1.119534	-0.447646	-46.421071	-75.662930	33.680690			
42881	7.719388	-0.670018	3.264327	-1.623072	1.161925	-1.645162	-44.404104	-75.238610	31.538273			
42882	6.722726	-0.321329	3.201144	-1.620186	1.330467	-2.660776	-42.531464	-74.815348	29.429157			
42883	6.132118	-0.448011	3.130609	-1.637126	1.100579	-3.201153	-40.889135	-74.425602	27.500234			
42884	5.952993	-0.367125	2.780636	-1.268525	1.057347	-3.442646	-39.533722	-74.112273	25.895517			
42885	6.163751	-0.508676	2.659168	-1.084251	0.900245	-3.229714	-38.412986	-73.907995	24.568436			
42886	6.291390	-1.270419	2.404314	-0.945737	0.101179	-3.025084	-37.532460	-73.809473	23.521668			
42887	6.813325	-1.847220	2.566981	-1.074024	-0.375186	-2.387820	-36.721961	-73.790624	22.667857			
42888	7.263322	-2.149540	2.624664	-1.067729	-0.630518	-1.892616	-35.870039	-73.811464	21.871133			
42889	7.216076	-2.269239	2.424000	-0.909771	-0.834213	-1.965823	-35.063086	-73.870021	21.188057			
42890	7.201609	-2.149057	1.883792	-0.378518	-0.886471	-2.124962	-34.421392	-73.987136	20.730921			
42891	6.925618	-1.847544	1.496999	-0.027499	-0.745206	-2.528289	-33.935481	-74.155857	20.494906			
42892	6.807725	-1.299819	1.443810	0.090530	-0.260980	-2.738590	-33.713915	-74.409472	20.608053			
42893	6.960092	-0.721744	1.655228	0.018324	0.347261	-2.630590	-33.724456	-74.702994	20.954360			
42894	7.164294	-0.336082	2.135109	-0.349598	0.841619	-2.385169	-34.037258	-75.012763	21.590112			
42895	7.478407	-0.113323	2.765324	-0.875852	1.226004	-1.982232	-34.591566	-75.289131	22.401513			
42896	7.687059	0.026496	3.155568	-1.218972	1.471749	-1.725842	-35.335757	-75.521782	23.349705			
42897	7.899699	0.340783	2.880121	-0.893277	1.747405	-1.629478	-36.199283	-75.734795	24.375681			
42898	8.303077	0.478865	2.529730	-0.486529	1.863016	-1.335529	-37.140606	-75.918953	25.414608			
42899	8.628702	0.601014	2.415055	-0.321238	2.010400	-1.066079	-38.045853	-76.056664	26.337406			
42900	8.810949	0.693012	2.435679	-0.314662	2.145153	-0.905115	-38.870774	-76.140847	27.118291			
42901	8.645881	0.619348	2.085475	-0.050014	2.000426	-1.124777	-39.598067	-76.212802	27.771718			
42902	8.573043	0.614283	2.034353	-0.037596	1.993209	-1.208116	-40.252766	-76.299646	28.340024			
42903	8.607844	0.312271	2.224592	-0.289633	1.756777	-1.096547	-40.740111	-76.395116	28.745054			
42904	8.707544	-0.113152	2.661072	-0.785411	1.457053	-0.858607	-40.975372	-76.473928	28.874428			
42905	8.807448	-0.335363	2.905739	-1.049586	1.306025	-0.684731	-40.891467	-76.521579	28.646143			
42906	9.115016	-0.482981	3.180828	-1.276771	1.254367	-0.313694	-40.616305	-76.541037	28.129407			
42907	9.787400	-0.720283	3.334848	-1.324743	1.126793	0.405365	-40.268204	-76.562817	27.452069			
42908	10.936720	-1.236484	3.548159	-1.389362	0.795683	1.640117	-40.006519	-76.576611	26.827134			
42909	11.762186	-1.442715	3.621757	-1.317695	0.702045	2.488465	-39.846679	-76.511306	26.317211			
42910	12.024678	-1.374815	2.832499	-0.474918	0.619427	2.592825	-40.084628	-76.390691	26.209364			
42911	11.758035	-0.865783	1.601735	0.770732	0.805155	2.033160	-40.746174	-76.272443	26.568237			
42912	11.300390	0.133329	1.558557	0.949976	1.745086	1.421091	-41.604779	-76.176975	27.227223			
42913	10.687821	1.212089	2.615841	0.066979	3.024221	0.835824	-42.342575	-76.109249	27.891700			
42914	10.472276	1.661039	4.514083	-1.682207	3.952067	0.881043	-42.866296	-76.104004	28.390799			
42915	11.311821	0.919633	5.969297	-3.069293	3.727291	2.066801	-43.026226	-76.163857	28.508208			
42916	13.279316	0.184996	5.611931	-2.499237	3.154171	4.031923	-43.000036	-76.255138	28.323014			
42917	15.922935	-0.759997	3.361940	-0.039988	1.950891	6.361752	-43.090475	-76.301877	28.057537			
42918	16.396699	-1.203219	1.876525	1.359465	1.193906	6.635632	-43.607241	-76.255085	28.123268			
42919	15.467072	-2.599509	1.392225	1.260608	-0.328476	5.878982	-44.902292	-76.213236	29.003747			
42920	16.329671	-5.368527	1.261919	0.823674	-2.814832	7.171688	-46.297964	-76.095090	30.171827			
42921	16.084180	-7.036678	0.635621	0.956641	-4.518251	7.136908	-46.768698	-75.739463	30.688467			
42922	13.742051	-6.348694	0.950254	0.440193	-3.995047	4.812534	-46.694747	-75.232418	30.723438			
42923	11.503631	-6.327077	2.823372	-1.695920	-3.671685	2.992711	-46.532387	-74.703879	30.535936			
42924	9.853278	-6.197332	3.227987	-2.332321	-3.609132	1.476591	-46.628697	-74.341398	30.786326			
42925	9.780607	-5.918679	2.650950	-1.676396	-3.495169	1.263946	-46.758312	-74.135565	31.257882			
42926	8.631364	-5.276147	2.536641	-1.631215	-3.074133	0.018964	-46.626212	-73.987908	31.571025			
42927	7.300027	-4.203482	2.903083	-1.995201	-2.157238	-1.401212	-46.337192	-73.889576	31.711537			
42928	6.141004	-3.168814	3.436170	-2.512552	-1.214572	-2.617381	-46.180955	-73.852110	31.877051			
42929	5.731086	-2.236879	3.112672	-2.093422	-0.482819	-3.261187	-46.438617	-73.930395	32.417389			
42930	5.989912	-1.356693	2.200398	-0.999647	0.160541	-3.367827	-47.355426	-74.144701	33.620149			
42931	6.503641	-0.821742	1.361157	-0.015589	0.550449	-3.140219	-48.761625	-74.403407	35.302174			
42932	7.259720	-0.940229	0.264797	1.114687	0.312556	-2.579633	-50.498752	-74.608421	37.242009			
42933	8.123940	-1.567792	-0.482030	1.831902	-0.289442	-1.735017	-52.007854	-74.674835	38.915211			
42934	8.977360	-2.581844	-0.388432	1.684548	-1.049549	-0.676476	-52.971097	-74.548756	39.872287			
42935	9.529737	-3.627511	-0.079831	1.295607	-1.837041	0.133547	-53.312751	-74.240525	39.981895			
42936	9.569814	-4.063299	0.269219	0.909280	-2.117763	0.328922	-53.414894	-73.840748	39.662482			
42937	9.612618	-2.698850	-0.530067	1.994603	-0.980822	-0.064525	-53.929846	-73.549402	39.431864			
42938	9.128330	-5.524960	-0.688328	1.397784	-3.760488	0.098428	-54.175107	-73.170191	38.680450			
42939	6.538716	-5.827355	3.753602	-3.459310	-3.230791	-1.542411	-54.423564	-72.994691	38.854278			
42940	7.109859	-2.781340	0.577131	0.381009	-1.136301	-2.250780	-55.737030	-73.167889	40.156730			
42941	7.718660	-3.130399	-0.020258	0.955089	-1.505140	-1.676362	-56.375172	-73.291211	40.652781			
42942	6.887912	-3.849689	1.720183	-1.078701	-1.835448	-2.022314	-56.822729	-73.461618	41.017056			
42943	6.779947	-3.553617	1.416766	-0.771626	-1.669585	-2.248290	-57.194900	-73.673382	41.438599			
42944	6.360400	-3.769323	1.049997	-0.594405	-2.062706	-2.660286	-57.581438	-73.872169	41.803850			
42945	6.586472	-3.740888	1.207305	-0.718580	-1.955047	-2.430628	-58.126383	-74.087503	42.403717			
42946	7.839830	-3.010246	1.324165	-0.431221	-1.006406	-1.381852	-58.849437	-74.310613	43.277520			
42947	8.976833	-2.409601	0.857047	0.343630	-0.363129	-0.492056	-59.469908	-74.496650	44.072848			
42948	9.668357	-1.995463	0.521916	0.863656	0.063449	0.035227	-59.829843	-74.597843	44.562259			
42949	9.834728	-1.972708	0.231164	1.161747	0.038975	0.153039	-60.014382	-74.612044	44.783146			
42950	9.906953	-2.314830	-0.363348	1.654717	-0.426008	0.223178	-60.187084	-74.566626	44.905957			
42951	9.344263	-2.569991	-0.650638	1.761625	-0.840640	-0.297782	-60.366366	-74.495048	45.018426			
42952	8.767340	-2.533620	-0.472884	1.491398	-0.853310	-0.837350	-60.643893	-74.445482	45.266071			
42953	8.211701	-2.394016	-0.398417	1.344030	-0.795350	-1.393480	-60.978239	-74.439683	45.613386			
42954	7.818903	-2.318673	-0.117793	1.009284	-0.713010	-1.750535	-61.394519	-74.491053	46.078645			
42955	8.251403	-2.205346	0.629881	0.384505	-0.311779	-1.262784	-61.896822	-74.606424	46.691770			
42956	8.932890	-1.842524	1.271901	-0.045651	0.338094	-0.609825	-62.414501	-74.750458	47.338573			
42957	9.382863	-1.464184	1.602786	-0.223076	0.868779	-0.223827	-62.879652	-74.887633	47.893508			
42958	9.872352	-1.402942	1.644749	-0.191206	1.030129	0.239129	-63.232197	-74.980607	48.281837			
42959	10.420069	-1.106397	1.851756	-0.240420	1.471666	0.723315	-63.400304	-75.003798	48.464904			
42960	10.329049	-0.964140	1.443448	0.167711	1.484207	0.554152	-63.411113	-74.936718	48.422564			
42961	9.890820	-0.806331	0.916287	0.648049	1.416451	0.030672	-63.339590	-74.809093	48.254128			
42962	9.149104	-0.813007	0.454540	0.978224	1.154361	-0.741626	-63.301256	-74.643966	48.079049			
42963	8.843927	-0.972661	0.233895	1.115462	0.901013	-1.028629	-63.409809	-74.473172	48.033277			
42964	8.816183	-1.250811	0.150958	1.137133	0.633392	-1.002576	-63.612290	-74.285106	48.113522			
42965	9.213776	-1.423917	0.018658	1.307886	0.541404	-0.597604	-63.851473	-74.074456	48.252630			
42966	9.502402	-1.470884	-0.057612	1.441206	0.567774	-0.322542	-64.006418	-73.815820	48.334927			
42967	9.136371	-1.092256	0.655041	0.815785	1.084525	-0.688354	-64.123081	-73.509811	48.374971			
42968	9.104437	-1.286940	0.645066	0.801132	0.935015	-0.677766	-64.306048	-73.172369	48.490380			
42969	9.303984	-1.462088	0.727748	0.750320	0.884626	-0.437956	-64.450265	-72.814235	48.567677			
42970	9.176155	-1.667235	0.572447	0.857698	0.668030	-0.532225	-64.544993	-72.443242	48.590894			
42971	9.032652	-1.775592	0.152091	1.237880	0.459247	-0.701096	-64.642489	-72.069185	48.597240			
42972	8.802606	-1.562829	0.308793	1.129620	0.694253	-0.965915	-64.778968	-71.713138	48.624838			
42973	8.659141	-1.516597	0.392671	1.061390	0.769947	-1.111227	-64.973656	-71.396339	48.724956			
42974	8.874503	-1.256697	0.530798	1.064370	1.142449	-0.970765	-65.189475	-71.116904	48.859543			
42975	9.088310	-1.276846	0.824163	0.850002	1.299460	-0.729972	-65.333625	-70.862201	48.924956			
42976	9.260182	-1.313119	1.138623	0.605669	1.433656	-0.520251	-65.320162	-70.631075	48.843348			
42977	9.602805	-1.362465	1.294320	0.550662	1.543271	-0.165905	-65.147244	-70.428998	48.610594			
42978	9.722400	-1.419347	1.096081	0.782564	1.475638	-0.068408	-64.853254	-70.252912	48.265034			
42979	9.587054	-1.342561	1.271660	0.641581	1.571508	-0.197605	-64.436171	-70.100822	47.799281			
42980	9.472990	-1.057958	1.372775	0.625290	1.835466	-0.379696	-64.045809	-69.987147	47.363005			
42981	9.415369	-0.705993	1.312743	0.781759	2.122674	-0.552344	-63.788316	-69.929233	47.052765			
42982	9.311465	-0.882063	1.295678	0.741796	1.927778	-0.598914	-63.733813	-69.911634	46.952160			
42983	9.342616	-1.095602	1.790092	0.229269	1.893499	-0.429120	-63.910771	-69.935510	47.112030			
42984	9.488425	-1.217272	1.705404	0.295586	1.798580	-0.268157	-64.289868	-69.991889	47.500454			
42985	9.956439	-1.685430	2.328768	-0.323607	1.686583	0.407155	-64.653860	-70.048602	47.874156			
42986	10.795081	-1.875777	2.827685	-0.673415	1.881039	1.325368	-64.909733	-70.132854	48.157203			
42987	11.660528	-2.249050	2.581257	-0.361799	1.673202	2.218875	-64.990751	-70.260306	48.155544			
42988	11.965285	-3.417489	2.133202	-0.186712	0.516079	2.800660	-64.872579	-70.428761	47.806223			
42989	11.804780	-4.190682	1.726563	-0.059077	-0.400987	2.825791	-64.610020	-70.653095	47.247739			
42990	11.916783	-4.632844	0.880161	0.607084	-1.100520	2.941428	-64.531344	-70.964642	46.762540			
42991	12.071710	-5.755686	-0.066143	1.155140	-2.463687	3.281332	-64.578063	-71.355125	46.311526			
42992	11.975707	-6.519011	-1.015112	1.711561	-3.576219	3.272618	-64.612884	-71.794642	45.831712			
42993	11.809090	-7.512883	-1.335849	1.578055	-4.724350	3.335349	-64.405903	-72.250077	45.039197			
42994	11.352436	-8.567798	-0.822693	0.574295	-5.710527	3.226478	-63.902928	-72.708839	43.966806			
42995	10.709205	-9.177096	-0.822431	0.145854	-6.501643	2.728770	-63.204999	-73.159330	42.845703			
42996	9.516183	-9.744964	-1.100977	-0.104903	-7.450596	1.642033	-62.239299	-73.532369	41.651177			
42997	9.140979	-10.012896	-0.525496	-0.827247	-7.646518	1.364842	-61.071671	-73.853305	40.583031			
42998	9.160907	-10.119922	0.574741	-1.848125	-7.440979	1.495723	-59.697375	-74.164216	39.615437			
42999	9.319057	-9.051389	1.763814	-2.514916	-6.130335	1.499938	-58.123611	-74.488477	38.735488			
43000	8.774980	-7.540927	2.492790	-2.767857	-4.714053	0.684652	-56.403638	-74.824037	37.930764			
43001	8.670810	-5.545659	3.294897	-2.896205	-2.754430	0.228071	-54.867124	-75.197872	37.402012			
43002	9.347396	-3.975710	3.633674	-2.625454	-1.208493	0.581002	-53.699895	-75.610524	37.182273			
43003	9.885847	-2.688326	3.352983	-1.936571	-0.108925	0.790920	-52.987892	-76.010282	37.260987			
43004	10.773061	-1.880499	2.319825	-0.635907	0.419077	1.340610	-52.980483	-76.427938	37.899754			
43005	11.915363	-1.439769	1.400635	0.480796	0.714237	2.240056	-53.530771	-76.805380	38.986904			
43006	12.680392	-1.445785	0.659653	1.243075	0.612174	2.891538	-54.217060	-77.081837	40.144190			
43007	12.653024	-1.912447	0.200400	1.520283	0.046070	2.894915	-54.492197	-77.209033	40.819943			
43008	12.318636	-2.581998	0.895698	0.643678	-0.477446	2.779987	-53.998518	-77.189744	40.701800			
43009	10.914917	-2.735127	1.852064	-0.500321	-0.620307	1.563204	-52.556968	-77.038925	39.629335			
43010	10.114205	-2.757047	2.349280	-1.041386	-0.679512	0.858321	-50.434373	-76.801360	37.836292			
43011	9.529595	-2.243178	3.283133	-1.837448	-0.105190	0.347790	-47.763792	-76.454686	35.425354			
43012	8.368216	-1.734285	3.362727	-1.916815	0.191434	-0.833247	-44.786226	-75.988199	32.559148			
43013	7.348694	-1.345616	3.341775	-1.910252	0.382300	-1.863794	-41.897497	-75.455214	29.627280			
43014	6.568797	-0.996139	3.247965	-1.815063	0.564313	-2.665888	-39.292025	-74.915019	26.872067			
43015	6.092860	-0.729795	3.157325	-1.693890	0.713286	-3.160960	-37.020641	-74.422160	24.408363			
43016	5.710099	-0.855015	2.686959	-1.291177	0.411759	-3.590235	-35.100028	-74.018844	22.314728			
43017	5.860341	-0.602116	2.390111	-0.866275	0.572272	-3.540481	-33.542431	-73.754883	20.700352			
43018	5.708741	-0.660103	1.865352	-0.386858	0.347073	-3.793157	-32.250717	-73.627273	19.436134			
43019	5.642286	-1.000580	1.622307	-0.225617	-0.076859	-3.861929	-31.115466	-73.630342	18.433305			
43020	6.194503	-0.683536	1.638660	-0.026847	0.248504	-3.373612	-30.007532	-73.760234	17.545928			
43021	6.828846	-0.934729	1.725304	0.003378	0.036570	-2.707619	-28.871445	-73.957357	16.627427			
43022	7.561883	-1.176571	2.196088	-0.310363	-0.084020	-1.857465	-27.759198	-74.200025	15.788533			
43023	8.233336	-1.090532	2.372712	-0.307933	0.034787	-1.180741	-26.666583	-74.457407	14.982139			
43024	8.222016	-0.950933	2.136709	-0.087175	0.070530	-1.265258	-25.735684	-74.700201	14.291205			
43025	8.410603	-0.813439	2.181074	-0.081071	0.185996	-1.088257	-25.033466	-74.912332	13.714882			
43026	8.709867	-0.601695	2.695827	-0.477554	0.484484	-0.700694	-24.476412	-75.059183	13.242380			
43027	8.677511	-0.188534	3.042110	-0.751800	0.931652	-0.693699	-24.012458	-75.121979	12.818974			
43028	8.610688	0.186426	3.281565	-0.929980	1.325614	-0.739362	-23.674520	-75.124503	12.463645			
43029	8.556881	0.318875	3.061049	-0.705088	1.398585	-0.855081	-23.500254	-75.108851	12.222178			
43030	8.750733	0.439743	2.906966	-0.483685	1.493703	-0.715762	-23.485749	-75.106795	12.105781			
43031	9.079825	0.312277	2.621260	-0.151253	1.330753	-0.452241	-23.585739	-75.118848	12.085273			
43032	9.243377	0.173405	2.507525	-0.029206	1.184866	-0.307267	-23.711718	-75.135249	12.115838			
43033	8.942496	0.280695	2.399095	0.017446	1.256925	-0.635405	-23.895242	-75.136452	12.234887			
43034	8.354310	0.659660	2.244399	0.086644	1.571989	-1.281081	-24.200764	-75.145295	12.489270			
43035	7.870220	1.027615	2.243399	0.030801	1.917130	-1.790666	-24.674193	-75.193060	12.892643			
43036	7.749775	1.289378	2.349666	-0.062992	2.205335	-1.914908	-25.331045	-75.296704	13.465739			
43037	7.805280	1.352191	2.634314	-0.326170	2.351132	-1.809179	-26.100660	-75.433035	14.105982			
43038	7.807825	1.048994	2.887220	-0.647302	2.134422	-1.724196	-26.979402	-75.597978	14.792786			
43039	8.036073	0.756290	2.811429	-0.604138	1.874513	-1.495497	-27.941209	-75.783765	15.515386			
43040	8.525093	0.429047	2.717244	-0.493587	1.597688	-1.012215	-28.969031	-75.959734	16.244298			
43041	9.008812	-0.111757	2.511047	-0.324540	1.091157	-0.529346	-30.002856	-76.096854	16.957341			
43042	9.220710	-0.335461	2.231722	-0.082021	0.858778	-0.359104	-31.036811	-76.179344	17.658943			
43043	9.091371	-0.662097	2.022830	-0.001728	0.517994	-0.489877	-32.021478	-76.218211	18.309584			
43044	8.910005	-0.896462	2.277668	-0.350627	0.375331	-0.586872	-32.978301	-76.237008	18.946516			
43045	8.892202	-1.082492	2.630232	-0.743936	0.316877	-0.511762	-33.840782	-76.262944	19.544455			
43046	9.174287	-1.103096	2.991392	-1.042218	0.443377	-0.166450	-34.619801	-76.303271	20.111868			
43047	9.580479	-1.187461	3.171743	-1.159206	0.469735	0.271513	-35.297811	-76.363679	20.627915			
43048	9.971371	-0.868986	2.890499	-0.753579	0.758883	0.550444	-35.975810	-76.464606	21.172579			
43049	10.623787	-0.525595	2.598687	-0.280356	1.090057	1.078930	-36.740880	-76.575471	21.811692			
43050	11.050207	0.043397	2.486212	0.026297	1.670835	1.389887	-37.622092	-76.662822	22.592505			
43051	11.203310	0.724588	2.126076	0.538302	2.275101	1.371827	-38.642696	-76.726159	23.527154			
43052	11.050168	1.524025	1.737404	1.042896	2.961676	1.031117	-39.779332	-76.777407	24.592444			
43053	11.017000	2.068024	1.745895	1.134680	3.522170	0.911387	-40.946341	-76.829740	25.701038			
43054	11.217911	2.738923	2.336173	0.755294	4.384220	1.096432	-42.038925	-76.873276	26.741279			
43055	11.462162	3.203076	2.929009	0.336219	5.051185	1.349404	-42.994475	-76.900786	27.606991			
43056	11.585478	3.304192	3.506030	-0.169222	5.351682	1.534736	-43.727903	-76.894088	28.157785			
43057	11.393562	1.596292	4.940494	-1.982166	4.126869	1.841055	-43.999013	-76.840737	28.084026			
43058	13.194135	0.791418	5.456586	-2.278103	3.723219	3.804711	-43.875074	-76.769872	27.501383			
43059	17.415509	-1.086668	3.731150	-0.203990	1.890551	7.929496	-43.166695	-76.480876	25.970824			
43060	19.331903	-2.615822	1.104675	2.395073	-0.179762	9.578377	-42.170737	-75.956579	24.072276			
43061	15.393731	-3.957467	-1.327872	3.519601	-2.630111	5.519839	-42.375325	-75.505393	23.286768			
43062	13.770149	-8.442888	-0.355985	0.894248	-6.624276	4.895974	-43.192648	-75.077896	23.286665			
43063	13.499729	-10.824248	0.499498	-0.667533	-8.501891	5.251424	-43.046300	-74.476422	22.850755			
43064	11.737327	-9.954890	0.652049	-0.822537	-7.788287	3.452051	-42.102843	-73.713094	21.845370			
43065	8.915431	-8.238565	2.485596	-2.525789	-5.821780	0.829816	-41.297473	-73.008606	20.957479			
43066	7.307302	-7.625900	4.389869	-4.400171	-4.724220	-0.371199	-41.070442	-72.608685	20.738161			
43067	7.809697	-7.354833	4.125085	-3.886086	-4.515214	0.016471	-41.314422	-72.590993	21.358384			
43068	7.763833	-6.497803	2.955414	-2.551154	-4.151901	-0.459275	-41.793354	-72.767254	22.392153			
43069	7.104036	-4.950226	2.462528	-1.813690	-2.964145	-1.508444	-42.443353	-72.992638	23.569392			
43070	6.674108	-3.498985	2.856544	-1.878475	-1.527200	-2.125984	-43.198080	-73.188617	24.726004			
43071	6.346121	-2.617657	3.371341	-2.209749	-0.573425	-2.513412	-43.891466	-73.394536	25.818964			
43072	6.721642	-1.646449	2.937408	-1.470710	0.240536	-2.443925	-44.530223	-73.619731	26.841477			
43073	7.591269	-0.924663	2.323328	-0.519368	0.838784	-1.881308	-45.212827	-73.797738	27.745854			
43074	8.121479	-0.359464	1.864371	0.158287	1.311917	-1.577567	-46.051005	-73.907204	28.666656			
43075	8.781840	-0.260508	1.287559	0.852376	1.341758	-1.076592	-47.103000	-73.957697	29.696704			
43076	9.614396	-1.063719	0.348781	1.681976	0.447050	-0.291098	-48.197177	-73.918996	30.642008			
43077	10.466793	-2.278355	-0.083444	1.945522	-0.665764	0.700312	-48.947763	-73.739646	31.147532			
43078	10.637073	-3.357700	-0.173871	1.789804	-1.645524	1.074937	-49.113897	-73.417390	30.942793			
43079	9.489175	-3.586413	0.495787	0.864314	-1.784442	0.148293	-49.009393	-73.022030	30.293073			
43080	8.431258	-3.699115	0.673241	0.431306	-1.960479	-0.801959	-49.206158	-72.704773	29.836211			
43081	7.810570	-3.651745	0.805642	0.165427	-1.932237	-1.373002	-49.813219	-72.549632	29.803201			
43082	7.309321	-3.741327	1.017250	-0.210150	-1.980936	-1.782118	-50.654953	-72.537058	30.112338			
43083	7.032219	-4.059742	1.116690	-0.511717	-2.248045	-1.947267	-51.544758	-72.626037	30.646450			
43084	6.397359	-4.359267	0.833112	-0.556344	-2.698815	-2.530506	-52.470320	-72.765394	31.341066			
43085	5.681796	-5.030461	0.539944	-0.734155	-3.510031	-3.102964	-53.486357	-72.914905	32.173779			
43086	5.529787	-6.009814	0.268919	-0.894481	-4.507784	-3.056333	-54.639234	-73.103123	33.241382			
43087	5.716371	-5.866339	0.520469	-1.068754	-4.232362	-2.862402	-55.869896	-73.331227	34.583117			
43088	6.654768	-5.062329	0.721953	-0.797918	-3.255372	-2.118528	-57.119508	-73.601030	36.147138			
43089	8.400897	-3.523856	0.948968	-0.143734	-1.462768	-0.772079	-58.205249	-73.877212	37.635276			
43090	9.292136	-2.931627	0.685459	0.441494	-0.858944	-0.092849	-58.761492	-74.087542	38.553001			
43091	9.945463	-2.837184	0.541985	0.718959	-0.715910	0.493920	-58.756708	-74.210371	38.913547			
43092	10.266164	-2.632389	0.346408	1.030084	-0.553228	0.726593	-58.372209	-74.256812	38.886735			
43093	9.928051	-2.398649	0.205158	1.174380	-0.456597	0.325070	-57.916922	-74.257676	38.742979			
43094	9.456397	-1.924504	-0.300546	1.700248	-0.277280	-0.312700	-57.623663	-74.268527	38.774238			
43095	9.134082	-1.405287	-0.281611	1.771456	0.156622	-0.739486	-57.582944	-74.308529	39.050554			
43096	9.064853	-1.460066	0.435002	1.061946	0.335297	-0.688411	-57.763407	-74.382743	39.560430			
43097	9.193707	-1.511872	1.100555	0.430543	0.530453	-0.455636	-58.148817	-74.481927	40.281559			
43098	9.477843	-1.507224	1.465237	0.117273	0.706041	-0.130962	-58.685334	-74.597534	41.139783			
43099	9.950208	-1.630859	1.588298	0.026317	0.718552	0.369253	-59.260176	-74.709710	41.985560			
43100	10.413167	-1.550517	1.535879	0.153234	0.865886	0.790318	-59.766278	-74.808290	42.701722			
43101	10.464540	-1.466750	1.168594	0.505445	0.847072	0.772704	-60.080078	-74.866639	43.156670			
43102	10.211611	-1.274219	0.886080	0.761139	0.901004	0.448629	-60.219154	-74.884867	43.392329			
43103	9.716012	-1.343660	0.549495	0.962896	0.648692	-0.057674	-60.207912	-74.875974	43.456173			
43104	9.091994	-1.212120	0.323214	1.095902	0.592472	-0.719502	-60.073664	-74.863423	43.410798			
43105	8.697386	-1.308584	0.329028	0.994869	0.430660	-1.078276	-59.875105	-74.860099	43.323262			
43106	8.608783	-1.232117	0.569522	0.775865	0.552894	-1.149781	-59.597196	-74.863566	43.201870			
43107	8.925947	-1.242897	0.801944	0.619288	0.661055	-0.810470	-59.303005	-74.867728	43.100571			
43108	9.486547	-1.016796	1.072172	0.534161	1.045983	-0.283859	-59.021753	-74.852164	43.040171			
43109	9.695906	-0.957108	1.021465	0.645745	1.122411	-0.102217	-58.763860	-74.799668	43.009588			
43110	9.581649	-0.765806	0.888975	0.808066	1.248622	-0.274727	-58.580578	-74.706822	43.063250			
43111	9.221013	-0.570650	0.686615	0.991016	1.323358	-0.697275	-58.531074	-74.570877	43.218086			
43112	8.923649	-0.557767	0.745595	0.893341	1.317975	-0.983002	-58.582101	-74.391770	43.482814			
43113	8.560752	-0.503444	0.847707	0.752659	1.356517	-1.336142	-58.728508	-74.172120	43.816567			
43114	8.520684	-0.776313	0.823625	0.719905	1.117475	-1.320578	-58.965849	-73.912290	44.226057			
43115	8.866004	-0.854674	1.311281	0.324523	1.280588	-0.907041	-59.261594	-73.613815	44.712098			
43116	8.919450	-1.134866	0.989551	0.599464	0.987839	-0.841161	-59.607754	-73.278985	45.248213			
43117	9.226734	-1.313530	1.111053	0.531143	0.967406	-0.492060	-59.946048	-72.907301	45.797707			
43118	9.084027	-1.572355	1.070032	0.512582	0.739953	-0.575470	-60.264630	-72.520274	46.362550			
43119	9.071155	-1.848128	0.983696	0.563160	0.513606	-0.534337	-60.563863	-72.132251	46.956609			
43120	8.945198	-2.122760	1.046115	0.450820	0.299237	-0.575592	-60.778693	-71.757063	47.496548			
43121	8.891082	-2.647015	0.756498	0.645876	-0.226034	-0.530353	-60.873483	-71.397689	47.935517			
43122	9.111114	-2.991943	0.502329	0.908741	-0.511938	-0.266576	-60.845513	-71.061623	48.245819			
43123	9.406586	-3.223732	0.735898	0.748785	-0.560184	0.114200	-60.709515	-70.751058	48.453307			
43124	9.635787	-2.841763	0.764269	0.880987	-0.099897	0.223337	-60.595540	-70.483377	48.690153			
43125	9.963659	-2.258965	0.792610	1.057351	0.573339	0.363697	-60.586594	-70.255004	49.012166			
43126	10.030002	-1.760202	0.892934	1.075263	1.117344	0.291363	-60.692778	-70.076201	49.457063			
43127	10.172197	-1.234551	0.575801	1.496840	1.612814	0.211656	-60.881636	-69.975225	50.028207			
43128	10.260371	-0.725624	0.344679	1.800858	2.095015	0.101356	-61.116868	-69.952579	50.696166			
43129	10.312027	-0.082610	0.432213	1.790615	2.753853	-0.027935	-61.325083	-70.002332	51.393426			
43130	10.407372	0.495025	0.769923	1.520649	3.400510	-0.051788	-61.479083	-70.118098	52.047499			
43131	10.606513	0.786495	1.603000	0.743266	3.877480	0.192249	-61.469663	-70.289474	52.527775			
43132	10.687611	0.865640	1.812985	0.517122	3.984936	0.292453	-61.273629	-70.520710	52.786588			
43133	11.161503	0.922699	2.097935	0.301296	4.166385	0.788345	-60.819100	-70.812641	52.704180			
43134	11.629238	0.665837	2.531600	-0.083361	4.047006	1.399169	-60.147008	-71.144317	52.244768			
43135	11.889001	0.186635	2.719133	-0.279675	3.603247	1.836972	-59.440471	-71.515453	51.535004			
43136	11.823833	-0.698753	2.551281	-0.236255	2.628166	2.012566	-58.887224	-71.911527	50.762504			
43137	11.762379	-1.784146	2.825353	-0.661085	1.540053	2.299705	-58.636102	-72.314183	50.137381			
43138	11.850064	-3.333678	2.180578	-0.253623	-0.095438	2.686044	-58.810010	-72.710593	49.808662			
43139	12.021175	-4.367268	0.323925	1.371471	-1.426754	2.827294	-59.287487	-73.071808	49.658292			
43140	11.710403	-5.003389	-0.593972	2.019698	-2.327533	2.557544	-59.839681	-73.373478	49.471926			
43141	10.950425	-5.856860	-0.682076	1.730930	-3.374939	2.031826	-60.310902	-73.618697	49.117431			
43142	10.107329	-6.844337	-0.487119	1.113562	-4.494675	1.492054	-60.705290	-73.827348	48.691509			
43143	9.462082	-7.671640	-0.466825	0.720132	-5.443287	1.070978	-60.919133	-74.018332	48.214495			
43144	9.285171	-8.638563	-0.179030	0.128216	-6.358496	1.161084	-60.959562	-74.206930	47.716047			
43145	8.644630	-9.180936	0.656759	-0.975366	-6.827519	0.764828	-60.698463	-74.402905	47.116108			
43146	8.389440	-9.592339	1.461961	-1.920461	-7.107817	0.690809	-60.094837	-74.644542	46.449260			
43147	8.996829	-8.925845	2.384381	-2.553452	-6.195707	1.205082	-59.128785	-74.943364	45.707641			
43148	9.424310	-7.846362	3.073385	-2.885851	-5.017344	1.426779	-57.809658	-75.275172	44.773854			
43149	9.648999	-6.842222	3.751431	-3.260925	-3.973354	1.481993	-56.424032	-75.626482	43.866045			
43150	9.785531	-5.804329	4.145903	-3.390988	-2.988460	1.421381	-55.248861	-76.016671	43.249580			
43151	10.450662	-4.688105	3.828647	-2.761553	-1.995067	1.773749	-54.539082	-76.473085	43.147419			
43152	11.130611	-3.763023	3.147669	-1.851866	-1.239400	2.145251	-54.230908	-76.904518	43.416400			
43153	11.523009	-2.907912	2.169523	-0.740064	-0.617740	2.229434	-54.394476	-77.282760	44.072202			
43154	11.070083	-2.326038	1.399286	-0.021204	-0.310891	1.581073	-54.809859	-77.582330	44.875862			
43155	10.697657	-2.247072	0.770360	0.501753	-0.428248	1.125656	-55.201503	-77.815566	45.615322			
43156	10.810977	-2.017208	0.917332	0.379574	-0.180975	1.215048	-55.190765	-77.981511	45.924726			
43157	10.207078	-1.942461	1.100349	0.116677	-0.191771	0.633264	-54.576504	-78.074478	45.603092			
43158	10.095536	-1.847027	1.643852	-0.400424	-0.058539	0.573344	-53.331281	-78.104635	44.564059			
43159	9.620009	-1.568129	2.582949	-1.307454	0.255392	0.182318	-51.372713	-78.036931	42.710356			
43160	9.379693	-1.372482	3.356676	-2.004335	0.490376	0.029619	-48.818062	-77.866122	40.161363			
43161	8.982911	-0.769753	3.707496	-2.231399	1.035033	-0.379817	-45.742616	-77.553594	37.017511			
43162	7.880164	-0.251430	3.053281	-1.599777	1.251587	-1.605635	-42.604404	-77.121822	33.668918			
43163	6.798647	-0.140272	2.380530	-1.024265	1.083673	-2.764011	-39.835082	-76.649105	30.539145			
43164	6.405743	0.127143	2.283614	-0.877291	1.257889	-3.186074	-37.534796	-76.206774	27.818883			
43165	6.501281	-0.503024	2.362820	-0.951688	0.645921	-2.973154	-35.644330	-75.826663	25.455176			
43166	6.484867	-1.344287	2.493062	-1.152181	-0.172734	-2.832838	-33.971589	-75.491033	23.373084			
43167	6.516693	-1.804438	1.970654	-0.671154	-0.742382	-2.840960	-32.502425	-75.218533	21.576825			
43168	6.056775	-2.105387	1.518006	-0.363490	-1.194963	-3.342654	-31.162061	-75.011240	19.981103			
43169	5.737323	-2.325998	1.385133	-0.330314	-1.491793	-3.655488	-29.969991	-74.909005	18.658283			
43170	5.748204	-2.060673	1.471922	-0.350194	-1.242561	-3.665484	-28.855059	-74.917200	17.544543			
43171	5.722447	-1.642217	1.887507	-0.672985	-0.781795	-3.652999	-27.792409	-75.014394	16.561142			
43172	6.164901	-1.229013	2.377529	-0.961809	-0.280260	-3.166984	-26.785558	-75.195941	15.682439			
43173	6.711942	-0.820487	2.935298	-1.303137	0.231689	-2.560976	-25.900702	-75.445419	14.915349			
43174	7.685700	-0.420945	3.446803	-1.512691	0.748666	-1.549596	-25.133615	-75.736039	14.212393			
43175	8.650171	-0.302010	3.450604	-1.301604	0.888524	-0.629036	-24.539069	-76.028847	13.606920			
43176	9.735517	-0.305830	3.130005	-0.783204	0.853812	0.352357	-24.159644	-76.312942	13.161813			
43177	10.797122	-0.494411	2.568823	-0.078872	0.594741	1.280600	-24.020212	-76.552730	12.906226			
43178	11.317994	-0.895571	1.768038	0.693181	0.057860	1.656447	-24.043261	-76.734638	12.820019			
43179	10.974467	-0.910551	1.431098	0.911377	-0.046463	1.254529	-24.117194	-76.805270	12.800593			
43180	10.049059	-0.915944	1.509555	0.623569	-0.082910	0.370907	-24.146957	-76.785553	12.745189			
43181	9.334932	-0.824029	1.799954	0.211224	0.031392	-0.272551	-24.133525	-76.714538	12.665647			
43182	8.764103	-0.520087	2.441683	-0.460935	0.432250	-0.721896	-24.078864	-76.634285	12.566493			
43183	8.285567	-0.309332	2.950050	-1.002221	0.719605	-1.099089	-24.025413	-76.558347	12.485820			
43184	7.775942	0.003178	3.121764	-1.213636	1.037652	-1.587053	-24.115381	-76.508317	12.556572			
43185	7.454414	0.244532	3.462718	-1.562327	1.335069	-1.850576	-24.388959	-76.485730	12.783713			
43186	7.142578	0.480592	3.322395	-1.459470	1.534385	-2.209973	-24.986830	-76.553916	13.311877			
43187	7.234213	0.561765	3.067845	-1.200979	1.586422	-2.190229	-25.959107	-76.749135	14.192331			
43188	7.658251	0.722912	2.938869	-0.994604	1.767524	-1.831794	-27.303712	-77.070955	15.479715			
43189	8.376922	0.874973	2.859682	-0.797193	1.974210	-1.176565	-28.908460	-77.457651	17.090287			
43190	9.074429	1.011120	2.823650	-0.668417	2.179916	-0.531463	-30.667035	-77.837935	18.904127			
43191	9.649192	0.962418	2.547104	-0.375669	2.153356	-0.027894	-32.473785	-78.146103	20.785361			
43192	10.061322	0.712391	2.216081	-0.094719	1.914510	0.334918	-34.281772	-78.359521	22.628662			
43193	10.408247	0.422637	2.056537	0.015844	1.673438	0.672472	-35.974625	-78.469626	24.296432			
43194	10.506857	0.151398	2.147950	-0.141574	1.485050	0.808282	-37.471633	-78.495128	25.719246			
43195	10.545645	0.076785	2.328437	-0.343569	1.500956	0.876889	-38.773832	-78.470523	26.897248			
43196	10.764527	0.057771	2.385425	-0.376774	1.559818	1.095725	-39.984421	-78.438036	27.940437			
43197	11.145358	0.082723	2.322531	-0.255328	1.650167	1.449266	-41.124260	-78.406692	28.907997			
43198	11.330256	0.274151	2.263688	-0.139410	1.882252	1.589580	-42.146264	-78.374002	29.806671			
43199	11.611039	0.587442	2.358220	-0.126924	2.272921	1.829482	-43.025548	-78.324313	30.603158			
43200	11.984170	0.646983	3.256693	-0.917998	2.605102	2.312310	-43.711286	-78.241422	31.217355			
43201	12.556691	0.196162	4.318289	-1.921039	2.502384	3.087085	-44.133254	-78.107279	31.518153			
43202	13.496432	-0.409914	4.420466	-1.944829	2.080082	4.106823	-44.328230	-77.890594	31.476279			
43203	15.565573	-1.705402	3.953945	-1.324022	0.993572	6.252428	-44.143213	-77.533719	30.953066			
43204	15.984918	-2.222976	1.719195	0.899849	0.063067	6.392234	-43.889010	-77.031413	30.333843			
43205	14.029957	-2.538937	-0.053029	2.258662	-0.834162	4.240434	-44.323063	-76.504005	30.296505			
43206	12.433647	-4.600893	0.471590	1.051453	-2.790608	3.113722	-45.076431	-75.951568	30.631406			
43207	11.585981	-6.333998	0.777816	0.263948	-4.389319	2.662180	-45.369525	-75.332343	30.739021			
43208	11.501127	-6.529149	1.853532	-0.706212	-4.233292	2.833260	-44.998774	-74.669182	30.326453			
43209	11.045535	-6.347820	2.790525	-1.526000	-3.825347	2.561571	-44.481360	-74.092507	29.835677			
43210	10.469316	-6.606035	3.281196	-2.078928	-3.987383	2.178583	-44.266058	-73.676225	29.745350			
43211	9.935692	-6.970431	3.061034	-2.005298	-4.447376	1.714412	-44.311145	-73.445686	30.151166			
43212	9.597812	-5.721917	2.430118	-1.164375	-3.457503	1.024912	-44.544077	-73.366648	30.967840			
43213	8.751004	-5.351634	2.437029	-1.263925	-3.222625	0.146041	-44.806707	-73.335615	31.825805			
43214	7.639366	-4.160071	2.872504	-1.689738	-2.145773	-1.068671	-45.189752	-73.358968	32.776586			
43215	6.805179	-2.860332	2.839041	-1.613045	-1.037351	-2.139742	-45.785076	-73.440671	33.850198			
43216	6.402101	-1.747175	2.841816	-1.532565	-0.030185	-2.758210	-46.689808	-73.615912	35.197355			
43217	6.803996	-0.435190	2.775025	-1.193808	1.287917	-2.664241	-47.892004	-73.871010	36.773539			
43218	7.178728	0.259512	2.385547	-0.679654	1.948649	-2.530324	-49.179589	-74.108448	38.305716			
43219	7.543925	0.577048	1.841165	-0.080497	2.222964	-2.350424	-50.444638	-74.279859	39.658408			
43220	7.917018	0.011595	1.291360	0.393107	1.654052	-1.973276	-51.544223	-74.341797	40.647685			
43221	8.748855	-1.104592	0.974787	0.659492	0.687413	-0.991960	-52.382925	-74.300707	41.246600			
43222	9.811047	-2.023902	0.506274	1.161216	-0.076007	0.149986	-52.971832	-74.171094	41.492474			
43223	10.417595	-2.766101	0.038279	1.610225	-0.750048	0.818568	-53.347918	-73.950715	41.402611			
43224	10.512035	-3.457869	0.068487	1.491754	-1.358630	1.068172	-53.527725	-73.648929	41.042962			
43225	10.037191	-3.675596	-0.032856	1.469801	-1.645081	0.646258	-53.754212	-73.312717	40.690747			
43226	9.181446	-3.672341	-0.160334	1.420436	-1.797204	-0.191718	-54.223243	-73.003443	40.583172			
43227	8.386740	-3.605926	0.240110	0.877800	-1.745864	-0.891978	-54.860159	-72.762806	40.726065			
43228	7.568981	-3.658623	0.843331	0.102326	-1.760115	-1.549660	-55.433113	-72.602232	40.917109			
43229	6.700241	-3.697553	1.045284	-0.304776	-1.885828	-2.328808	-55.887089	-72.527931	41.117561			
43230	5.949829	-3.689528	0.865149	-0.315391	-2.059896	-3.073333	-56.264593	-72.536605	41.339911			
43231	5.910707	-3.960932	1.057065	-0.584807	-2.263490	-3.009938	-56.643074	-72.627194	41.643896			
43232	6.405267	-4.155960	1.129099	-0.610863	-2.327687	-2.479000	-57.096559	-72.788588	42.071502			
43233	7.137075	-4.284044	1.131069	-0.509689	-2.305171	-1.750646	-57.535921	-72.973642	42.546846			
43234	7.998493	-3.833027	1.288666	-0.397748	-1.672094	-1.016411	-57.921917	-73.142447	43.012012			
43235	8.905686	-3.386241	1.482048	-0.310731	-1.024262	-0.229961	-58.192192	-73.262216	43.362730			
43236	9.565018	-3.220741	1.466207	-0.138883	-0.744191	0.357828	-58.443408	-73.328164	43.679563			
43237	10.015920	-2.993874	1.201103	0.245433	-0.506394	0.694829	-58.742573	-73.330839	44.031572			
43238	10.216303	-2.891688	0.649447	0.825682	-0.501349	0.780864	-59.154721	-73.274394	44.455103			
43239	9.830674	-2.704295	0.087928	1.318378	-0.526065	0.284251	-59.639254	-73.162296	44.922641			
43240	9.181523	-2.628169	-0.255053	1.525757	-0.646359	-0.403815	-60.194148	-73.028132	45.482649			
43241	8.498265	-2.660447	-0.201865	1.324099	-0.770171	-1.038136	-60.784378	-72.908754	46.137430			
43242	8.326232	-2.565248	0.272870	0.850745	-0.558231	-1.155573	-61.391207	-72.831705	46.885705			
43243	8.474856	-2.428060	0.964223	0.241194	-0.187505	-0.949562	-61.914835	-72.788528	47.604213			
43244	8.990078	-2.295549	1.466521	-0.119726	0.199743	-0.421869	-62.324183	-72.775637	48.214637			
43245	9.598341	-2.000330	1.753149	-0.221535	0.697355	0.120470	-62.557308	-72.768559	48.607815			
43246	9.950059	-1.838726	1.663233	-0.038211	0.910741	0.401030	-62.625082	-72.751666	48.755352			
43247	9.956586	-1.673191	1.476705	0.179837	1.024454	0.337779	-62.560679	-72.708808	48.699796			
43248	9.604510	-1.671536	1.117539	0.465098	0.859618	-0.048761	-62.437896	-72.638551	48.531979			
43249	9.188282	-1.703744	0.844034	0.652279	0.671817	-0.476584	-62.312418	-72.544464	48.341090			
43250	8.749703	-1.726852	0.787790	0.628286	0.545473	-0.898226	-62.245876	-72.436696	48.222336			
43251	8.629001	-1.582038	0.897158	0.543292	0.693979	-1.038259	-62.246475	-72.326364	48.236308			
43252	8.667257	-1.338901	1.008030	0.508334	0.972920	-1.053400	-62.226288	-72.205161	48.303464			
43253	8.444836	-1.052353	0.974097	0.568259	1.197176	-1.350100	-62.178707	-72.068059	48.414318			
43254	8.323908	-0.560778	0.920451	0.708248	1.634082	-1.610415	-62.175991	-71.916180	48.588398			
43255	8.357216	-0.356329	1.166739	0.530933	1.915764	-1.604203	-62.234234	-71.748803	48.790235			
43256	8.345793	-0.415681	1.496663	0.209185	1.961721	-1.556000	-62.352280	-71.575650	49.022725			
43257	8.600251	-0.648308	1.538166	0.182105	1.838374	-1.248942	-62.570070	-71.415621	49.326898			
43258	8.823853	-1.080478	1.381811	0.296106	1.473942	-0.942684	-62.823967	-71.265613	49.660533			
43259	8.852803	-1.463630	1.106328	0.494620	1.080608	-0.850217	-63.057170	-71.110102	49.981734			
43260	9.023831	-2.132427	1.008103	0.500559	0.499405	-0.512525	-63.240800	-70.943874	50.240232			
43261	9.267159	-2.583381	1.037556	0.448675	0.171016	-0.148320	-63.274050	-70.776168	50.388310			
43262	9.571763	-2.794689	1.253018	0.287435	0.124781	0.232246	-63.123872	-70.587090	50.362428			
43263	9.802201	-2.477252	1.555932	0.137424	0.570415	0.399877	-62.775658	-70.401908	50.175907			
43264	9.922114	-2.227349	1.550438	0.252157	0.842908	0.436170	-62.298979	-70.232023	49.860952			
43265	9.937810	-1.807615	1.267739	0.639942	1.177002	0.278880	-61.820120	-70.093801	49.575702			
43266	10.150873	-1.200030	1.003723	1.076510	1.741991	0.251820	-61.449051	-69.995099	49.409134			
43267	10.313546	-1.088685	0.858177	1.288943	1.858597	0.344830	-61.219691	-69.927624	49.404492			
43268	10.555897	-0.892024	0.759431	1.474397	2.090336	0.495370	-61.166229	-69.904981	49.633265			
43269	10.837905	-1.179882	0.742126	1.493638	1.900075	0.843849	-61.311241	-69.923266	50.103504			
43270	11.010736	-1.895816	1.102265	1.047480	1.360618	1.282215	-61.492802	-69.973369	50.693369			
43271	11.454109	-2.172400	1.546396	0.648232	1.312803	1.856227	-61.545562	-70.050257	51.252554			
43272	11.937014	-2.335227	2.102244	0.175002	1.387459	2.451460	-61.307625	-70.113802	51.514538			
43273	12.332517	-2.408506	2.190553	0.166011	1.412955	2.862733	-60.772795	-70.179440	51.430881			
43274	12.611325	-2.320637	2.468013	-0.017585	1.579085	3.149871	-60.099426	-70.275769	51.113238			
43275	12.382528	-1.864973	2.865318	-0.380416	1.968175	2.875750	-59.436886	-70.427178	50.691242			
43276	12.336653	-1.973059	2.695928	-0.235173	1.764262	2.843764	-58.918415	-70.641745	50.259599			
43277	12.297778	-2.251564	1.961264	0.424382	1.302534	2.768029	-58.646623	-70.909966	49.918717			
43278	12.387857	-2.544380	0.976225	1.333283	0.816006	2.774685	-58.608077	-71.223476	49.640944			
43279	12.127657	-3.304223	0.335999	1.760240	-0.149774	2.636786	-58.604996	-71.561372	49.221552			
43280	11.942527	-4.498961	-0.215658	2.037199	-1.507472	2.696812	-58.649519	-71.917723	48.674275			
43281	11.127630	-5.899692	-0.281496	1.653418	-3.121409	2.279943	-58.624676	-72.249967	47.922120			
43282	10.091129	-7.152707	-0.373348	1.239201	-4.638243	1.592635	-58.538803	-72.562144	47.076884			
43283	9.448906	-8.071943	-1.397180	1.833984	-5.941533	1.037362	-58.404791	-72.844314	46.230881			
43284	8.850547	-8.962958	-1.697920	1.743701	-7.047437	0.620049	-58.003722	-73.060080	45.296703			
43285	7.774277	-9.503606	-1.043185	0.734337	-7.680796	-0.204778	-57.371253	-73.220769	44.436000			
43286	7.284436	-9.566323	-0.754430	0.346862	-7.816270	-0.651254	-56.476719	-73.400580	43.791839			
43287	8.142399	-8.254561	-0.163815	0.273183	-6.316712	-0.092264	-55.160407	-73.600474	43.123737			
43288	7.840328	-6.570853	1.245683	-0.744130	-4.530129	-0.586572	-53.352006	-73.802858	42.187508			
43289	7.160509	-4.501400	2.649657	-1.804992	-2.478529	-1.496820	-51.348582	-74.033605	41.144377			
43290	6.882100	-2.881810	3.628127	-2.511824	-0.891305	-1.956062	-49.567678	-74.338157	40.301060			
43291	7.429188	-1.191267	4.108295	-2.628212	0.813561	-1.693600	-48.306216	-74.744126	39.895741			
43292	8.670065	-0.175915	3.885251	-2.078140	1.872450	-0.731369	-47.706597	-75.225840	40.004373			
43293	9.734329	0.353322	3.409430	-1.421841	2.410861	0.120654	-47.657032	-75.722153	40.500326			
43294	10.660784	0.220477	2.802091	-0.759089	2.286210	0.945973	-48.059746	-76.183169	41.258980			
43295	11.166997	-0.674372	1.877508	0.059427	1.332390	1.452403	-48.707585	-76.550904	42.116202			
43296	11.113974	-1.296527	1.335089	0.449357	0.626504	1.429603	-49.375441	-76.825355	42.912740			
43297	11.014334	-1.809039	1.124599	0.544266	0.072267	1.392284	-49.661248	-76.960795	43.293293			
43298	10.420206	-2.073234	1.175812	0.361912	-0.281673	0.866788	-49.310339	-76.960253	42.988237			
43299	9.470923	-1.968756	1.830648	-0.402169	-0.257437	0.020800	-48.349438	-76.839816	42.003594			
43300	8.716716	-1.652480	2.350600	-0.961156	-0.013008	-0.685099	-46.969444	-76.645265	40.531870			
43301	8.001068	-0.917679	2.854560	-1.447626	0.648994	-1.416823	-45.366353	-76.388068	38.753523			
43302	7.350488	-0.323780	3.264562	-1.841338	1.177078	-2.065726	-43.712260	-76.107649	36.840504			
43303	6.899105	0.191825	3.480297	-2.017254	1.638945	-2.533192	-42.135531	-75.837905	34.933216			
43304	6.781506	0.627750	3.566710	-2.013551	2.056233	-2.683768	-40.757654	-75.618118	33.179853			
43305	7.133695	0.634291	3.243750	-1.568700	2.057628	-2.388474	-39.633707	-75.471253	31.612359			
43306	7.399856	0.468327	3.083415	-1.328480	1.898105	-2.123941	-38.731642	-75.373892	30.224637			
43307	8.001900	0.380707	2.624238	-0.723940	1.806518	-1.610599	-38.064009	-75.316008	29.017747			
43308	8.375798	-0.034090	2.178380	-0.232691	1.360858	-1.269017	-37.502786	-75.243136	27.814727			
43309	8.534615	-0.850318	1.806047	0.070527	0.505284	-1.062594	-37.041413	-75.142765	26.659133			
43310	8.884155	-1.418100	1.321204	0.546913	-0.111803	-0.736722	-36.716230	-75.047039	25.677056			
43311	9.059424	-1.731380	0.999442	0.857097	-0.472247	-0.587067	-36.551319	-74.941561	24.891734			
43312	8.437469	-1.988986	0.973920	0.698020	-0.799784	-1.154248	-36.549958	-74.828780	24.347130			
43313	7.948003	-1.918093	0.923097	0.649614	-0.791940	-1.648573	-36.708278	-74.725958	24.031713			
43314	7.421040	-2.031589	1.101147	0.333168	-0.907696	-2.100568	-37.023469	-74.633271	23.906288			
43315	7.167459	-1.899199	1.344524	0.067729	-0.733028	-2.313006	-37.500924	-74.547189	23.954513			
43316	6.698199	-2.005273	1.825569	-0.528779	-0.745160	-2.644371	-38.125611	-74.487423	24.140575			
43317	6.568637	-1.919171	2.238927	-0.940589	-0.544749	-2.695000	-38.828753	-74.468774	24.459331			
43318	6.406035	-1.525215	2.339060	-0.998563	-0.131320	-2.897464	-39.622264	-74.509237	24.891266			
43319	6.438628	-1.276612	2.175377	-0.799890	0.092692	-2.944688	-40.577564	-74.642599	25.534126			
43320	6.700538	-1.061281	1.839922	-0.403030	0.260889	-2.799972	-41.699207	-74.858373	26.397785			
43321	7.128636	-0.996679	1.601362	-0.106790	0.328232	-2.446834	-42.941888	-75.139408	27.441442			
43322	7.504163	-0.730058	1.357283	0.218891	0.577982	-2.176893	-44.267217	-75.483627	28.657571			
43323	8.171424	-0.599240	1.449744	0.245051	0.823254	-1.536530	-45.517289	-75.875748	29.883154			
43324	8.808098	-0.628388	1.990801	-0.211327	1.030437	-0.821924	-46.510505	-76.269413	30.925864			
43325	9.206271	-0.727267	2.210689	-0.433816	1.041039	-0.384053	-47.173209	-76.645505	31.666802			
43326	9.433609	-0.769043	2.121754	-0.378512	0.988820	-0.170857	-47.538412	-76.993673	32.089624			
43327	9.924008	-0.931924	2.050837	-0.312536	0.850825	0.323313	-47.697856	-77.304966	32.255684			
43328	10.545395	-1.103049	2.125759	-0.356811	0.757138	0.968786	-47.746150	-77.559036	32.259915			
43329	11.122300	-0.953596	1.949930	-0.084725	0.898539	1.483439	-47.906611	-77.755352	32.332790			
43330	11.852123	-0.634087	1.816726	0.219810	1.240758	2.128313	-48.303619	-77.903449	32.601595			
43331	12.733087	-0.396119	1.454913	0.749797	1.471381	2.902577	-48.934888	-77.990652	33.072535			
43332	13.210455	-0.219180	1.171624	1.126073	1.631308	3.302480	-49.594549	-78.003969	33.557037			
43333	13.409198	-0.084564	1.060170	1.294848	1.772681	3.458282	-50.068623	-77.952421	33.887969			
43334	13.006924	0.361561	1.103972	1.311418	2.182496	2.995372	-50.204699	-77.846427	33.956927			
43335	12.637015	0.561265	1.953010	0.516041	2.588062	2.711649	-50.153576	-77.725001	33.900531			
43336	12.877387	0.368670	2.780560	-0.256191	2.680427	3.088637	-50.014567	-77.646567	33.764603			
43337	13.130957	-0.142582	3.478541	-0.983422	2.426632	3.517237	-49.642728	-77.556357	33.334504			
43338	14.245109	-1.109384	3.168369	-0.710179	1.547021	4.723290	-49.177121	-77.443899	32.745477			
43339	15.298894	-1.694906	1.776301	0.687228	0.708690	5.650476	-48.821179	-77.293494	32.265968			
43340	14.420868	-1.785833	1.164318	1.123391	0.352047	4.717286	-48.774161	-77.095821	32.101718			
43341	13.645367	-3.515462	1.902195	-0.132555	-1.133316	4.360189	-48.644744	-76.792166	31.912942			
43342	13.282783	-5.344772	2.929450	-1.566311	-2.574161	4.487638	-47.796430	-76.268944	31.056425			
43343	12.438479	-6.313813	2.797300	-1.714525	-3.608478	3.841659	-46.432314	-75.525972	29.613888			
43344	11.556522	-5.966484	2.605577	-1.454774	-3.421429	2.919793	-45.226571	-74.769140	28.289636			
43345	9.097337	-5.853623	3.738799	-2.913323	-3.247559	0.768889	-44.569891	-74.140434	27.476679			
43346	8.483071	-5.922361	4.322293	-3.547557	-3.175927	0.338521	-44.856831	-73.820377	27.801081			
43347	7.979468	-5.678287	3.820603	-3.107291	-3.134214	-0.271554	-45.528730	-73.689976	28.673055			
43348	7.425255	-4.932101	3.612722	-2.843354	-2.548953	-0.984893	-46.251828	-73.669659	29.688139			
43349	7.072118	-4.383805	3.650212	-2.829298	-2.056717	-1.426890	-47.105073	-73.734534	30.779531			
43350	6.920615	-3.420014	3.601338	-2.600506	-1.170249	-1.785933	-48.219680	-73.907694	32.116821			
43351	7.024022	-2.448581	2.756088	-1.582232	-0.466855	-2.053384	-49.604079	-74.135163	33.700458			
43352	7.128095	-1.763545	2.120523	-0.841811	0.039049	-2.216244	-51.209801	-74.319691	35.443200			
43353	7.514972	-1.648029	1.235495	0.054084	-0.006552	-2.020775	-53.007601	-74.446443	37.390820			
43354	9.050991	-1.151220	0.504898	1.140413	0.557073	-0.763418	-54.765436	-74.498010	39.310570			
43355	9.561480	-1.785030	-0.316645	1.831551	-0.129275	-0.255653	-55.982762	-74.404931	40.562634			
43356	9.904457	-2.388711	-0.346741	1.778642	-0.598843	0.207397	-56.506315	-74.180818	41.039297			
43357	10.145800	-2.743609	-0.266862	1.694956	-0.829891	0.530138	-56.483944	-73.840991	40.785367			
43358	9.635895	-3.301211	0.314041	0.949522	-1.253116	0.255823	-56.154365	-73.445762	40.027560			
43359	9.068026	-3.248191	0.817980	0.410219	-1.136414	-0.221596	-55.916715	-73.128593	39.332868			
43360	8.349152	-3.031353	0.914509	0.239210	-1.016435	-0.944578	-55.995178	-72.942333	38.933056			
43361	7.855208	-2.989954	0.859669	0.190178	-1.067973	-1.433762	-56.340623	-72.872042	38.837799			
43362	7.795010	-3.223951	0.911549	0.048225	-1.265044	-1.423155	-56.823673	-72.889397	38.957914			
43363	7.672040	-3.238838	0.928584	-0.022864	-1.283293	-1.532282	-57.296892	-72.938606	39.174989			
43364	7.408079	-3.199186	0.731282	0.090265	-1.350304	-1.824090	-57.702477	-72.991679	39.395093			
43365	6.835554	-3.350626	0.688186	-0.060108	-1.602628	-2.339198	-58.073321	-73.019776	39.611568			
43366	6.594118	-3.547618	0.538533	-0.048030	-1.870554	-2.542426	-58.502244	-73.059253	39.947507			
43367	6.907004	-3.660265	0.420874	0.079320	-1.945381	-2.230437	-59.077967	-73.132970	40.476226			
43368	7.404986	-3.784640	0.596731	-0.036358	-1.897083	-1.694001	-59.761955	-73.241632	41.167812			
43369	8.127209	-3.744437	0.803461	-0.090635	-1.644081	-0.980554	-60.436791	-73.374412	41.933812			
43370	8.864679	-3.493673	0.877433	0.038556	-1.239040	-0.324727	-61.045776	-73.501124	42.685847			
43371	9.471661	-3.299521	0.847367	0.221398	-0.945547	0.206000	-61.514602	-73.594972	43.309363			
43372	9.501907	-3.133173	0.615734	0.472026	-0.853158	0.163856	-61.879083	-73.630671	43.797772			
43373	9.235712	-2.986800	0.447640	0.606249	-0.812207	-0.148708	-62.188979	-73.616325	44.204194			
43374	8.922813	-2.747945	0.159617	0.875137	-0.730894	-0.544830	-62.484976	-73.578403	44.590680			
43375	8.640812	-2.347348	0.080660	1.002906	-0.425632	-0.924876	-62.727693	-73.527923	44.948788			
43376	8.778806	-2.056617	0.223928	0.974545	-0.068251	-0.846482	-62.990880	-73.493729	45.338586			
43377	9.045006	-1.688613	0.544366	0.823417	0.442300	-0.642833	-63.251548	-73.464181	45.745756			
43378	9.418767	-1.584685	0.721303	0.753318	0.684257	-0.288562	-63.499156	-73.431571	46.123108			
43379	9.581532	-1.522018	0.773592	0.749312	0.807187	-0.142749	-63.719289	-73.371300	46.431945			
43380	9.810918	-1.488938	0.886681	0.698425	0.937482	0.081279	-63.876289	-73.274147	46.628248			
43381	9.834085	-1.401210	1.077791	0.556217	1.101948	0.102480	-63.946567	-73.136739	46.697502			
43382	9.493852	-1.291238	1.147562	0.469007	1.173156	-0.246022	-63.937070	-72.972908	46.664934			
43383	9.286866	-1.041412	1.285390	0.385346	1.423208	-0.495576	-63.934612	-72.798642	46.612360			
43384	8.963377	-0.872239	1.398649	0.280233	1.565249	-0.838806	-63.903597	-72.616989	46.514666			
43385	8.883048	-0.764602	1.322362	0.385950	1.643212	-0.958727	-63.939030	-72.442652	46.455863			
43386	8.817229	-0.601885	1.338619	0.420362	1.803192	-1.068007	-63.976027	-72.283373	46.393567			
43387	8.845198	-0.597400	1.179614	0.594987	1.780227	-1.068395	-64.009955	-72.137157	46.316584			
43388	8.713525	-0.557002	1.025010	0.741257	1.753577	-1.230038	-63.995654	-71.995348	46.187275			
43389	8.616649	-0.514814	1.094348	0.686594	1.806046	-1.328820	-63.951888	-71.852136	46.025095			
43390	8.366556	-0.535737	1.070131	0.669804	1.735450	-1.568236	-63.897505	-71.697968	45.844484			
43391	8.119554	-0.660258	1.000466	0.666260	1.556902	-1.781739	-63.920504	-71.535972	45.734807			
43392	8.187066	-0.971169	0.983951	0.625516	1.300083	-1.636023	-64.100215	-71.370076	45.789674			
43393	8.375287	-1.245624	0.809160	0.764509	1.057357	-1.407379	-64.382914	-71.208333	45.961164			
43394	8.786453	-1.853647	0.654385	0.837604	0.572704	-0.866385	-64.699468	-71.031324	46.191737			
43395	9.363417	-2.281118	0.787447	0.733116	0.394219	-0.179195	-64.960807	-70.830537	46.396301			
43396	9.864129	-2.800091	0.933813	0.581822	0.122850	0.466408	-65.049644	-70.599726	46.464153			
43397	10.161788	-2.993868	0.905211	0.653268	0.040497	0.799380	-64.941113	-70.338391	46.366970			
43398	10.179061	-2.964242	0.581051	1.008200	-0.009733	0.757121	-64.704598	-70.080620	46.187326			
43399	9.975264	-2.544416	0.206343	1.468133	0.218896	0.376475	-64.439525	-69.849635	46.034854			
43400	10.174841	-2.250402	0.266955	1.577018	0.575619	0.475389	-64.207333	-69.660793	45.967219			
43401	10.405648	-1.826509	0.612538	1.455530	1.149562	0.605984	-63.982150	-69.521101	45.947227			
43402	10.265739	-1.475343	0.617100	1.528714	1.447037	0.361394	-63.865729	-69.445926	46.042403			
43403	10.052248	-1.344559	0.807168	1.334532	1.582199	0.148372	-63.906719	-69.454124	46.303416			
43404	10.067442	-1.205635	1.263819	0.927947	1.863627	0.190807	-64.138979	-69.556511	46.798443			
43405	10.358619	-1.397560	1.797413	0.411333	1.929698	0.608050	-64.432389	-69.714531	47.360746			
43406	10.937759	-1.656409	2.024111	0.223828	1.900730	1.269380	-64.688999	-69.910061	47.854093			
43407	11.607720	-2.377609	1.823112	0.339880	1.330126	2.096594	-64.907438	-70.119157	48.190674			
43408	11.965869	-3.301540	1.606205	0.349705	0.480948	2.689643	-65.055488	-70.351446	48.366165			
43409	12.082332	-3.998773	1.301527	0.442251	-0.256894	2.970310	-65.199681	-70.614041	48.458682			
43410	12.329648	-4.779075	1.191951	0.351491	-0.986282	3.423016	-65.341954	-70.903493	48.536993			
43411	12.085786	-5.382125	0.356513	0.877058	-1.901619	3.255395	-65.482536	-71.215630	48.656720			
43412	11.836990	-5.094460	-0.679280	1.817904	-2.060015	2.796055	-65.676092	-71.550604	48.868202			
43413	11.552220	-4.793851	-1.231575	2.301009	-2.066718	2.368657	-65.808757	-71.895967	48.996650			
43414	11.569265	-5.195133	-1.182390	2.102786	-2.471509	2.504164	-65.778102	-72.233433	48.938500			
43415	10.615918	-5.823016	-0.743285	1.293381	-3.195876	1.817912	-65.485985	-72.530573	48.554473			
43416	9.611500	-6.268276	0.050482	0.199019	-3.650241	1.064378	-65.041075	-72.820547	48.030611			
43417	8.274548	-6.241425	0.498958	-0.504444	-3.834937	-0.184032	-64.640097	-73.110360	47.582954			
43418	7.596908	-6.116353	0.707109	-0.821824	-3.847444	-0.860352	-64.327096	-73.417463	47.302812			
43419	6.998924	-6.021964	1.469980	-1.649917	-3.696240	-1.385042	-64.035373	-73.718574	47.132504			
43420	7.094136	-5.930217	1.609473	-1.746550	-3.598689	-1.322497	-63.621605	-74.037177	47.036794			
43421	8.046407	-5.395074	2.113363	-1.901173	-2.823129	-0.499645	-62.866194	-74.367698	46.730234			
43422	8.644471	-5.044905	2.212215	-1.780131	-2.433083	-0.015631	-61.672533	-74.687401	46.047804			
43423	8.869580	-4.087112	2.710023	-1.954480	-1.444819	0.026509	-60.246673	-75.001470	45.148943			
43424	9.291408	-3.409113	2.735525	-1.726241	-0.817202	0.276263	-58.987224	-75.324416	44.396096			
43425	9.815259	-2.811930	2.679858	-1.445837	-0.260479	0.640495	-58.207703	-75.672813	44.097744			
43426	10.926540	-2.432009	2.691957	-1.209042	0.221573	1.634545	-58.072768	-76.044273	44.422784			
43427	11.972346	-2.283428	2.174853	-0.561159	0.358311	2.550047	-58.510503	-76.398245	45.271424			
43428	12.295311	-2.457238	1.585892	-0.046620	0.071361	2.825353	-59.086164	-76.685066	46.197575			
43429	12.046502	-2.900279	1.130187	0.207228	-0.522288	2.616763	-59.496266	-76.898906	46.931112			
43430	11.833641	-3.052411	0.911723	0.323021	-0.772672	2.413599	-59.554350	-77.052531	47.326526			
43431	11.167614	-2.646142	0.912037	0.295582	-0.515188	1.684991	-59.045031	-77.140493	47.157444			
43432	10.699025	-2.207790	1.279168	-0.027496	-0.121649	1.185676	-57.937834	-77.159612	46.317613			
43433	9.811547	-1.829876	1.578909	-0.343128	0.127039	0.285513	-56.379041	-77.112737	44.931147			
43434	9.116165	-1.530840	2.173922	-0.922793	0.392501	-0.369813	-54.600897	-77.023817	43.219876			
43435	8.231536	-1.225965	2.675287	-1.439211	0.620610	-1.212604	-52.653916	-76.875797	41.237553			
43436	7.648654	-1.127844	2.858288	-1.635718	0.637326	-1.759019	-50.689515	-76.686220	39.148279			
43437	7.005019	-0.879155	2.855360	-1.639952	0.760693	-2.414862	-48.797078	-76.459883	37.073767			
43438	6.699339	-1.103890	2.514169	-1.353545	0.408433	-2.711871	-47.144565	-76.246394	35.217205			
43439	6.526990	-1.397375	2.212355	-1.106186	0.019400	-2.868295	-45.825632	-76.062090	33.723480			
43440	6.609696	-1.517420	1.982607	-0.856141	-0.150263	-2.800860	-44.813028	-75.910592	32.606547			
43441	6.709864	-1.508645	1.922950	-0.747439	-0.154720	-2.712452	-43.971152	-75.783988	31.753677			
43442	6.743621	-1.583652	2.063629	-0.863915	-0.205778	-2.639530	-43.132179	-75.677182	30.980802			
43443	6.477683	-1.836415	2.059098	-0.939028	-0.502685	-2.852937	-42.187407	-75.575646	30.161366			
43444	6.053016	-1.721750	2.149638	-1.068357	-0.445538	-3.264071	-41.168414	-75.448675	29.335085			
43445	5.961960	-1.428450	2.003179	-0.867262	-0.223703	-3.425521	-40.298065	-75.333793	28.648469			
43446	5.871872	-1.092502	1.704378	-0.520856	0.011470	-3.623512	-39.668473	-75.274678	28.196258			
43447	6.315412	-0.855851	1.645397	-0.314219	0.270320	-3.243637	-39.352192	-75.287255	28.061653			
43448	6.751353	-0.395937	1.622053	-0.117456	0.756197	-2.900167	-39.338826	-75.376901	28.244890			
43449	7.469369	-0.293246	1.826696	-0.154535	0.980050	-2.181838	-39.629914	-75.525319	28.699485			
43450	8.162847	-0.269701	2.313423	-0.495163	1.184331	-1.421691	-40.105314	-75.689757	29.349171			
43451	8.228631	0.131998	1.910674	-0.060913	1.507975	-1.500007	-40.737756	-75.852792	30.173527			
43452	8.180547	0.476876	1.339296	0.496825	1.737075	-1.708488	-41.593634	-76.030283	31.182984			
43453	8.200960	0.684327	1.068720	0.752644	1.905894	-1.771101	-42.640214	-76.211311	32.343856			
43454	8.484256	0.942375	0.954554	0.915126	2.190878	-1.557737	-43.788313	-76.395652	33.580710			
43455	8.862743	1.275550	1.103409	0.850680	2.612267	-1.219380	-44.920683	-76.574407	34.770572			
43456	9.287985	1.393713	1.404397	0.611274	2.856613	-0.776796	-45.924143	-76.751581	35.812825			
43457	9.518135	1.326569	1.833794	0.181981	2.913172	-0.474721	-46.741949	-76.928273	36.647657			
43458	10.089014	0.972712	2.550132	-0.505689	2.782462	0.249103	-47.278911	-77.093745	37.167387			
43459	10.536687	0.456047	3.102555	-1.072425	2.438486	0.853111	-47.410033	-77.213982	37.235733			
43460	10.877832	-0.019713	2.997389	-0.997651	1.990924	1.248635	-47.220669	-77.294060	36.890012			
43461	11.528901	-0.522108	2.716048	-0.686289	1.522302	1.925142	-46.844357	-77.309333	36.246551			
43462	12.282685	-0.809268	2.696836	-0.562799	1.327341	2.705841	-46.444111	-77.270477	35.548832			
43463	12.944126	-0.964231	2.596091	-0.349101	1.239443	3.361594	-46.270662	-77.203326	35.102423			
43464	13.079702	-0.632034	2.255712	0.086403	1.521378	3.387471	-46.410945	-77.097564	35.034948			
43465	12.276101	-0.227673	1.675382	0.598714	1.716851	2.445175	-46.729828	-76.913348	35.182641			
43466	11.025333	0.225456	1.836036	0.324916	2.062390	1.170053	-47.114624	-76.685534	35.441644			
43467	10.389863	0.594177	2.809654	-0.635461	2.579435	0.634273	-47.474520	-76.460425	35.713256			
43468	10.680443	0.685530	3.863905	-1.551835	2.969486	1.061382	-47.759565	-76.271495	35.889731			
43469	11.646063	0.580569	4.486488	-1.953892	3.171398	2.112947	-47.905955	-76.106495	35.803048			
43470	13.717185	0.197584	4.362191	-1.464406	3.098818	4.168783	-47.994325	-75.968093	35.521810			
43471	15.200810	-0.748087	3.474492	-0.456862	2.230837	5.631102	-48.118411	-75.785235	35.151965			
43472	15.336231	-1.681875	2.228595	0.615888	1.101460	5.724445	-48.554220	-75.598180	35.068498			
43473	14.689786	-3.942026	1.070684	1.136234	-1.388213	5.328556	-49.107958	-75.341238	35.151558			
43474	14.677174	-6.390071	0.379043	1.298449	-3.843940	5.677099	-49.202212	-74.913820	34.936120			
43475	13.876899	-7.649544	-0.201494	1.497232	-5.253847	5.062732	-48.708709	-74.279603	34.204815			
43476	12.339233	-7.591251	0.062702	1.051005	-5.308144	3.626243	-48.034139	-73.582986	33.336085			
43477	9.945874	-6.661512	1.865856	-0.882384	-4.264768	1.492603	-47.542101	-72.981034	32.735826			
43478	8.645483	-6.268707	2.936252	-2.037806	-3.770416	0.399732	-47.486167	-72.615009	32.758872			
43479	8.292509	-5.566549	3.456967	-2.409244	-3.002326	0.030293	-47.463396	-72.449113	32.952771			
43480	7.593008	-4.619672	3.824773	-2.696812	-2.123575	-0.766051	-47.318122	-72.417541	33.029823			
43481	6.952648	-3.449425	3.964164	-2.730586	-1.095090	-1.609207	-47.238004	-72.511392	33.094711			
43482	6.676095	-2.406944	3.790240	-2.428651	-0.208678	-2.145383	-47.476716	-72.720768	33.420019			
43483	6.753998	-1.713862	3.529208	-2.050532	0.390150	-2.285933	-48.160502	-73.000019	34.123122			
43484	6.981363	-1.328395	2.688625	-1.168709	0.584061	-2.327672	-49.347409	-73.294213	35.268443			
43485	7.743932	-1.170402	1.618180	-0.002998	0.606764	-1.838466	-50.977735	-73.550826	36.797190			
43486	8.771931	-1.450468	0.546416	1.119063	0.272283	-0.979667	-52.674825	-73.726393	38.409563			
43487	9.439161	-1.855999	-0.440861	2.055954	-0.212624	-0.407140	-54.102834	-73.790400	39.732461			
43488	10.320709	-2.280104	-0.596583	2.260517	-0.457453	0.519420	-55.104690	-73.735343	40.550789			
43489	10.258588	-2.774216	-0.403248	1.944909	-0.851898	0.607919	-55.457145	-73.523112	40.535631			
43490	9.480849	-3.383526	0.403931	0.892900	-1.326086	0.134272	-55.336627	-73.205946	39.859718			
43491	9.029037	-3.964289	1.139915	-0.011997	-1.727475	-0.037510	-55.046349	-72.920382	38.936470			
43492	8.138208	-3.657441	1.117235	-0.096336	-1.596040	-0.964023	-54.721405	-72.711460	37.942838			
43493	7.222272	-3.847575	1.080947	-0.323402	-1.942906	-1.796828	-54.610172	-72.609792	37.135921			
43494	7.070809	-3.945347	0.839418	-0.179418	-2.130975	-1.958172	-54.744604	-72.630268	36.666873			
43495	6.829927	-3.936869	0.398227	0.144232	-2.306490	-2.265196	-55.020779	-72.698043	36.409084			
43496	6.370930	-4.089731	-0.009601	0.332772	-2.662792	-2.733603	-55.413293	-72.777342	36.362234			
43497	5.988569	-4.449500	0.038849	0.053450	-3.038680	-2.999028	-56.003715	-72.862914	36.610492			
43498	6.219985	-4.800262	0.036709	-0.033309	-3.309272	-2.686711	-56.777446	-72.965399	37.171905			
43499	6.726288	-4.745200	0.109184	-0.001135	-3.127068	-2.197366	-57.641666	-73.072703	37.946758			
43500	7.607234	-4.425309	0.239197	0.146734	-2.611489	-1.406197	-58.469716	-73.173028	38.786866			
43501	8.548360	-3.897597	0.511431	0.241935	-1.841787	-0.588996	-59.150845	-73.235007	39.510342			
43502	9.135371	-3.544270	0.692480	0.293900	-1.328633	-0.084136	-59.604726	-73.240266	39.964767			
43503	9.120146	-3.290296	0.710522	0.343311	-1.075931	-0.156992	-59.878124	-73.192260	40.182378			
43504	8.969877	-3.223673	0.513706	0.510998	-1.096991	-0.344312	-60.108262	-73.124991	40.321922			
43505	8.539202	-3.158085	-0.026990	0.934394	-1.292888	-0.849009	-60.410892	-73.060850	40.534022			
43506	8.028595	-3.168051	-0.434247	1.188018	-1.527575	-1.390184	-60.826012	-73.035843	40.887145			
43507	7.852911	-2.955584	-0.515763	1.277301	-1.379885	-1.619149	-61.393839	-73.057793	41.454692			
43508	8.107114	-2.799600	-0.333678	1.192761	-1.106868	-1.384966	-62.053759	-73.116798	42.180458			
43509	8.690525	-2.572470	0.239668	0.831960	-0.565099	-0.802212	-62.766922	-73.195750	43.007575			
43510	9.383377	-2.314182	0.741155	0.563534	0.001241	-0.136177	-63.427016	-73.265502	43.796092			
43511	10.155142	-2.081782	1.034918	0.495732	0.486713	0.581978	-63.937182	-73.300730	44.389900			
43512	10.405129	-1.709979	1.176682	0.512541	0.940734	0.743241	-64.234538	-73.290923	44.693168			
43513	10.372778	-1.484286	1.108934	0.635258	1.128974	0.644331	-64.363065	-73.239169	44.721160			
43514	10.074584	-1.034364	1.052331	0.773004	1.469273	0.233119	-64.394723	-73.170430	44.614007			
43515	9.773504	-0.730244	0.805331	1.046029	1.606623	-0.167597	-64.453076	-73.100622	44.485213			
43516	9.737263	-0.777602	0.464241	1.350567	1.441708	-0.235010	-64.535421	-73.030812	44.372436			
43517	9.642424	-0.659406	0.627744	1.229169	1.596316	-0.339245	-64.610070	-72.938929	44.240314			
43518	9.576258	-0.949498	0.629826	1.135906	1.329594	-0.328763	-64.668307	-72.822562	44.086771			
43519	9.394155	-1.111265	0.665520	1.031036	1.171183	-0.458907	-64.695434	-72.672382	43.908568			
43520	9.179497	-1.251168	0.582692	1.038325	0.984756	-0.640982	-64.692431	-72.491501	43.707216			
43521	8.973683	-1.306297	0.492169	1.084267	0.876062	-0.838701	-64.695882	-72.283490	43.507459			
43522	8.731301	-1.266499	0.590466	0.980900	0.918517	-1.072988	-64.734574	-72.050253	43.336987			
43523	8.560069	-1.383552	0.436043	1.071744	0.742074	-1.228999	-64.853383	-71.806719	43.242826			
43524	8.588268	-1.692719	0.163857	1.246829	0.392916	-1.155816	-65.064506	-71.559792	43.252164			
43525	8.649228	-1.967900	-0.049310	1.383242	0.107808	-1.051460	-65.340827	-71.302129	43.341859			
43526	8.624814	-2.233698	-0.003114	1.266262	-0.083964	-0.994171	-65.567392	-71.030443	43.428070			
43527	8.871533	-2.454749	0.234283	1.058287	-0.098952	-0.666384	-65.690240	-70.751260	43.461268			
43528	9.018873	-2.572031	0.352629	0.976982	-0.090130	-0.479041	-65.700620	-70.457354	43.441061			
43529	9.096444	-2.431770	0.314148	1.115856	0.067801	-0.458141	-65.568883	-70.160248	43.320569			
43530	9.083559	-2.190229	0.233622	1.309600	0.272995	-0.562123	-65.324462	-69.867666	43.107368			
43531	9.137659	-1.885322	0.339657	1.373126	0.618290	-0.598640	-65.002810	-69.604015	42.848540			
43532	9.316787	-1.594865	0.611975	1.310785	1.040105	-0.489570	-64.637599	-69.376984	42.572595			
43533	9.522378	-1.334399	0.823675	1.296114	1.412871	-0.354436	-64.280402	-69.194277	42.322356			
43534	9.650774	-1.269263	0.854686	1.352386	1.519904	-0.255500	-64.030480	-69.061829	42.174510			
43535	9.863642	-1.379261	0.878039	1.368102	1.490050	-0.021222	-63.988742	-68.984096	42.228587			
43536	10.047961	-1.653561	0.823001	1.378295	1.281439	0.228792	-64.175028	-68.956460	42.540105			
43537	10.562878	-1.787643	1.002128	1.294821	1.372635	0.780404	-64.462324	-68.972515	42.998634			
43538	11.011449	-2.455791	1.502154	0.725961	1.092417	1.493018	-64.603538	-68.991922	43.336219			
43539	11.340399	-2.607983	1.751878	0.525799	1.133509	1.888338	-64.533692	-69.028514	43.483530			
43540	11.385688	-2.933140	2.168122	0.053619	0.996685	2.101239	-64.247716	-69.089617	43.334949			
43541	11.506987	-2.997745	2.558357	-0.289997	1.084950	2.298510	-63.882066	-69.208418	43.028599			
43542	12.011851	-3.459781	3.100352	-0.803307	0.953018	3.005779	-63.483206	-69.399066	42.592939			
43543	12.255256	-4.128000	2.726115	-0.630641	0.220606	3.386430	-63.293645	-69.671564	42.219366			
43544	12.469838	-4.536127	1.476211	0.381869	-0.620172	3.518533	-63.389410	-70.037399	42.047828			
43545	11.959382	-4.889692	0.097015	1.308860	-1.631201	2.937620	-63.798646	-70.466555	42.096354			
43546	11.789140	-5.425971	-0.360619	1.392001	-2.370080	2.875837	-64.512447	-70.930270	42.414505			
43547	11.852737	-6.013645	-0.657287	1.348929	-3.031913	3.074117	-65.353016	-71.379329	42.916740			
43548	11.373485	-6.699161	-0.921708	1.115040	-3.880666	2.788122	-66.117945	-71.776993	43.387213			
43549	10.841736	-7.299746	-0.865852	0.628890	-4.534739	2.460013	-66.579052	-72.107034	43.633316			
43550	9.552491	-7.833844	-0.609368	-0.147046	-5.213930	1.402639	-66.464871	-72.360533	43.388403			
43551	8.186972	-7.683153	0.244469	-1.190991	-5.061334	0.141272	-65.834916	-72.559001	42.777746			
43552	6.741584	-7.435285	1.073275	-2.164336	-4.850630	-1.229503	-64.838388	-72.745853	41.907180			
43553	5.877655	-6.977649	2.067822	-3.071531	-4.275418	-2.079884	-63.626623	-72.988733	40.997730			
43554	6.524048	-6.311495	2.922576	-3.449349	-3.295855	-1.555682	-62.409585	-73.350549	40.166376			
43555	6.821294	-5.495488	3.160510	-3.307604	-2.512101	-1.477982	-61.043076	-73.800137	39.248875			
43556	7.359843	-4.416473	2.843882	-2.534350	-1.669783	-1.295176	-59.677563	-74.309307	38.390645			
43557	7.922750	-3.465205	2.938501	-2.199384	-0.781590	-0.983012	-58.486726	-74.836844	37.743158			
43558	8.978170	-2.890475	2.886090	-1.781568	-0.207742	-0.113526	-57.749892	-75.374843	37.576644			
43559	10.177594	-2.550413	2.612236	-1.237915	0.107243	0.928216	-57.582820	-75.863516	37.970672			
43560	11.314784	-2.358856	2.211010	-0.656914	0.257152	1.933752	-57.864108	-76.253647	38.773244			
43561	11.842460	-2.427378	1.571425	-0.048743	0.026535	2.377556	-58.341763	-76.506575	39.668734			
43562	12.019382	-2.832288	1.007115	0.348832	-0.520986	2.561015	-58.578033	-76.621513	40.260320			
43563	11.443482	-3.173393	0.953875	0.190315	-0.949983	2.061439	-58.313667	-76.628065	40.298225			
43564	11.012751	-3.340576	1.223543	-0.160020	-1.099895	1.706932	-57.459410	-76.539600	39.706770			
43565	10.032924	-3.037310	1.730911	-0.672269	-0.825932	0.758328	-56.098115	-76.376085	38.580355			
43566	9.177060	-2.633074	1.788228	-0.703270	-0.584084	-0.142473	-54.492805	-76.163438	37.160105			
43567	8.347181	-2.272636	1.915470	-0.811510	-0.355209	-0.996558	-52.783366	-75.912202	35.531964			
43568	7.612963	-1.893681	2.282068	-1.129802	-0.018081	-1.721095	-51.066796	-75.645921	33.863920			
43569	7.190040	-1.417337	2.590729	-1.314317	0.439898	-2.164412	-49.465755	-75.393618	32.319588			
43570	6.998018	-0.941543	2.654331	-1.231718	0.855149	-2.419748	-48.008062	-75.178744	30.931679			
43571	7.374993	-1.040160	2.699164	-1.172615	0.798899	-2.018814	-46.752887	-75.005942	29.748959			
43572	7.954518	-1.079415	2.799411	-1.106541	0.839221	-1.425359	-45.629427	-74.858083	28.731143			
43573	8.268915	-0.987081	2.649852	-0.832124	0.893876	-1.159399	-44.622191	-74.721726	27.800651			
43574	8.254163	-1.200970	2.056613	-0.303714	0.488271	-1.241082	-43.806651	-74.589264	27.008902			
43575	8.197274	-1.504269	1.591742	0.067411	0.037676	-1.328248	-43.135881	-74.453872	26.329270			
43576	8.110839	-1.715564	1.478050	0.124731	-0.220527	-1.395488	-42.551352	-74.326668	25.755983			
43577	7.888347	-1.781274	1.451936	0.102187	-0.328022	-1.603608	-42.062633	-74.217656	25.323713			
43578	7.686214	-1.695397	1.463909	0.082904	-0.275708	-1.811914	-41.714989	-74.146576	25.109642			
43579	7.492409	-1.438624	1.433757	0.141678	-0.068426	-2.051455	-41.582620	-74.108659	25.156453			
43580	7.389065	-1.210140	1.811807	-0.174028	0.247270	-2.115030	-41.617240	-74.096681	25.418779			
43581	7.488977	-1.146336	2.233680	-0.528368	0.445206	-1.944346	-41.779091	-74.077234	25.850699			
43582	7.328714	-0.820806	2.288315	-0.542794	0.758142	-2.147784	-42.153981	-74.066374	26.504702			
43583	7.345189	-0.708009	2.400039	-0.629235	0.913010	-2.132604	-42.827554	-74.089523	27.442646			
43584	7.352932	-0.353575	2.506746	-0.666941	1.301129	-2.174852	-43.781598	-74.160551	28.665112			
43585	7.593966	-0.132788	2.399723	-0.494585	1.539974	-2.013441	-45.036742	-74.285654	30.172946			
43586	7.957005	0.006886	2.176340	-0.218845	1.694510	-1.742324	-46.543495	-74.459471	31.931312			
43587	8.346710	-0.098735	1.769258	0.166983	1.578746	-1.428968	-48.210555	-74.651493	33.874062			
43588	8.741287	-0.172681	1.420017	0.498958	1.516028	-1.100139	-49.863330	-74.837185	35.840461			
43589	9.035822	-0.347793	1.333524	0.537233	1.411471	-0.798034	-51.345489	-74.991830	37.649078			
43590	8.996785	-0.389239	1.396720	0.400668	1.414411	-0.819185	-52.526950	-75.110608	39.154538			
43591	9.023826	-0.379336	1.784559	-0.011034	1.546710	-0.737150	-53.424675	-75.200303	40.340791			
43592	9.172765	-0.569733	2.269027	-0.522979	1.517476	-0.483359	-53.958185	-75.274139	41.147785			
43593	9.040663	-0.593936	2.781921	-1.072945	1.593270	-0.531757	-54.214773	-75.346013	41.663554			
43594	8.724864	-0.514646	2.544119	-0.913383	1.555738	-0.890468	-54.517349	-75.459660	42.174280			
43595	8.878865	-0.546092	2.281374	-0.670649	1.487355	-0.775265	-55.080664	-75.621944	42.912367			
43596	9.644873	-0.517541	2.319890	-0.607104	1.650805	-0.036217	-55.804563	-75.796570	43.842967			
43597	10.472989	-0.348140	2.315945	-0.474370	1.954420	0.728817	-56.523910	-75.940807	44.796318			
43598	10.796034	-0.095373	2.244669	-0.349500	2.242383	0.978577	-57.189725	-76.033113	45.673284			
43599	10.948228	0.167760	2.106418	-0.180072	2.503169	1.051495	-57.813751	-76.077058	46.445790			
43600	11.062001	0.555082	2.252719	-0.264707	2.940861	1.097487	-58.439791	-76.098759	47.153595			
43601	11.132140	0.986257	2.081413	-0.038244	3.349054	1.050636	-59.085697	-76.123371	47.832711			
43602	11.176778	1.488419	1.930985	0.177818	3.824289	0.967275	-59.704100	-76.156242	48.438865			
43603	11.224199	2.236770	2.289126	-0.054538	4.637762	0.897775	-60.202858	-76.201337	48.976638			
43604	11.072591	3.112002	2.780809	-0.427616	5.558456	0.624763	-60.615472	-76.269351	49.447916			
43605	10.406458	2.743464	3.792261	-1.603379	5.291201	0.169023	-61.012334	-76.353096	49.820165			
43606	11.032823	1.708828	5.036481	-2.920488	4.664379	1.129146	-61.419421	-76.463238	50.077792			
43607	13.641408	0.449266	4.816413	-2.547161	3.884889	3.895240	-61.677268	-76.530716	49.908433			
43608	16.739715	-2.066783	2.563796	-0.350652	1.550829	7.173618	-61.566198	-76.486575	49.161679			
43609	17.788395	-3.306969	-0.133910	2.204041	-0.050480	8.146170	-61.556631	-76.354677	48.542605			
43610	16.692290	-6.076757	-1.683753	2.947547	-3.231171	7.486613	-62.235646	-76.180180	48.633898			
43611	16.459497	-9.609056	-1.228159	1.712724	-6.467350	8.075760	-62.100036	-75.789953	48.217767			
43612	14.618805	-10.384731	-1.068380	1.200295	-7.429404	6.498470	-60.853102	-75.167863	46.912620			
43613	13.140800	-9.974418	-0.711176	0.855420	-7.155011	5.044865	-59.803682	-74.509091	45.814309			
43614	11.105808	-9.516459	0.449328	-0.398767	-6.743760	3.166718	-59.217114	-73.925620	45.195053			
43615	8.931253	-8.605555	1.082432	-1.128275	-6.088283	0.987930	-59.250038	-73.529723	45.591683			
43616	7.724760	-6.900824	1.214512	-1.049032	-4.654650	-0.538988	-59.285972	-73.300359	46.298843			
43617	6.154038	-4.909391	3.287191	-2.888076	-2.600698	-2.218279	-58.901386	-73.175132	46.520986			
43618	5.277712	-3.315761	5.479713	-4.837058	-0.803597	-3.116968	-58.450768	-73.191480	46.522374			
43619	5.482617	-1.633066	6.082204	-5.072186	0.926958	-3.245143	-58.363827	-73.379572	46.795444			
43620	6.063795	-0.420614	5.703883	-4.410046	2.080658	-3.052296	-58.746883	-73.683780	47.382372			
43621	6.643615	0.266467	4.832489	-3.385904	2.644629	-2.805344	-59.537510	-74.029444	48.252716			
43622	7.148870	0.531112	3.398292	-1.914208	2.686777	-2.597871	-60.637286	-74.351467	49.319438			
43623	7.383243	0.192098	1.747786	-0.386167	2.064321	-2.519323	-61.954312	-74.589149	50.484001			
43624	8.121251	-0.845369	0.072139	1.128508	0.880347	-1.773669	-63.331065	-74.707812	51.641587			
43625	9.242414	-2.620266	-1.004142	1.990436	-0.793049	-0.394333	-64.339100	-74.659536	52.364770			
43626	10.494333	-3.825001	-1.234981	2.174449	-1.700864	1.080686	-64.695779	-74.441620	52.408511			
43627	10.798108	-4.006228	-1.267252	2.242465	-1.784192	1.414187	-64.428886	-74.068042	51.686258			
43628	10.241287	-4.390217	-1.626764	2.461686	-2.326960	0.926469	-63.925519	-73.606133	50.477687			
43629	8.660970	-4.833946	-1.224557	1.730021	-2.969532	-0.428242	-63.608944	-73.152495	49.377400			
43630	8.070690	-4.860786	-0.408604	0.839894	-2.884246	-0.873681	-63.689864	-72.809932	48.778357			
43631	7.910620	-4.666041	0.419739	0.059260	-2.480669	-0.960077	-63.850505	-72.590553	48.360940			
43632	7.246824	-4.485882	1.022783	-0.611795	-2.266866	-1.556013	-63.923655	-72.484164	47.964793			
43633	6.283237	-4.560021	1.068647	-0.881832	-2.525358	-2.446564	-64.015035	-72.492902	47.728811			
43634	6.101212	-4.561739	1.015102	-0.890223	-2.581216	-2.628715	-64.258257	-72.615410	47.764859			
43635	6.384909	-4.565030	1.124772	-0.967086	-2.492896	-2.347985	-64.640825	-72.804310	48.009953			
43636	6.862522	-4.493382	1.016106	-0.784508	-2.362933	-1.931180	-65.027784	-73.021743	48.331351			
43637	7.796282	-3.881876	0.999584	-0.458765	-1.610366	-1.207671	-65.269773	-73.230921	48.587984			
43638	8.895579	-3.026114	1.101953	-0.143226	-0.567149	-0.370190	-65.177756	-73.398385	48.580487			
43639	9.356760	-2.448988	0.765493	0.407588	-0.055938	-0.119227	-64.789075	-73.493284	48.260861			
43640	9.482782	-2.361877	0.483340	0.729521	-0.053255	-0.055631	-64.336562	-73.518996	47.815367			
43641	9.240185	-2.508828	0.062214	1.056712	-0.378759	-0.303797	-64.056433	-73.494144	47.489812			
43642	9.060628	-2.554791	-0.301078	1.363311	-0.569851	-0.510579	-64.004122	-73.444651	47.366035			
43643	8.953976	-2.774432	-0.306569	1.294624	-0.791475	-0.557276	-64.149267	-73.376211	47.426401			
43644	8.578344	-2.685773	-0.499660	1.426456	-0.833001	-0.962697	-64.461280	-73.310208	47.687881			
43645	8.360064	-2.640338	-0.464473	1.355398	-0.809008	-1.176360	-64.951904	-73.261580	48.124484			
43646	8.427712	-2.706453	-0.320720	1.199477	-0.793574	-1.072807	-65.573787	-73.253895	48.712463			
43647	8.759153	-2.688812	0.152959	0.798099	-0.543619	-0.699877	-66.196692	-73.267560	49.327388			
43648	9.331570	-2.794293	0.495758	0.530269	-0.397620	-0.081670	-66.727979	-73.299609	49.846062			
43649	9.748956	-2.914397	0.801101	0.266937	-0.314980	0.385701	-67.060429	-73.331845	50.162927			
43650	9.961645	-2.739583	0.919844	0.229058	-0.067897	0.556918	-67.115079	-73.358546	50.209967			
43651	9.800451	-2.320424	0.823352	0.403072	0.251134	0.281151	-66.913371	-73.369667	50.011749			
43652	9.627534	-1.905729	0.767721	0.542911	0.570789	0.000062	-66.586159	-73.381385	49.695086			
43653	9.493752	-1.426160	0.929794	0.504610	1.022323	-0.235111	-66.175742	-73.397157	49.281524			
43654	9.295617	-1.215651	1.051598	0.422746	1.195491	-0.464735	-65.698540	-73.417036	48.793278			
43655	9.377594	-0.921575	1.104737	0.481562	1.484564	-0.454635	-65.217366	-73.441530	48.280364			
43656	9.474109	-0.642227	1.050351	0.643031	1.729559	-0.438813	-64.706060	-73.451612	47.695017			
43657	9.496475	-0.552483	0.764670	0.962741	1.713208	-0.474006	-64.208148	-73.433741	47.062108			
43658	9.377558	-0.400173	0.500311	1.254558	1.734376	-0.660255	-63.786348	-73.382788	46.459216			
43659	9.376941	-0.549039	0.231999	1.492628	1.504230	-0.658913	-63.492263	-73.293289	45.928853			
43660	9.226834	-0.758174	0.157799	1.501668	1.254125	-0.762478	-63.298720	-73.156521	45.451714			
43661	9.193259	-1.049452	-0.004611	1.594785	0.931215	-0.745891	-63.192718	-72.965857	45.022775			
43662	8.900217	-1.314715	-0.051651	1.533496	0.623310	-0.969341	-63.169493	-72.718775	44.657333			
43663	8.573869	-1.473141	0.023589	1.377976	0.455991	-1.235097	-63.320263	-72.442195	44.479060			
43664	8.425912	-1.658956	0.078738	1.264913	0.302547	-1.323715	-63.625421	-72.156468	44.491518			
43665	8.453335	-2.074000	0.294502	0.968995	0.039518	-1.157839	-63.973633	-71.850311	44.583111			
43666	8.685773	-2.684178	0.373392	0.788444	-0.397857	-0.756930	-64.213499	-71.527460	44.630787			
43667	8.790107	-3.094546	0.612477	0.497866	-0.623528	-0.507827	-64.258636	-71.189725	44.532141			
43668	8.776278	-3.583874	0.543840	0.448546	-1.061419	-0.387458	-64.083304	-70.878639	44.286510			
43669	8.967003	-3.912014	1.127017	-0.098838	-1.085599	-0.025316	-63.664530	-70.602714	43.895516			
43670	9.181239	-3.908806	1.065347	0.063904	-1.045289	0.167888	-63.055032	-70.353089	43.369143			
43671	8.851855	-3.878125	0.262114	0.787899	-1.376278	-0.275983	-62.428713	-70.128468	42.806823			
43672	8.616860	-3.901910	-0.315286	1.299951	-1.656407	-0.585505	-61.963470	-69.967910	42.462114			
43673	8.676367	-4.006249	-0.528086	1.514693	-1.811545	-0.537334	-61.620689	-69.890088	42.375323			
43674	8.994330	-3.843015	-0.650947	1.781408	-1.632868	-0.312647	-61.330953	-69.907992	42.522966			
43675	9.097675	-3.684658	-0.238007	1.492444	-1.329741	-0.199916	-60.870825	-69.981040	42.708757			
43676	8.950585	-2.828056	0.444625	1.075418	-0.375584	-0.484726	-60.116527	-70.122684	42.832039			
43677	9.148319	-2.562762	1.004286	0.689027	0.049945	-0.284279	-59.044727	-70.299683	42.769670			
43678	9.519561	-1.624978	2.111689	-0.017795	1.267275	-0.008866	-57.650960	-70.519692	42.432932			
43679	9.703682	-0.431991	2.613186	-0.183239	2.471787	-0.064221	-56.198693	-70.821452	41.971427			
43680	10.005369	0.885897	3.395150	-0.611476	3.881719	0.034967	-55.000338	-71.230771	41.589654			
43681	11.377421	1.674731	4.658531	-1.400328	5.130299	1.397557	-54.320967	-71.740133	41.471975			
43682	13.369158	1.717494	3.962056	-0.365108	5.314910	3.187259	-54.295178	-72.326543	41.624890			
43683	14.465246	0.380826	2.194232	1.199557	3.761226	4.280412	-54.762059	-72.935142	41.858842			
43684	14.037631	-2.060326	0.579631	2.032815	0.893550	4.212390	-55.716140	-73.571175	42.292964			
43685	14.255052	-3.717220	-0.457265	2.550986	-0.961456	4.671711	-57.167967	-74.206938	43.108878			
43686	14.127510	-5.072950	-1.344070	2.873078	-2.550712	4.760006	-58.842750	-74.758007	44.130291			
43687	13.480308	-5.928560	-2.277853	3.250549	-3.766599	4.233629	-60.377600	-75.157684	44.999514			
43688	13.004473	-6.768615	-2.304305	2.824246	-4.681763	3.983808	-61.489845	-75.387747	45.418467			
43689	11.865995	-8.127305	-1.928780	1.796008	-6.074471	3.242941	-61.968580	-75.458872	45.225407			
43690	10.185036	-8.624912	-1.276719	0.674859	-6.653733	1.807395	-61.840836	-75.406260	44.604804			
43691	8.224523	-9.613889	-0.756722	-0.469459	-7.768594	0.190853	-61.228318	-75.292787	43.684241			
43692	6.028752	-9.192892	0.505067	-1.932934	-7.377110	-1.878452	-60.155142	-75.201045	42.619148			
43693	4.192691	-7.838105	1.332375	-2.633843	-6.200439	-3.862330	-58.769872	-75.212061	41.575485			
43694	3.555479	-6.372885	2.653613	-3.544892	-4.586519	-4.646098	-57.096654	-75.395807	40.444819			
43695	4.401858	-5.088706	3.586984	-3.879392	-3.050539	-4.000535	-55.232349	-75.786805	39.309964			
43696	5.176390	-2.669992	4.328423	-3.803466	-0.548758	-3.657183	-53.177307	-76.326898	38.073846			
43697	6.115774	-0.626221	4.799187	-3.604364	1.529162	-3.067647	-51.077737	-76.944327	36.751153			
43698	7.221189	0.964804	4.816053	-3.107771	3.072455	-2.251557	-49.115388	-77.573058	35.492180			
43699	9.004953	2.275706	4.807741	-2.575974	4.430347	-0.695842	-47.672186	-78.191267	34.547378			
43700	11.087410	2.403797	4.744788	-2.225106	4.677034	1.340555	-46.963719	-78.750090	34.010907			
43701	12.963862	1.507939	4.323936	-1.785566	3.848261	3.265310	-46.951143	-79.173433	33.872187			
43702	14.032696	0.112940	3.451436	-1.136632	2.377204	4.396413	-47.348815	-79.411758	33.916703			
43703	13.459147	-1.382697	1.646006	0.153493	0.442452	3.809004	-47.770324	-79.449023	33.854587			
43704	13.863728	-2.652097	0.708227	0.823486	-0.960285	4.263458	-47.882044	-79.337604	33.503210			
43705	14.249279	-3.090149	0.748544	0.776657	-1.318874	4.706553	-47.400642	-79.058290	32.541983			
43706	13.337409	-3.424034	1.339459	0.068646	-1.565923	3.933105	-46.182704	-78.595426	30.791659			
43707	11.458085	-2.779279	2.228090	-0.813294	-0.885260	2.125901	-44.599987	-77.991466	28.550852			
43708	9.604917	-2.546457	2.275433	-1.012207	-0.819525	0.297661	-43.069172	-77.350181	26.224425			
43709	8.404545	-2.474899	2.048120	-0.912481	-0.921995	-0.909153	-41.725723	-76.758325	24.018676			
